File: polyN_optimization/AA7020-T6_results/DATA/NT6_90_1.csv
Time[s],Displacement[mm],Force[kN],AxStrain_1,AxStrain_2,Thickness[mm],OuterWidth[mm],InnerWidth[mm]
0.54,0,-0.010912,0,0,1.0239,19.697,9.9486
1.04,-0.000252,-0.011344,4.8999e-05,0,0,0,0
1.54,0.000784,-0.011137,7.8997e-05,0,0,0,0
2.04,0.001314,-0.0045684,0.00027696,0,0,0,0
2.54,0.001626,0.0095768,0.00013499,0,0,0,0
3.04,0.001798,0.027568,6.6998e-05,0,0,0,0
3.54,0.002225,0.047432,0.00016699,0,0,0,0
4.04,0.00232,0.065996,8e-06,0,0,0,0
4.54,0.003173,0.084432,0.00010099,0,0,0,0
5.04,0.003381,0.10042,-2.4e-05,0,0,0,0
5.54,0.004197,0.11658,0.00018998,0,0,0,0
6.04,0.004137,0.132,-8e-06,0,0,0,0
6.54,0.0048,0.14786,7.2997e-05,0,0,0,0
7.04,0.00535,0.16214,-1.4e-05,0,0,0,0
7.54,0.005719,0.17657,-2e-05,0,0,0,0
8.04,0.005842,0.18928,7.1997e-05,0,0,0,0
8.54,0.006282,0.20172,8.8996e-05,0,0,0,0
9.04,0.00687,0.21414,0.00016999,0,0,0,0
9.54,0.007237,0.229,0.00017199,0,0,0,0
10.04,0.007846,0.24314,6.5998e-05,0,0,0,0
10.54,0.0082,0.25758,0.00023797,0,0,0,0
11.04,0.009001,0.27071,0.00028596,0,0,0,0
11.54,0.009092,0.28443,0.00041391,0,0,0,0
12.04,0.009819,0.29685,0.0004419,0,0,0,0
12.54,0.010283,0.31015,0.00021098,0,0,0,0
13.04,0.010642,0.32343,0.00029096,0,0,0,0
13.54,0.011006,0.33757,0.00048388,0,0,0,0
14.04,0.011266,0.35,0.00027096,0,0,0,0
14.54,0.01123,0.36286,0.00047389,0,0,0,0
15.04,0.011471,0.37542,0.00060582,0,0,0,0
15.54,0.011437,0.38958,0.00046989,0,0,0,0
16.04,0.012016,0.40328,0.00054485,0,0,0,0
16.54,0.012229,0.41786,0.00066678,0,0,0,0
17.04,0.012486,0.43028,0.00032795,0,0,0,0
17.54,0.012337,0.44272,0.00041991,0,0,0,0
18.04,0.012686,0.45514,0.00040592,0,0,0,0
18.54,0.012791,0.46857,0.00039892,0,0,0,0
19.04,0.013085,0.48143,0.00039292,0,0,0,0
19.54,0.013234,0.49543,0.00053486,0,0,0,0
20.04,0.013366,0.50871,0.00055784,0,0,0,0
20.54,0.014405,0.52172,0.00047389,0,0,0,0
21.04,0.01497,0.53443,0.00067677,0,0,0,0
21.54,0.015924,0.54857,0.00057883,0,0,0,0
22.04,0.016107,0.56214,0.00069676,0,0,0,0
22.54,0.017345,0.57586,0.00059582,0,0,0,0
23.04,0.017636,0.58828,0.0006258,0,0,0,0
23.54,0.017914,0.60158,0.00068976,0,0,0,0
24.04,0.017521,0.61442,0.00060881,0,0,0,0
24.54,0.0183,0.62858,0.0006398,0,0,0,0
25.04,0.018482,0.64228,0.00072774,0,0,0,0
25.54,0.018966,0.65686,0.0008896,0,0,0,0
26.04,0.020066,0.66928,0.00096354,0,0,0,0
26.54,0.01923,0.682,0.00073373,0,0,0,0
27.04,0.019382,0.69485,0.00097452,0,0,0,0
27.54,0.019613,0.70886,0.00066278,0,0,0,0
28.04,0.019626,0.72214,0.00073773,0,0,0,0
28.54,0.019484,0.73672,0.00059882,0,0,0,0
29.04,0.020036,0.75071,0.00073773,0,0,0,0
29.54,0.020415,0.76443,0.00064279,0,0,0,0
30.04,0.020665,0.77714,0.00068676,0,0,0,0
30.54,0.021176,0.79086,0.0007717,0,0,0,0
31.04,0.021541,0.80443,0.00058883,0,0,0,0
31.54,0.022056,0.81829,0.00068377,0,0,0,0
32.04,0.0228,0.83143,0.00074772,0,0,0,0
32.54,0.023497,0.844,0.00093057,0,0,0,0
33.04,0.02411,0.858,0.00079468,0,0,0,0
33.54,0.02455,0.87242,0.00094355,0,0,0,0
34.04,0.025162,0.88615,0.00090259,0,0,0,0
34.55,0.025551,0.89871,0.0010754,0,0,0,0
35.04,0.025846,0.91171,0.00086563,0,0,0,0
35.54,0.026434,0.92486,0.0010075,0,0,0,0
36.04,0.026851,0.93843,0.0011943,0,0,0,0
36.54,0.026736,0.95343,0.0011563,0,0,0,0
37.04,0.027534,0.96742,0.00095055,0,0,0,0
37.54,0.02768,0.97986,0.0010245,0,0,0,0
38.04,0.027896,0.99186,0.0011264,0,0,0,0
38.54,0.028008,1.0054,0.0010624,0,0,0,0
39.04,0.028387,1.0196,0.0010415,0,0,0,0
39.54,0.028762,1.0331,0.00086962,0,0,0,0
40.04,0.028996,1.0469,0.00096354,0,0,0,0
40.54,0.029483,1.0601,0.00081567,0,0,0,0
41.04,0.029351,1.0741,0.0010794,0,0,0,0
41.54,0.030082,1.0879,0.00087961,0,0,0,0
42.04,0.03061,1.1019,0.0011094,0,0,0,0
42.54,0.031121,1.1143,0.0010624,0,0,0,0
43.04,0.031212,1.1276,0.0012412,0,0,0,0
43.54,0.031906,1.1404,0.0013221,0,0,0,0
44.04,0.031977,1.1546,0.0012412,0,0,0,0
44.54,0.0326,1.1674,0.0012652,0,0,0,0
45.04,0.032935,1.1816,0.0012752,0,0,0,0
45.54,0.033402,1.1944,0.0012782,0,0,0,0
46.04,0.033767,1.2077,0.001424,0,0,0,0
46.54,0.034166,1.2201,0.0016397,0,0,0,0
47.04,0.034589,1.2339,0.0017345,0,0,0,0
47.54,0.034979,1.2474,0.001393,0,0,0,0
48.04,0.035297,1.2613,0.0012882,0,0,0,0
48.54,0.035875,1.2744,0.0012213,0,0,0,0
49.04,0.036264,1.2879,0.0015588,0,0,0,0
49.54,0.036359,1.3014,0.001441,0,0,0,0
50.04,0.037087,1.3156,0.001424,0,0,0,0
50.54,0.037368,1.3291,0.0012712,0,0,0,0
51.04,0.037787,1.3429,0.001417,0,0,0,0
51.54,0.038342,1.3553,0.0013421,0,0,0,0
52.04,0.038599,1.3686,0.0013251,0,0,0,0
52.54,0.038769,1.3814,0.0015248,0,0,0,0
53.04,0.039016,1.3959,0.0015079,0,0,0,0
53.54,0.039131,1.4089,0.0013531,0,0,0,0
54.04,0.039763,1.4229,0.0016496,0,0,0,0
54.54,0.040061,1.4354,0.0016297,0,0,0,0
55.04,0.04021,1.4487,0.0018084,0,0,0,0
55.54,0.04068,1.4611,0.0017475,0,0,0,0
56.04,0.040958,1.4749,0.0018792,0,0,0,0
56.54,0.041097,1.4881,0.0021766,0,0,0,0
57.04,0.0418,1.5019,0.0018084,0,0,0,0
57.54,0.042386,1.5151,0.0019541,0,0,0,0
58.04,0.042508,1.5289,0.0019641,0,0,0,0
58.54,0.043174,1.5421,0.0017884,0,0,0,0
59.04,0.043482,1.5559,0.0016397,0,0,0,0
59.54,0.044467,1.5691,0.0016397,0,0,0,0
60.04,0.044707,1.5829,0.0015957,0,0,0,0
60.54,0.04559,1.5953,0.0016297,0,0,0,0
61.04,0.046078,1.6086,0.0016596,0,0,0,0
61.54,0.046741,1.6214,0.0017545,0,0,0,0
62.04,0.047056,1.6356,0.001444,0,0,0,0
62.54,0.04712,1.6484,0.0015658,0,0,0,0
63.04,0.04736,1.6626,0.0015997,0,0,0,0
63.54,0.047117,1.6754,0.0016666,0,0,0,0
64.04,0.047705,1.6884,0.0016157,0,0,0,0
64.54,0.048111,1.7004,0.0018024,0,0,0,0
65.04,0.04821,1.7139,0.0017145,0,0,0,0
65.54,0.048162,1.7271,0.0017345,0,0,0,0
66.04,0.048443,1.7409,0.0020319,0,0,0,0
66.54,0.049025,1.7541,0.0021297,0,0,0,0
67.04,0.048958,1.7676,0.0018902,0,0,0,0
67.54,0.049499,1.7804,0.0021257,0,0,0,0
68.04,0.050074,1.7939,0.0020888,0,0,0,0
68.54,0.050331,1.8071,0.0020858,0,0,0,0
69.04,0.051235,1.8206,0.0018293,0,0,0,0
69.54,0.051817,1.8326,0.0018353,0,0,0,0
70.04,0.052321,1.8456,0.0019102,0,0,0,0
70.54,0.05272,1.8584,0.002011,0,0,0,0
71.04,0.053685,1.8723,0.0018084,0,0,0,0
71.54,0.054277,1.8847,0.0019102,0,0,0,0
72.04,0.054423,1.8986,0.0017205,0,0,0,0
72.54,0.054764,1.9114,0.0016496,0,0,0,0
73.04,0.054991,1.9247,0.0017814,0,0,0,0
73.54,0.055319,1.9371,0.0018154,0,0,0,0
74.04,0.055725,1.9506,0.0019231,0,0,0,0
74.54,0.055915,1.9634,0.0017375,0,0,0,0
75.04,0.056189,1.9769,0.0020988,0,0,0,0
75.54,0.056402,1.9901,0.0020619,0,0,0,0
76.04,0.05783,2.0039,0.0022205,0,0,0,0
76.54,0.056781,2.0171,0.0023283,0,0,0,0
77.04,0.05694,2.0306,0.0023323,0,0,0,0
77.54,0.057211,2.0434,0.002437,0,0,0,0
78.04,0.057353,2.0566,0.0023931,0,0,0,0
78.54,0.058179,2.0686,0.0024869,0,0,0,0
79.04,0.058555,2.0813,0.002454,0,0,0,0
79.54,0.059512,2.0937,0.002433,0,0,0,0
80.04,0.05984,2.1073,0.0023862,0,0,0,0
80.54,0.060297,2.1197,0.0021667,0,0,0,0
81.04,0.060815,2.1333,0.0022106,0,0,0,0
81.54,0.061106,2.1457,0.0022245,0,0,0,0
82.04,0.061576,2.1584,0.0021637,0,0,0,0
82.54,0.062389,2.1704,0.0021527,0,0,0,0
83.04,0.062538,2.1836,0.0023562,0,0,0,0
83.54,0.062707,2.1961,0.0020858,0,0,0,0
84.04,0.063204,2.2089,0.0021058,0,0,0,0
84.54,0.06382,2.2211,0.0020449,0,0,0,0
85.04,0.063739,2.2341,0.0022135,0,0,0,0
85.54,0.064243,2.2469,0.0023083,0,0,0,0
86.04,0.064747,2.2599,0.002447,0,0,0,0
86.54,0.064595,2.2724,0.0022614,0,0,0,0
87.04,0.064467,2.2856,0.0025418,0,0,0,0
87.54,0.065204,2.2976,0.0026864,0,0,0,0
88.04,0.065671,2.3103,0.002811,0,0,0,0
88.54,0.066142,2.3224,0.0027572,0,0,0,0
89.04,0.066856,2.3359,0.0029397,0,0,0,0
89.54,0.066788,2.3481,0.0030135,0,0,0,0
90.04,0.067509,2.3619,0.0030105,0,0,0,0
90.54,0.06759,2.3741,0.0025916,0,0,0,0
91.04,0.06871,2.3867,0.0025478,0,0,0,0
91.54,0.068967,2.3984,0.0026734,0,0,0,0
92.04,0.06936,2.4116,0.0025956,0,0,0,0
92.54,0.069414,2.4241,0.0025448,0,0,0,0
93.04,0.069965,2.4371,0.0023832,0,0,0,0
93.54,0.070283,2.4499,0.0023662,0,0,0,0
94.04,0.070835,2.4629,0.0023492,0,0,0,0
94.54,0.071167,2.4751,0.0025318,0,0,0,0
95.04,0.071681,2.4881,0.002437,0,0,0,0
95.54,0.072091,2.5009,0.002457,0,0,0,0
96.04,0.072507,2.5139,0.0026495,0,0,0,0
96.54,0.072859,2.5256,0.002832,0,0,0,0
97.04,0.073532,2.5383,0.0027981,0,0,0,0
97.54,0.07428,2.5507,0.0029965,0,0,0,0
98.04,0.074754,2.5643,0.0029467,0,0,0,0
98.54,0.075471,2.5764,0.0031251,0,0,0,0
99.04,0.075809,2.5899,0.0032637,0,0,0,0
99.54,0.075901,2.6021,0.0033813,0,0,0,0
100.04,0.076395,2.6147,0.0031789,0,0,0,0
100.54,0.076486,2.6264,0.0031251,0,0,0,0
101.04,0.077183,2.6396,0.0031889,0,0,0,0
101.54,0.077363,2.6521,0.0029696,0,0,0,0
102.04,0.07789,2.6649,0.0032098,0,0,0,0
102.54,0.077129,2.6771,0.0028988,0,0,0,0
103.04,0.078807,2.6899,0.002828,0,0,0,0
103.54,0.07851,2.7024,0.0027442,0,0,0,0
104.04,0.078608,2.7153,0.0027402,0,0,0,0
104.54,0.079163,2.7277,0.0028489,0,0,0,0
105.04,0.080381,2.7406,0.0026964,0,0,0,0
105.54,0.081105,2.7523,0.0028888,0,0,0,0
106.04,0.081399,2.7646,0.0032328,0,0,0,0
106.54,0.081724,2.7764,0.0030573,0,0,0,0
107.04,0.083119,2.7893,0.0030304,0,0,0,0
107.54,0.083789,2.8007,0.0030573,0,0,0,0
108.04,0.084756,2.8136,0.003449,0,0,0,0
108.54,0.085139,2.8257,0.0034221,0,0,0,0
109.04,0.086002,2.8381,0.0036344,0,0,0,0
109.54,0.086509,2.8494,0.0039442,0,0,0,0
110.04,0.086584,2.8619,0.0038506,0,0,0,0
110.54,0.087139,2.8741,0.0037828,0,0,0,0
111.04,0.087534,2.8866,0.003749,0,0,0,0
111.54,0.087863,2.8984,0.0037151,0,0,0,0
112.04,0.088377,2.9106,0.0034461,0,0,0,0
112.54,0.088881,2.9224,0.0035467,0,0,0,0
113.04,0.08899,2.9346,0.0035806,0,0,0,0
113.54,0.089406,2.9464,0.0033444,0,0,0,0
114.04,0.090154,2.9586,0.0033105,0,0,0,0
114.54,0.0906,2.9696,0.0036145,0,0,0,0
115.04,0.091077,2.981,0.0033783,0,0,0,0
115.54,0.091923,2.992,0.0035128,0,0,0,0
116.04,0.092864,3.004,0.0036483,0,0,0,0
116.54,0.093399,3.015,0.003749,0,0,0,0
117.04,0.094147,3.0273,0.0039173,0,0,0,0
117.54,0.095378,3.0384,0.0038167,0,0,0,0
118.04,0.096035,3.0497,0.0040528,0,0,0,0
118.54,0.096475,3.0601,0.0043555,0,0,0,0
119.04,0.09769,3.0716,0.0047258,0,0,0,0
119.54,0.0984,3.0824,0.0048273,0,0,0,0
120.04,0.099243,3.0936,0.0049617,0,0,0,0
120.54,0.099835,3.1044,0.0052313,0,0,0,0
121.04,0.101,3.1153,0.0051975,0,0,0,0
121.54,0.10138,3.1257,0.0054332,0,0,0,0
122.04,0.10228,3.1366,0.0057027,0,0,0,0
122.54,0.10329,3.1471,0.0051636,0,0,0,0
123.04,0.1045,3.1576,0.0050293,0,0,0,0
123.54,0.10558,3.1669,0.0052313,0,0,0,0
124.04,0.10657,3.177,0.0050293,0,0,0,0
124.54,0.10734,3.1876,0.0050632,0,0,0,0
125.04,0.10849,3.1986,0.005097,0,0,0,0
125.54,0.1096,3.2084,0.0051975,0,0,0,0
126.04,0.11028,3.2186,0.0053318,0,0,0,0
126.54,0.111,3.2276,0.0054332,0,0,0,0
127.04,0.1115,3.2364,0.0055008,0,0,0,0
127.54,0.11306,3.2451,0.0057693,0,0,0,0
128.04,0.11411,3.2554,0.0060725,0,0,0,0
128.54,0.11529,3.265,0.0060049,0,0,0,0
129.04,0.11597,3.275,0.0065435,0,0,0,0
129.54,0.11678,3.284,0.006778,0,0,0,0
130.04,0.11786,3.2934,0.0070809,0,0,0,0
130.54,0.11932,3.3021,0.0075514,0,0,0,0
131.04,0.1202,3.3116,0.0075852,0,0,0,0
131.54,0.12185,3.3204,0.0076517,0,0,0,0
132.04,0.12304,3.3296,0.0080545,0,0,0,0
132.54,0.12443,3.3379,0.0078531,0,0,0,0
133.04,0.12581,3.3467,0.0079205,0,0,0,0
133.54,0.1272,3.3559,0.0078868,0,0,0,0
134.04,0.12852,3.3656,0.0078868,0,0,0,0
134.54,0.12984,3.3741,0.0077866,0,0,0,0
135.04,0.13106,3.3829,0.0078531,0,0,0,0
135.54,0.13251,3.3909,0.0078531,0,0,0,0
136.04,0.13417,3.3989,0.0078193,0,0,0,0
136.54,0.13549,3.4067,0.0080545,0,0,0,0
137.04,0.13664,3.4153,0.0083233,0,0,0,0
137.54,0.13833,3.4234,0.0082895,0,0,0,0
138.04,0.13982,3.4316,0.0087258,0,0,0,0
138.54,0.14135,3.4394,0.0091619,0,0,0,0
139.04,0.14239,3.4476,0.0092293,0,0,0,0
139.54,0.14419,3.4554,0.0099662,0,0,0,0
140.04,0.14574,3.4636,0.010268,0,0,0,0
140.54,0.14767,3.4714,0.010603,0,0,0,0
141.04,0.1493,3.4796,0.010971,0,0,0,0
141.54,0.15079,3.4869,0.011239,0,0,0,0
142.04,0.15214,3.4944,0.011507,0,0,0,0
142.54,0.15343,3.5016,0.011573,0,0,0,0
143.04,0.15515,3.5097,0.011606,0,0,0,0
143.54,0.1565,3.5176,0.011439,0,0,0,0
144.04,0.15816,3.5259,0.011606,0,0,0,0
144.54,0.15914,3.5329,0.011674,0,0,0,0
145.04,0.16053,3.5396,0.011539,0,0,0,0
145.54,0.16246,3.546,0.011841,0,0,0,0
146.04,0.16402,3.5539,0.011473,0,0,0,0
146.54,0.16605,3.5616,0.011841,0,0,0,0
147.04,0.16791,3.5691,0.011908,0,0,0,0
147.54,0.16957,3.5759,0.012108,0,0,0,0
148.04,0.17116,3.5829,0.012275,0,0,0,0
148.54,0.17308,3.5894,0.012743,0,0,0,0
149.04,0.17447,3.5966,0.013077,0,0,0,0
149.54,0.1764,3.6034,0.013444,0,0,0,0
150.04,0.17786,3.6103,0.014212,0,0,0,0
150.54,0.17935,3.6164,0.014279,0,0,0,0
151.04,0.18083,3.6231,0.014879,0,0,0,0
151.54,0.18266,3.6299,0.014845,0,0,0,0
152.04,0.18422,3.6371,0.015312,0,0,0,0
152.54,0.18621,3.6439,0.015712,0,0,0,0
153.04,0.18825,3.6506,0.015745,0,0,0,0
153.54,0.18987,3.6564,0.015745,0,0,0,0
154.04,0.19214,3.6626,0.015812,0,0,0,0
154.54,0.1942,3.6687,0.016078,0,0,0,0
155.04,0.19609,3.6756,0.015878,0,0,0,0
155.54,0.19806,3.6821,0.015945,0,0,0,0
156.04,0.19982,3.6889,0.015846,0,0,0,0
156.54,0.20175,3.6949,0.016046,0,0,0,0
157.04,0.2035,3.7011,0.016245,0,0,0,0
157.54,0.20527,3.7071,0.016345,0,0,0,0
158.04,0.20699,3.7136,0.016844,0,0,0,0
158.54,0.20868,3.7194,0.017143,0,0,0,0
159.04,0.21071,3.7256,0.017476,0,0,0,0
159.54,0.21274,3.7314,0.017808,0,0,0,0
160.04,0.21481,3.7379,0.018075,0,0,0,0
160.54,0.21728,3.7441,0.018539,0,0,0,0
161.04,0.21934,3.7506,0.018805,0,0,0,0
161.54,0.22141,3.7564,0.019138,0,0,0,0
162.04,0.22344,3.7626,0.019337,0,0,0,0
162.54,0.2255,3.7681,0.019602,0,0,0,0
163.04,0.22723,3.7736,0.019834,0,0,0,0
163.54,0.22912,3.7787,0.020033,0,0,0,0
164.04,0.23142,3.7849,0.020066,0,0,0,0
164.54,0.23294,3.7909,0.020299,0,0,0,0
165.04,0.23491,3.7971,0.020265,0,0,0,0
165.54,0.23673,3.8029,0.020464,0,0,0,0
166.04,0.23883,3.8086,0.020596,0,0,0,0
166.54,0.24093,3.8137,0.020596,0,0,0,0
167.04,0.24306,3.8196,0.020795,0,0,0,0
167.54,0.24441,3.8254,0.021127,0,0,0,0
168.04,0.24722,3.8313,0.021259,0,0,0,0
168.54,0.24976,3.8364,0.021591,0,0,0,0
169.04,0.25139,3.8419,0.021988,0,0,0,0
169.54,0.25311,3.8474,0.022187,0,0,0,0
170.04,0.25541,3.8533,0.022451,0,0,0,0
170.54,0.25738,3.8587,0.022716,0,0,0,0
171.04,0.25903,3.8643,0.023113,0,0,0,0
171.54,0.26103,3.8694,0.023443,0,0,0,0
172.04,0.26296,3.8743,0.023543,0,0,0,0
172.54,0.26533,3.879,0.023873,0,0,0,0
173.04,0.2682,3.8846,0.024039,0,0,0,0
173.54,0.27003,3.8901,0.024204,0,0,0,0
174.04,0.27226,3.8959,0.024402,0,0,0,0
174.54,0.27416,3.9011,0.024567,0,0,0,0
175.04,0.27649,3.9063,0.024732,0,0,0,0
175.54,0.27863,3.9113,0.025094,0,0,0,0
176.04,0.28059,3.9167,0.025062,0,0,0,0
176.54,0.28262,3.922,0.02526,0,0,0,0
177.04,0.28472,3.9273,0.025788,0,0,0,0
177.54,0.28668,3.9321,0.025886,0,0,0,0
178.04,0.28881,3.9371,0.026283,0,0,0,0
178.54,0.29138,3.9424,0.026283,0,0,0,0
179.04,0.29365,3.9483,0.026876,0,0,0,0
179.54,0.29605,3.9534,0.026974,0,0,0,0
180.04,0.29839,3.9583,0.027336,0,0,0,0
180.54,0.30092,3.9624,0.027402,0,0,0,0
181.04,0.30289,3.9669,0.027533,0,0,0,0
181.54,0.30519,3.9717,0.027764,0,0,0,0
182.04,0.30739,3.9773,0.028094,0,0,0,0
182.54,0.30928,3.9821,0.028192,0,0,0,0
183.04,0.31138,3.9871,0.028586,0,0,0,0
183.54,0.31361,3.9919,0.02862,0,0,0,0
184.04,0.31588,3.9969,0.028686,0,0,0,0
184.54,0.31828,4.0014,0.028948,0,0,0,0
185.04,0.32045,4.0066,0.029211,0,0,0,0
185.54,0.32302,4.0114,0.029605,0,0,0,0
186.04,0.32569,4.0163,0.029539,0,0,0,0
186.54,0.32793,4.0204,0.029868,0,0,0,0
187.04,0.33003,4.0251,0.030229,0,0,0,0
187.54,0.33209,4.0301,0.030262,0,0,0,0
188.04,0.33459,4.0353,0.030656,0,0,0,0
188.54,0.33679,4.0397,0.030919,0,0,0,0
189.04,0.33889,4.0443,0.03105,0,0,0,0
189.54,0.34109,4.0487,0.03128,0,0,0,0
190.04,0.34346,4.0533,0.031378,0,0,0,0
190.54,0.34542,4.0577,0.031706,0,0,0,0
191.04,0.34843,4.0626,0.032066,0,0,0,0
191.54,0.35094,4.0671,0.032066,0,0,0,0
192.04,0.3533,4.0719,0.032329,0,0,0,0
192.54,0.35567,4.0761,0.032492,0,0,0,0
193.04,0.35797,4.0806,0.03259,0,0,0,0
193.54,0.35997,4.0847,0.033049,0,0,0,0
194.04,0.3617,4.0893,0.032951,0,0,0,0
194.54,0.36393,4.0937,0.033442,0,0,0,0
195.04,0.36637,4.0983,0.033573,0,0,0,0
195.54,0.36901,4.1024,0.033736,0,0,0,0
196.04,0.37131,4.1066,0.033997,0,0,0,0
196.54,0.37354,4.1107,0.034162,0,0,0,0
197.04,0.37618,4.1153,0.034488,0,0,0,0
197.54,0.37868,4.1197,0.034619,0,0,0,0
198.04,0.38109,4.1243,0.035109,0,0,0,0
198.54,0.38322,4.1284,0.03524,0,0,0,0
199.04,0.38535,4.1326,0.035403,0,0,0,0
199.54,0.38785,4.1364,0.035664,0,0,0,0
200.04,0.38999,4.1409,0.035763,0,0,0,0
200.54,0.39215,4.1454,0.036285,0,0,0,0
201.04,0.39415,4.1503,0.036546,0,0,0,0
201.54,0.39645,4.1544,0.036546,0,0,0,0
202.04,0.39899,4.1586,0.036807,0,0,0,0
202.54,0.40122,4.1627,0.037067,0,0,0,0
203.04,0.40366,4.167,0.037296,0,0,0,0
203.54,0.40667,4.171,0.03759,0,0,0,0
204.04,0.409,4.175,0.037981,0,0,0,0
204.54,0.41127,4.1787,0.038176,0,0,0,0
205.04,0.41404,4.1829,0.038306,0,0,0,0
205.54,0.41628,4.1871,0.038339,0,0,0,0
206.04,0.41851,4.1916,0.038729,0,0,0,0
206.54,0.42088,4.1957,0.039022,0,0,0,0
207.04,0.42261,4.2,0.03899,0,0,0,0
207.54,0.42518,4.2037,0.039282,0,0,0,0
208.04,0.42768,4.2073,0.03964,0,0,0,0
208.54,0.42978,4.211,0.039966,0,0,0,0
209.04,0.43232,4.2153,0.039803,0,0,0,0
209.54,0.43489,4.2194,0.040258,0,0,0,0
210.04,0.43739,4.2236,0.040388,0,0,0,0
210.54,0.44006,4.2274,0.040842,0,0,0,0
211.04,0.44227,4.2316,0.041006,0,0,0,0
211.54,0.44467,4.2354,0.041135,0,0,0,0
212.04,0.4469,4.2399,0.041492,0,0,0,0
212.54,0.44964,4.2439,0.041654,0,0,0,0
213.04,0.45188,4.2479,0.042271,0,0,0,0
213.54,0.45418,4.2514,0.042207,0,0,0,0
214.04,0.45654,4.2553,0.042465,0,0,0,0
214.54,0.45888,4.259,0.042952,0,0,0,0
215.04,0.46135,4.263,0.043049,0,0,0,0
215.54,0.46419,4.2667,0.043535,0,0,0,0
216.04,0.46615,4.2706,0.043374,0,0,0,0
216.54,0.46876,4.2741,0.043795,0,0,0,0
217.04,0.47184,4.2779,0.043989,0,0,0,0
217.54,0.47424,4.2817,0.044216,0,0,0,0
218.04,0.47556,4.286,0.04428,0,0,0,0
218.54,0.47895,4.2894,0.044572,0,0,0,0
219.04,0.48131,4.2931,0.044798,0,0,0,0
219.54,0.48389,4.2969,0.044862,0,0,0,0
220.04,0.48646,4.3006,0.045089,0,0,0,0
220.54,0.48913,4.304,0.045446,0,0,0,0
221.04,0.4915,4.3083,0.045607,0,0,0,0
221.54,0.49532,4.3124,0.045736,0,0,0,0
222.04,0.49766,4.316,0.046156,0,0,0,0
222.54,0.5004,4.319,0.046705,0,0,0,0
223.04,0.50283,4.3226,0.046802,0,0,0,0
223.54,0.50476,4.3264,0.04719,0,0,0,0
224.04,0.50774,4.3306,0.047447,0,0,0,0
224.54,0.51011,4.3344,0.047706,0,0,0,0
225.04,0.51265,4.338,0.04806,0,0,0,0
225.54,0.51539,4.341,0.048286,0,0,0,0
226.04,0.51742,4.3443,0.048319,0,0,0,0
226.54,0.52053,4.3477,0.048963,0,0,0,0
227.04,0.52324,4.3513,0.048931,0,0,0,0
227.54,0.52578,4.3547,0.049221,0,0,0,0
228.04,0.52852,4.3586,0.049415,0,0,0,0
228.54,0.53092,4.3621,0.049736,0,0,0,0
229.04,0.53353,4.3656,0.049769,0,0,0,0
229.54,0.53576,4.3687,0.05009,0,0,0,0
230.04,0.53803,4.3726,0.050348,0,0,0,0
230.54,0.54077,4.3761,0.050348,0,0,0,0
231.04,0.54344,4.3796,0.050509,0,0,0,0
231.54,0.54578,4.3827,0.050831,0,0,0,0
232.04,0.54862,4.3863,0.051345,0,0,0,0
232.54,0.55139,4.3897,0.051345,0,0,0,0
233.04,0.55407,4.3933,0.051538,0,0,0,0
233.54,0.55654,4.3967,0.052181,0,0,0,0
234.04,0.55904,4.4003,0.052566,0,0,0,0
234.54,0.56181,4.4034,0.052534,0,0,0,0
235.04,0.56432,4.4069,0.053047,0,0,0,0
235.54,0.56608,4.4104,0.052983,0,0,0,0
236.04,0.56977,4.414,0.053561,0,0,0,0
236.54,0.57207,4.417,0.053881,0,0,0,0
237.04,0.57464,4.42,0.054233,0,0,0,0
237.54,0.57711,4.4236,0.05433,0,0,0,0
238.04,0.57958,4.4274,0.05465,0,0,0,0
238.54,0.58222,4.431,0.054682,0,0,0,0
239.04,0.58553,4.434,0.054971,0,0,0,0
239.54,0.58713,4.437,0.054874,0,0,0,0
240.04,0.59003,4.4403,0.054907,0,0,0,0
240.54,0.5922,4.4434,0.055387,0,0,0,0
241.04,0.59504,4.4466,0.055771,0,0,0,0
241.54,0.59819,4.4494,0.055739,0,0,0,0
242.04,0.59985,4.4526,0.055867,0,0,0,0
242.54,0.60299,4.4557,0.056379,0,0,0,0
243.04,0.60516,4.4593,0.056571,0,0,0,0
243.54,0.60726,4.4627,0.056635,0,0,0,0
244.04,0.61007,4.466,0.057211,0,0,0,0
244.54,0.61298,4.469,0.057689,0,0,0,0
245.04,0.61619,4.4717,0.057913,0,0,0,0
245.54,0.61812,4.4749,0.058168,0,0,0,0
246.04,0.62005,4.4781,0.058296,0,0,0,0
246.54,0.62336,4.4816,0.058711,0,0,0,0
247.04,0.62678,4.4847,0.058743,0,0,0,0
247.54,0.62912,4.488,0.05903,0,0,0,0
248.04,0.63145,4.491,0.059509,0,0,0,0
248.54,0.63335,4.4943,0.059604,0,0,0,0
249.04,0.63589,4.4974,0.0597,0,0,0,0
249.54,0.6391,4.5003,0.060114,0,0,0,0
250.04,0.6415,4.503,0.06005,0,0,0,0
250.54,0.64465,4.506,0.060369,0,0,0,0
251.04,0.64705,4.509,0.06056,0,0,0,0
251.54,0.64986,4.512,0.061006,0,0,0,0
252.04,0.65253,4.515,0.061038,0,0,0,0
252.54,0.65534,4.5183,0.061388,0,0,0,0
253.04,0.65747,4.5214,0.061833,0,0,0,0
253.54,0.66055,4.5243,0.062279,0,0,0,0
254.04,0.66309,4.527,0.062532,0,0,0,0
254.54,0.6661,4.53,0.062755,0,0,0,0
255.04,0.66817,4.533,0.06301,0,0,0,0
255.54,0.67172,4.5363,0.063296,0,0,0,0
256.04,0.67466,4.5394,0.06374,0,0,0,0
256.54,0.67663,4.5426,0.06393,0,0,0,0
257.04,0.67967,4.5454,0.064058,0,0,0,0
257.54,0.68231,4.5483,0.064344,0,0,0,0
258.04,0.68458,4.5507,0.064629,0,0,0,0
258.54,0.68783,4.553,0.064914,0,0,0,0
259.04,0.68976,4.5556,0.064977,0,0,0,0
259.54,0.6925,4.5587,0.065422,0,0,0,0
260.04,0.69503,4.562,0.065484,0,0,0,0
260.54,0.69835,4.5647,0.065834,0,0,0,0
261.04,0.70072,4.5673,0.065928,0,0,0,0
261.54,0.70339,4.57,0.066246,0,0,0,0
262.04,0.70596,4.573,0.066594,0,0,0,0
262.54,0.70891,4.576,0.066783,0,0,0,0
263.04,0.71128,4.579,0.067353,0,0,0,0
263.54,0.71496,4.5823,0.067606,0,0,0,0
264.04,0.71706,4.5851,0.067827,0,0,0,0
264.54,0.71879,4.5876,0.06827,0,0,0,0
265.04,0.72193,4.59,0.068555,0,0,0,0
265.54,0.72468,4.593,0.068838,0,0,0,0
266.04,0.72735,4.5957,0.069186,0,0,0,0
266.54,0.73056,4.5983,0.069534,0,0,0,0
267.04,0.73313,4.601,0.069659,0,0,0,0
267.54,0.73642,4.6037,0.069944,0,0,0,0
268.04,0.73865,4.6063,0.070133,0,0,0,0
268.54,0.74119,4.609,0.070386,0,0,0,0
269.04,0.7443,4.612,0.070322,0,0,0,0
269.54,0.74691,4.6147,0.070827,0,0,0,0
270.04,0.74982,4.6173,0.070922,0,0,0,0
270.54,0.75246,4.6197,0.071331,0,0,0,0
271.04,0.75499,4.6223,0.071457,0,0,0,0
271.54,0.75804,4.625,0.071867,0,0,0,0
272.04,0.76088,4.628,0.072086,0,0,0,0
272.54,0.76413,4.6304,0.072496,0,0,0,0
273.04,0.76697,4.6329,0.072968,0,0,0,0
273.54,0.76904,4.6354,0.073093,0,0,0,0
274.04,0.77195,4.6383,0.073691,0,0,0,0
274.54,0.77438,4.6407,0.07388,0,0,0,0
275.04,0.77699,4.6433,0.074508,0,0,0,0
275.54,0.78007,4.6457,0.074571,0,0,0,0
276.04,0.78284,4.6483,0.07476,0,0,0,0
276.54,0.78538,4.6507,0.075199,0,0,0,0
277.04,0.78768,4.6533,0.075325,0,0,0,0
277.54,0.79107,4.6557,0.075607,0,0,0,0
278.04,0.79384,4.6583,0.075796,0,0,0,0
278.54,0.79672,4.661,0.075952,0,0,0,0
279.04,0.79959,4.6637,0.076265,0,0,0,0
279.54,0.80254,4.6663,0.076768,0,0,0,0
280.04,0.80497,4.669,0.076673,0,0,0,0
280.54,0.80788,4.6717,0.077175,0,0,0,0
281.04,0.81056,4.6743,0.077425,0,0,0,0
281.54,0.81343,4.6767,0.077895,0,0,0,0
282.04,0.81597,4.679,0.078146,0,0,0,0
282.54,0.81881,4.6813,0.078552,0,0,0,0
283.04,0.82199,4.6837,0.078959,0,0,0,0
283.54,0.8247,4.686,0.079021,0,0,0,0
284.04,0.82768,4.6883,0.079584,0,0,0,0
284.54,0.83039,4.6904,0.079802,0,0,0,0
285.04,0.83289,4.6926,0.08024,0,0,0,0
285.54,0.83593,4.6947,0.080709,0,0,0,0
286.04,0.8381,4.6973,0.08074,0,0,0,0
286.54,0.84132,4.6997,0.081083,0,0,0,0
287.04,0.8426,4.7023,0.081302,0,0,0,0
287.54,0.84619,4.7047,0.081582,0,0,0,0
288.04,0.84977,4.7073,0.082143,0,0,0,0
288.54,0.85252,4.7097,0.082361,0,0,0,0
289.04,0.85668,4.7123,0.082704,0,0,0,0
289.54,0.8583,4.7147,0.082891,0,0,0,0
290.04,0.86206,4.717,0.083421,0,0,0,0
290.54,0.86439,4.719,0.083452,0,0,0,0
291.04,0.86669,4.7213,0.083732,0,0,0,0
291.54,0.86974,4.7237,0.084042,0,0,0,0
292.04,0.87238,4.7263,0.084541,0,0,0,0
292.54,0.87505,4.7287,0.084727,0,0,0,0
293.04,0.87843,4.7307,0.085225,0,0,0,0
293.54,0.88047,4.7326,0.085473,0,0,0,0
294.04,0.88297,4.7347,0.085753,0,0,0,0
294.54,0.88672,4.737,0.086249,0,0,0,0
295.04,0.89011,4.739,0.086653,0,0,0,0
295.54,0.8915,4.7413,0.086839,0,0,0,0
296.04,0.8941,4.7437,0.087087,0,0,0,0
296.54,0.89793,4.746,0.087491,0,0,0,0
297.04,0.90107,4.748,0.087583,0,0,0,0
297.54,0.90412,4.7503,0.088017,0,0,0,0
298.04,0.90635,4.7527,0.088358,0,0,0,0
298.54,0.90997,4.755,0.088699,0,0,0,0
299.04,0.91227,4.757,0.08907,0,0,0,0
299.54,0.91522,4.7593,0.089503,0,0,0,0
300.04,0.9184,4.7614,0.089843,0,0,0,0
300.54,0.9211,4.7636,0.090339,0,0,0,0
301.04,0.92398,4.7654,0.090401,0,0,0,0
301.54,0.92706,4.7676,0.091018,0,0,0,0
302.04,0.93031,4.7694,0.091513,0,0,0,0
302.54,0.9322,4.7716,0.091605,0,0,0,0
303.04,0.93515,4.7737,0.091976,0,0,0,0
303.54,0.93708,4.776,0.092254,0,0,0,0
304.04,0.94019,4.7777,0.092377,0,0,0,0
304.54,0.94286,4.7799,0.092871,0,0,0,0
305.04,0.94615,4.7821,0.093087,0,0,0,0
305.54,0.95,4.7846,0.093672,0,0,0,0
306.04,0.95288,4.7867,0.09361,0,0,0,0
306.54,0.95542,4.7887,0.093949,0,0,0,0
307.04,0.95816,4.7903,0.094503,0,0,0,0
307.54,0.96141,4.792,0.094749,0,0,0,0
308.04,0.96398,4.7943,0.095119,0,0,0,0
308.54,0.96638,4.7964,0.095365,0,0,0,0
309.04,0.96912,4.7986,0.09598,0,0,0,0
309.54,0.97203,4.8004,0.09638,0,0,0,0
310.04,0.97474,4.8023,0.096656,0,0,0,0
310.54,0.97775,4.804,0.097086,0,0,0,0
311.04,0.98066,4.8063,0.097485,0,0,0,0
311.54,0.98384,4.8084,0.097762,0,0,0,0
312.04,0.98672,4.8103,0.098375,0,0,0,0
312.54,0.98892,4.812,0.098589,0,0,0,0
313.04,0.99237,4.8143,0.098957,0,0,0,0
313.54,0.99507,4.8164,0.099264,0,0,0,0
314.04,0.99822,4.8183,0.099417,0,0,0,0
314.54,0.99961,4.8197,0.10006,0,0,0,0
315.04,1.0023,4.8216,0.10024,0,0,0,0
315.54,1.006,4.8237,0.1007,0,0,0,0
316.04,1.0091,4.826,0.10089,0,0,0,0
316.54,1.0129,4.8277,0.10119,0,0,0,0
317.04,1.0154,4.8293,0.10144,0,0,0,0
317.54,1.0188,4.831,0.10183,0,0,0,0
318.04,1.0215,4.833,0.10248,0,0,0,0
318.54,1.0242,4.835,0.10281,0,0,0,0
319.04,1.027,4.837,0.10327,0,0,0,0
319.54,1.0295,4.8387,0.10354,0,0,0,0
320.04,1.0323,4.8403,0.10428,0,0,0,0
320.54,1.0352,4.8417,0.10421,0,0,0,0
321.04,1.038,4.8436,0.10455,0,0,0,0
321.54,1.0411,4.8454,0.10498,0,0,0,0
322.04,1.0441,4.8473,0.10543,0,0,0,0
322.54,1.0473,4.849,0.10595,0,0,0,0
323.04,1.0505,4.851,0.10626,0,0,0,0
323.54,1.0533,4.853,0.10662,0,0,0,0
324.04,1.0557,4.855,0.1068,0,0,0,0
324.54,1.0591,4.8567,0.10729,0,0,0,0
325.04,1.0614,4.858,0.10772,0,0,0,0
325.54,1.0647,4.8593,0.10787,0,0,0,0
326.04,1.0671,4.8607,0.10866,0,0,0,0
326.54,1.07,4.8626,0.10875,0,0,0,0
327.04,1.0732,4.8647,0.10911,0,0,0,0
327.54,1.0765,4.8667,0.10948,0,0,0,0
328.04,1.0798,4.868,0.1099,0,0,0,0
328.54,1.0826,4.8693,0.11023,0,0,0,0
329.04,1.0853,4.871,0.11078,0,0,0,0
329.54,1.0884,4.8727,0.11117,0,0,0,0
330.04,1.0913,4.8743,0.11169,0,0,0,0
330.54,1.0938,4.876,0.11205,0,0,0,0
331.04,1.0961,4.8777,0.11235,0,0,0,0
331.54,1.0992,4.8793,0.11272,0,0,0,0
332.04,1.1019,4.8807,0.11329,0,0,0,0
332.54,1.1051,4.8823,0.11347,0,0,0,0
333.04,1.1085,4.884,0.11392,0,0,0,0
333.54,1.1114,4.8857,0.11453,0,0,0,0
334.04,1.1142,4.8873,0.11483,0,0,0,0
334.54,1.1167,4.889,0.11531,0,0,0,0
335.04,1.1197,4.8907,0.11567,0,0,0,0
335.54,1.1234,4.8923,0.11613,0,0,0,0
336.04,1.1267,4.8937,0.11655,0,0,0,0
336.54,1.1294,4.8953,0.11706,0,0,0,0
337.04,1.1321,4.8967,0.11733,0,0,0,0
337.54,1.1356,4.8983,0.11769,0,0,0,0
338.04,1.1384,4.8997,0.11823,0,0,0,0
338.54,1.1421,4.9013,0.11868,0,0,0,0
339.04,1.1454,4.9027,0.11913,0,0,0,0
339.54,1.1476,4.9043,0.11964,0,0,0,0
340.04,1.151,4.906,0.11998,0,0,0,0
340.54,1.154,4.9077,0.12042,0,0,0,0
341.04,1.1567,4.909,0.12067,0,0,0,0
341.54,1.16,4.91,0.12126,0,0,0,0
342.04,1.1628,4.9113,0.12153,0,0,0,0
342.54,1.1658,4.913,0.12216,0,0,0,0
343.04,1.1687,4.9147,0.12237,0,0,0,0
343.54,1.1716,4.916,0.12297,0,0,0,0
344.04,1.1752,4.9173,0.12354,0,0,0,0
344.54,1.1779,4.9184,0.1239,0,0,0,0
345.04,1.181,4.9196,0.12444,0,0,0,0
345.54,1.184,4.921,0.12494,0,0,0,0
346.04,1.187,4.9227,0.12545,0,0,0,0
346.54,1.1898,4.924,0.12593,0,0,0,0
347.04,1.1927,4.9253,0.12635,0,0,0,0
347.54,1.1956,4.9264,0.12688,0,0,0,0
348.04,1.1985,4.9276,0.1273,0,0,0,0
348.54,1.2017,4.929,0.12766,0,0,0,0
349.04,1.2051,4.9307,0.1281,0,0,0,0
349.54,1.2081,4.932,0.12846,0,0,0,0
350.04,1.2115,4.9333,0.12885,0,0,0,0
350.54,1.2142,4.9347,0.12938,0,0,0,0
351.04,1.2171,4.9363,0.12959,0,0,0,0
351.54,1.2202,4.9377,0.13034,0,0,0,0
352.04,1.2228,4.9387,0.13066,0,0,0,0
352.54,1.2257,4.9396,0.13132,0,0,0,0
353.04,1.2288,4.9407,0.13179,0,0,0,0
353.54,1.2314,4.942,0.13238,0,0,0,0
354.04,1.2348,4.943,0.13306,0,0,0,0
354.54,1.2382,4.944,0.13354,0,0,0,0
355.04,1.2417,4.945,0.13413,0,0,0,0
355.54,1.2446,4.9463,0.13463,0,0,0,0
356.04,1.2478,4.9477,0.13505,0,0,0,0
356.54,1.2506,4.949,0.13573,0,0,0,0
357.04,1.2536,4.95,0.13632,0,0,0,0
357.54,1.2562,4.9513,0.13673,0,0,0,0
358.04,1.2591,4.9527,0.13711,0,0,0,0
358.54,1.2623,4.954,0.13753,0,0,0,0
359.04,1.265,4.955,0.13832,0,0,0,0
359.54,1.2679,4.956,0.13844,0,0,0,0
360.04,1.2718,4.957,0.13894,0,0,0,0
360.54,1.274,4.958,0.13953,0,0,0,0
361.04,1.2777,4.959,0.14021,0,0,0,0
361.54,1.2811,4.96,0.14077,0,0,0,0
362.04,1.2845,4.961,0.14129,0,0,0,0
362.54,1.2874,4.962,0.14179,0,0,0,0
363.04,1.2899,4.963,0.14279,0,0,0,0
363.54,1.2928,4.964,0.14309,0,0,0,0
364.04,1.2959,4.9653,0.14376,0,0,0,0
364.54,1.299,4.9667,0.14432,0,0,0,0
365.04,1.3023,4.9677,0.14481,0,0,0,0
365.54,1.3062,4.9683,0.14558,0,0,0,0
366.04,1.3098,4.969,0.14613,0,0,0,0
366.54,1.3126,4.97,0.14689,0,0,0,0
367.04,1.3154,4.9713,0.14715,0,0,0,0
367.54,1.3184,4.9724,0.14785,0,0,0,0
368.04,1.3211,4.9733,0.14835,0,0,0,0
368.54,1.324,4.9743,0.14896,0,0,0,0
369.04,1.3272,4.9754,0.14943,0,0,0,0
369.54,1.3303,4.9763,0.15001,0,0,0,0
370.04,1.3335,4.9767,0.15071,0,0,0,0
370.54,1.337,4.9773,0.15153,0,0,0,0
371.04,1.3406,4.978,0.15208,0,0,0,0
371.54,1.3438,4.9787,0.15275,0,0,0,0
372.04,1.347,4.9793,0.15315,0,0,0,0
372.54,1.3497,4.98,0.15414,0,0,0,0
373.04,1.3526,4.981,0.15489,0,0,0,0
373.54,1.356,4.982,0.15553,0,0,0,0
374.04,1.3587,4.983,0.15611,0,0,0,0
374.54,1.3618,4.984,0.15675,0,0,0,0
375.04,1.365,4.9847,0.15741,0,0,0,0
375.54,1.3689,4.9853,0.15796,0,0,0,0
376.04,1.3714,4.986,0.15886,0,0,0,0
376.54,1.3748,4.9867,0.15932,0,0,0,0
377.04,1.3781,4.9873,0.15975,0,0,0,0
377.54,1.3809,4.988,0.1603,0,0,0,0
378.04,1.3839,4.9887,0.16119,0,0,0,0
378.54,1.3869,4.9893,0.16151,0,0,0,0
379.04,1.3901,4.9897,0.16237,0,0,0,0
379.54,1.3934,4.9903,0.16321,0,0,0,0
380.04,1.396,4.991,0.16369,0,0,0,0
380.54,1.3997,4.992,0.16436,0,0,0,0
381.04,1.4031,4.9927,0.16527,0,0,0,0
381.54,1.4066,4.9933,0.16619,0,0,0,0
382.04,1.41,4.9937,0.16676,0,0,0,0
382.54,1.4129,4.9943,0.16737,0,0,0,0
383.04,1.4159,4.9947,0.168,0,0,0,0
383.54,1.4187,4.9953,0.16905,0,0,0,0
384.04,1.4218,4.9957,0.16968,0,0,0,0
384.54,1.4247,4.9963,0.17051,0,0,0,0
385.04,1.4275,4.9967,0.17114,0,0,0,0
385.54,1.4308,4.9973,0.17182,0,0,0,0
386.04,1.4344,4.9977,0.17296,0,0,0,0
386.54,1.4376,4.998,0.17324,0,0,0,0
387.04,1.441,4.998,0.1739,0,0,0,0
387.54,1.4437,4.9983,0.17475,0,0,0,0
388.04,1.4474,4.9987,0.17563,0,0,0,0
388.54,1.4506,4.9993,0.1764,0,0,0,0
389.04,1.4535,4.9997,0.17739,0,0,0,0
389.54,1.4566,5,0.17824,0,0,0,0
390.04,1.4598,5,0.17918,0,0,0,0
390.54,1.4634,5,0.17988,0,0,0,0
391.04,1.4666,5.0003,0.18087,0,0,0,0
391.54,1.4703,5.0007,0.18169,0,0,0,0
392.04,1.4731,5.001,0.18259,0,0,0,0
392.54,1.4765,5.001,0.18355,0,0,0,0
393.04,1.4795,5.001,0.18434,0,0,0,0
393.54,1.4828,5.001,0.18535,0,0,0,0
394.04,1.4858,5.0013,0.18608,0,0,0,0
394.54,1.4888,5.0014,0.18723,0,0,0,0
395.04,1.4921,5.0013,0.18771,0,0,0,0
395.54,1.4956,5.0013,0.18911,0,0,0,0
396.04,1.4987,5.0017,0.18989,0,0,0,0
396.54,1.5026,5.0017,0.19087,0,0,0,0
397.04,1.5057,5.0013,0.19174,0,0,0,0
397.54,1.5088,5.001,0.19283,0,0,0,0
398.04,1.5122,5.001,0.19394,0,0,0,0
398.54,1.5152,5.001,0.19473,0,0,0,0
399.04,1.5185,5.001,0.1957,0,0,0,0
399.54,1.5214,5.0007,0.19667,0,0,0,0
400.04,1.5245,5.0003,0.1979,0,0,0,0
400.54,1.5279,5,0.1989,0,0,0,0
401.04,1.5315,4.9997,0.20017,0,0,0,0
401.54,1.5351,4.9993,0.20133,0,0,0,0
402.04,1.5389,4.9987,0.20258,0,0,0,0
402.54,1.5418,4.9983,0.20385,0,0,0,0
403.04,1.5451,4.9977,0.20462,0,0,0,0
403.54,1.5482,4.997,0.20581,0,0,0,0
404.04,1.5514,4.9963,0.20669,0,0,0,0
404.54,1.5543,4.996,0.20787,0,0,0,0
405.04,1.5578,4.9957,0.20891,0,0,0,0
405.54,1.561,4.995,0.21012,0,0,0,0
406.04,1.5646,4.994,0.21122,0,0,0,0
406.54,1.568,4.993,0.21218,0,0,0,0
407.04,1.5714,4.9923,0.21349,0,0,0,0
407.54,1.5751,4.9917,0.21469,0,0,0,0
408.04,1.5784,4.9907,0.21589,0,0,0,0
408.54,1.5815,4.9893,0.21714,0,0,0,0
409.04,1.585,4.988,0.21867,0,0,0,0
409.54,1.588,4.987,0.21976,0,0,0,0
410.04,1.5911,4.986,0.22109,0,0,0,0
410.54,1.5942,4.9847,0.22255,0,0,0,0
411.04,1.5977,4.9833,0.22412,0,0,0,0
411.54,1.6016,4.9817,0.22547,0,0,0,0
412.04,1.6053,4.9803,0.22717,0,0,0,0
412.54,1.6093,4.9787,0.22862,0,0,0,0
413.04,1.6129,4.977,0.23019,0,0,0,0
413.54,1.6163,4.9747,0.23156,0,0,0,0
414.04,1.6199,4.9723,0.23333,0,0,0,0
414.54,1.6232,4.97,0.23458,0,0,0,0
415.04,1.6263,4.968,0.23613,0,0,0,0
415.54,1.6298,4.9657,0.23779,0,0,0,0
416.04,1.6334,4.9633,0.23939,0,0,0,0
416.54,1.6381,4.9607,0.24109,0,0,0,0
417.04,1.6419,4.958,0.24311,0,0,0,0
417.54,1.6457,4.9547,0.24468,0,0,0,0
418.04,1.6486,4.9516,0.24674,0,0,0,0
418.54,1.6512,4.9481,0.24835,0,0,0,0
419.04,1.654,4.9449,0.25031,0,0,0,0
419.54,1.6594,4.9411,0.25239,0,0,0,0
420.04,1.6628,4.9376,0.25428,0,0,0,0
420.54,1.6664,4.9331,0.25672,0,0,0,0
421.04,1.6701,4.9286,0.25868,0,0,0,0
421.54,1.6744,4.9234,0.26095,0,0,0,0
422.04,1.6784,4.9186,0.26309,0,0,0,0
422.54,1.6825,4.9131,0.26587,0,0,0,0
423.04,1.6863,4.9076,0.2682,0,0,0,0
423.54,1.6903,4.9011,0.27014,0,0,0,0
424.04,1.694,4.8943,0.27267,0,0,0,0
424.54,1.698,4.8867,0.27478,0,0,0,0