File: polyN_optimization/AA7020-T6_results/DATA/SL_180_NT20_90_2.csv
Time[s];Displacement[mm];Force[kN];AxStrain_1;AxStrain_2;Thickness[mm];OuterWidth[mm];InnerWidth[mm]
0;0;-0.0085;0;0;1.017;20;10
0.4759;-0.007046283;0.0086;-0.0006388;0;0;0;0
0.9761;-0.003502027;-0.0019;-0.000547518;0;0;0;0
1.4761;-0.002648511;0.0098;-0.000974159;0;0;0;0
1.976;0.004069052;-0.0016;-0.00020002;0;0;0;0
2.476;-0.000977399;-0.0098;-0.002063531;0;0;0;0
2.9761;-0.001264767;-0.0148;0.000692742;0;0;0;0
3.476;0.002296836;0.0029;0.000668198;0;0;0;0
3.976;0.000973369;0.0022;0.001957732;0;0;0;0
4.476;-0.000260733;-0.0016;-0.002487301;0;0;0;0
4.976;-0.001479416;0.0104;0.002171325;0;0;0;0
5.476;0.001807085;0.0007;0.001845664;0;0;0;0
5.9762;0.000630281;-0.0003;0.000513903;0;0;0;0
6.4758;0.000141406;0.0266;0.002720857;0;0;0;0
6.9759;-0.000123708;-0.0054;-0.000280741;0;0;0;0
7.4758;-0.003637825;0.0022;-0.00233606;0;0;0;0
7.9759;-0.002326975;0.0057;0.000468311;0;0;0;0
8.4759;-0.001734893;-0.0028;-0.001515182;0;0;0;0
8.9759;-0.00135746;-0.0035;-0.000145625;0;0;0;0
9.4759;-0.001517089;0.0051;0.000708521;0;0;0;0
9.9759;0.001935174;-0.0006;-0.00029478;0;0;0;0
10.4759;-0.002113727;-0.005;-0.00227979;0;0;0;0
10.9759;-0.001862631;-0.0003;-0.002837355;0;0;0;0
11.4757;-9.28687E-06;0.0044;0.00062086;0;0;0;0
11.9757;-0.001112497;0.0111;0.001467344;0;0;0;0
12.4757;0.001973022;0.0086;-0.001046161;0;0;0;0
12.9757;-0.000374278;0.0433;0.001602225;0;0;0;0
13.4759;0.002050471;0.1109;-0.000680934;0;0;0;0
13.9757;0.002505528;0.1394;-0.000254418;0;0;0;0
14.4757;0.004641859;0.1884;-0.000215813;0;0;0;0
14.9757;0.003106546;0.2538;0.000192964;0;0;0;0
15.4757;0.009326648;0.2876;-2.10529E-05;0;0;0;0
15.9757;0.0116718;0.3473;-0.000672156;0;0;0;0
16.4756;0.0133014;0.3862;-0.001302602;0;0;0;0
16.9756;0.0158297;0.4229;-0.00124639;0;0;0;0
17.4758;0.0166719;0.4763;-0.000536986;0;0;0;0
17.9757;0.01665;0.5028;0.001546172;0;0;0;0
18.4757;0.0184777;0.5733;0.00068047;0;0;0;0
18.9756;0.0212943;0.59;0.001702059;0;0;0;0
19.4757;0.0221208;0.6599;-0.000178963;0;0;0;0
19.9757;0.0232524;0.6848;-0.000238625;0;0;0;0
20.4757;0.02801639;0.7221;0.000168407;0;0;0;0
20.9755;0.0253821;0.7967;-0.000816122;0;0;0;0
21.4755;0.0312062;0.8128;-0.000180718;0;0;0;0
21.9757;0.0267937;0.8757;-0.000166681;0;0;0;0
22.4755;0.032919;0.8937;-0.000542252;0;0;0;0
22.9756;0.0349111;0.9408;0.002433878;0;0;0;0
23.4757;0.0369439;0.9885;6.84187E-05;0;0;0;0
23.9755;0.03482209;1.0322;0.000603327;0;0;0;0
24.4756;0.0366612;1.0928;0.000903101;0;0;0;0
24.9755;0.0408503;1.1241;0.000890831;0;0;0;0
25.4755;0.0409073;1.1838;0.000931145;0;0;0;0
25.9756;0.0456036;1.2132;0.000335032;0;0;0;0
26.4756;0.04665409;1.2414;4.21044E-05;0;0;0;0
26.9756;0.0491365;1.3289;-0.000321104;0;0;0;0
27.4756;0.051102;1.3336;-0.000716046;0;0;0;0
27.9756;0.0489329;1.3946;0.001202785;0;0;0;0
28.4755;0.0518985;1.4307;0.002967522;0;0;0;0
28.9755;0.05375697;1.4777;0.00251088;0;0;0;0
29.4754;0.0558153;1.5138;0.001286891;0;0;0;0
29.9755;0.06030071;1.5409;0.000424471;0;0;0;0
30.4755;0.0608993;1.5893;0.000988984;0;0;0;0
30.9754;0.0610381;1.6253;0.001150215;0;0;0;0
31.4755;0.0597538;1.6702;0.001194024;0;0;0;0
31.9755;0.064582;1.7103;-0.000286006;0;0;0;0
32.4755;0.0636175;1.7347;0.001211546;0;0;0;0
32.9755;0.0675236;1.778;0.005080057;0;0;0;0
33.4754;0.0742035;1.8178;0.000720793;0;0;0;0
33.9754;0.0708408;1.844;0.000748842;0;0;0;0
34.4754;0.0748038;1.8646;0.002976268;0;0;0;0
34.9753;0.0735408;1.9072;0.001624995;0;0;0;0
35.4754;0.0752133;1.9385;0.000943414;0;0;0;0
35.9754;0.0801692;1.9622;0.000629626;0;0;0;0
36.4752;0.0816696;2.0128;0.001279882;0;0;0;0
36.9752;0.0814835;2.0349;0.001055583;0;0;0;0
37.4754;0.0871766;2.0655;0.002694612;0;0;0;0
37.9754;0.0891804;2.0712;0.004608662;0;0;0;0
38.4753;0.0912372;2.1013;0.004224398;0;0;0;0
38.9753;0.0941729;2.1044;0.004004253;0;0;0;0
39.4753;0.0991055;2.1427;0.003039236;0;0;0;0
39.9753;0.0993793;2.1616;0.003626749;0;0;0;0
40.4752;0.10246;2.1771;0.003682684;0;0;0;0
40.9752;0.105296;2.186;0.002978017;0;0;0;0
41.4753;0.109437;2.2261;0.003004255;0;0;0;0
41.9753;0.111484;2.221;0.003158166;0;0;0;0
42.4753;0.112247;2.2457;0.0118818;0;0;0;0
42.9753;0.112101;2.2403;0.006947738;0;0;0;0
43.4753;0.116994;2.2716;0.009493391;0;0;0;0
43.9751;0.122864;2.2605;0.008657155;0;0;0;0
44.4752;0.128288;2.2855;0.007134141;0;0;0;0
44.9752;0.125202;2.3086;0.004161504;0;0;0;0
45.4752;0.13189;2.3007;0.004505624;0;0;0;0
45.9752;0.133396;2.3345;0.005851269;0;0;0;0
46.4752;0.137909;2.3294;0.004432268;0;0;0;0
46.9752;0.136407;2.3291;0.0129353;0;0;0;0
47.4752;0.138888;2.3582;0.0122111;0;0;0;0
47.9752;0.143143;2.379;0.014171;0;0;0;0
48.4752;0.148689;2.3534;0.0128366;0;0;0;0
48.975;0.14906;2.3863;0.0136399;0;0;0;0
49.475;0.150135;2.3711;0.0112002;0;0;0;0
49.9751;0.155229;2.4046;0.0102473;0;0;0;0
50.4751;0.161153;2.3914;0.009910379;0;0;0;0
50.975;0.163473;2.405;0.0108046;0;0;0;0
51.475;0.168144;2.4103;0.0107473;0;0;0;0
51.9749;0.165319;2.4173;0.0127933;0;0;0;0
52.4751;0.175317;2.4296;0.0124884;0;0;0;0
52.975;0.175492;2.4189;0.0152273;0;0;0;0
53.4749;0.179464;2.4353;0.0151029;0;0;0;0
53.975;0.179299;2.4385;0.0142212;0;0;0;0
54.475;0.182698;2.4742;0.0143786;0;0;0;0
54.9749;0.187167;2.4483;0.0118141;0;0;0;0
55.475;0.187952;2.472;0.01419699;0;0;0;0
55.9749;0.19329;2.4618;0.0145273;0;0;0;0
56.4749;0.194241;2.4928;0.0157525;0;0;0;0
56.975;0.19562;2.4735;0.017833;0;0;0;0
57.475;0.199132;2.4783;0.0164223;0;0;0;0
57.9748;0.205905;2.4941;0.0172245;0;0;0;0
58.4748;0.206745;2.4912;0.0188269;0;0;0;0
58.975;0.211617;2.5165;0.018715;0;0;0;0
59.4748;0.213592;2.5013;0.0181156;0;0;0;0
59.9748;0.217771;2.5285;0.0177917;0;0;0;0
60.4749;0.217945;2.5257;0.0184171;0;0;0;0
60.9748;0.226848;2.514;0.0173193;0;0;0;0
61.4748;0.223379;2.5345;0.0195326;0;0;0;0
61.9749;0.230209;2.5247;0.0218971;0;0;0;0
62.4747;0.234942;2.5181;0.0214181;0;0;0;0
62.9747;0.234708;2.5601;0.0220447;0;0;0;0
63.4749;0.239876;2.5702;0.0210128;0;0;0;0
63.9747;0.239722;2.5649;0.0209097;0;0;0;0
64.4747;0.245862;2.5472;0.0220001;0;0;0;0
64.9747;0.251539;2.5608;0.0217306;0;0;0;0
65.4747;0.253543;2.5769;0.0212378;0;0;0;0
65.9748;0.254956;2.5927;0.0233344;0;0;0;0
66.4748;0.259591;2.5788;0.0249476;0;0;0;0
66.9746;0.264725;2.5658;0.024607;0;0;0;0
67.4748;0.265747;2.6041;0.0245591;0;0;0;0
67.9748;0.26564;2.5611;0.024328;0;0;0;0
68.4746;0.268722;2.5984;0.0236925;0;0;0;0
68.9747;0.277439;2.5797;0.02593446;0;0;0;0
69.4746;0.277945;2.5917;0.0258062;0;0;0;0
69.9747;0.28068;2.6082;0.0257208;0;0;0;0
70.4747;0.285035;2.5977;0.0280008;0;0;0;0
70.9746;0.285404;2.6135;0.0270757;0;0;0;0
71.4747;0.291797;2.629;0.0294379;0;0;0;0
71.9747;0.293923;2.6164;0.0292794;0;0;0;0
72.4747;0.296567;2.6252;0.0263378;0;0;0;0
72.9745;0.299438;2.6369;0.0279752;0;0;0;0
73.4747;0.305413;2.6432;0.0274018;0;0;0;0
73.9747;0.306542;2.636;0.0264694;0;0;0;0
74.4746;0.313242;2.6552;0.0280298;0;0;0;0
74.9746;0.319379;2.6259;0.03030116;0;0;0;0
75.4746;0.318898;2.6448;0.028896;0;0;0;0
75.9745;0.320743;2.6344;0.0290085;0;0;0;0
76.4746;0.320671;2.6502;0.0301854;0;0;0;0
76.9745;0.327551;2.6394;0.0315752;0;0;0;0
77.4744;0.332751;2.6464;0.0321479;0;0;0;0
77.9744;0.333222;2.6549;0.0330292;0;0;0;0
78.4746;0.339895;2.6843;0.0297019;0;0;0;0
78.9746;0.337662;2.6802;0.0294907;0;0;0;0
79.4744;0.345121;2.6502;0.030946;0;0;0;0
79.9745;0.347988;2.6657;0.0335586;0;0;0;0
80.4745;0.351919;2.6663;0.0322056;0;0;0;0
80.9745;0.35312;2.6812;0.0329817;0;0;0;0
81.4745;0.357604;2.6821;0.0332074;0;0;0;0
81.9745;0.358996;2.7036;0.0333635;0;0;0;0
82.4744;0.363893;2.6831;0.03361461;0;0;0;0
82.9743;0.366097;2.6875;0.0345455;0;0;0;0
83.4743;0.370269;2.6906;0.0356076;0;0;0;0
83.9743;0.372108;2.7131;0.033903;0;0;0;0
84.4743;0.378794;2.6843;0.036293;0;0;0;0
84.9743;0.38016;2.6992;0.0356601;0;0;0;0
85.4744;0.381458;2.7197;0.0348065;0;0;0;0
85.9743;0.385454;2.7282;0.0362659;0;0;0;0
86.4744;0.3884709;2.7058;0.0384613;0;0;0;0
86.9743;0.389426;2.7188;0.0376929;0;0;0;0
87.4742;0.398415;2.7216;0.0368799;0;0;0;0
87.9744;0.402222;2.7301;0.0387786;0;0;0;0
88.4744;0.404754;2.7434;0.0383414;0;0;0;0
88.9742;0.404529;2.7276;0.0399239;0;0;0;0
89.4743;0.408816;2.7352;0.038728;0;0;0;0
89.9744;0.4125642;2.7431;0.0369273;0;0;0;0
90.4743;0.414387;2.7652;0.0392224;0;0;0;0
90.9742;0.419028;2.7358;0.0398801;0;0;0;0
91.4743;0.422888;2.7472;0.0392831;0;0;0;0
91.9743;0.423998;2.7535;0.0412968;0;0;0;0
92.4742;0.42869;2.7674;0.04076473;0;0;0;0
92.9741;0.430817;2.7655;0.0410645;0;0;0;0
93.4743;0.432791;2.7488;0.0415493;0;0;0;0
93.9741;0.43899;2.7437;0.0409163;0;0;0;0
94.4742;0.439734;2.788;0.0415544;0;0;0;0
94.9741;0.443563;2.7469;0.0400048;0;0;0;0
95.4741;0.44661;2.7766;0.0422172;0;0;0;0
95.9742;0.451497;2.7659;0.0416335;0;0;0;0
96.4742;0.455484;2.7848;0.0411352;0;0;0;0
96.9741;0.458071;2.7858;0.042493;0;0;0;0
97.4742;0.459435;2.7832;0.0410763;0;0;0;0
97.974;0.467464;2.8;0.0445137;0;0;0;0
98.474;0.466445;2.7772;0.0434846;0;0;0;0
98.9742;0.471988;2.7842;0.0447855;0;0;0;0
99.4742;0.471093;2.7962;0.04452041;0;0;0;0
99.974;0.477373;2.7832;0.0448409;0;0;0;0
100.4741;0.476738;2.7994;0.044819;0;0;0;0
100.974;0.482859;2.7959;0.0470192;0;0;0;0
101.4741;0.485099;2.7845;0.0443106;0;0;0;0
101.9741;0.491215;2.8177;0.0463863;0;0;0;0
102.4739;0.493732;2.7918;0.0482253;0;0;0;0
102.9739;0.498106;2.8158;0.0471196;0;0;0;0
103.4741;0.499683;2.7943;0.0483924;0;0;0;0
103.9739;0.503222;2.8224;0.04804469;0;0;0;0
104.4739;0.509082;2.8104;0.0475764;0;0;0;0
104.9739;0.510479;2.8076;0.0464985;0;0;0;0
105.474;0.516088;2.7978;0.049151;0;0;0;0
105.974;0.517193;2.843;0.0483306;0;0;0;0
106.4739;0.52027;2.836;0.0491794;0;0;0;0
106.9739;0.522987;2.8398;0.0503061;0;0;0;0
107.4739;0.526378;2.7997;0.050171;0;0;0;0
107.974;0.531942;2.8142;0.0499557;0;0;0;0
108.4741;0.533193;2.8215;0.0512766;0;0;0;0
108.974;0.537742;2.8395;0.05123996;0;0;0;0
109.4738;0.539813;2.8505;0.0516749;0;0;0;0
109.9738;0.543709;2.8464;0.0507298;0;0;0;0
110.4739;0.545544;2.8411;0.0513283;0;0;0;0
110.9739;0.549506;2.8344;0.053727;0;0;0;0
111.4739;0.553834;2.849;0.0527123;0;0;0;0
111.9738;0.555583;2.8395;0.052704;0;0;0;0
112.4739;0.5587888;2.8499;0.0538351;0;0;0;0
112.9739;0.566212;2.8477;0.0540445;0;0;0;0
113.4739;0.566274;2.8584;0.0528255;0;0;0;0
113.9737;0.570052;2.8629;0.0533994;0;0;0;0
114.4739;0.574294;2.8594;0.0551392;0;0;0;0
114.9737;0.575916;2.8597;0.0545845;0;0;0;0
115.4739;0.578416;2.8654;0.0547274;0;0;0;0
115.9738;0.582943;2.8499;0.0551459;0;0;0;0
116.4737;0.586283;2.8645;0.0541991;0;0;0;0
116.9737;0.59134;2.8837;0.0569075;0;0;0;0
117.4738;0.592947;2.8373;0.0581729;0;0;0;0
117.9737;0.596191;2.8818;0.0576663;0;0;0;0
118.4738;0.599457;2.8812;0.0571942;0;0;0;0
118.9738;0.603269;2.8651;0.0567036;0;0;0;0
119.4738;0.60295;2.8768;0.0593193;0;0;0;0
119.9738;0.60912;2.8885;0.0595177;0;0;0;0
120.4737;0.610759;2.8809;0.0602563;0;0;0;0
120.9736;0.615668;2.8784;0.0587537;0;0;0;0
121.4737;0.621355;2.8995;0.0594863;0;0;0;0
121.9737;0.62153;2.8815;0.0589109;0;0;0;0
122.4737;0.62394;2.8913;0.0597921;0;0;0;0
122.9737;0.625451;2.9005;0.0600482;0;0;0;0
123.4737;0.626204;2.8964;0.0604099;0;0;0;0
123.9737;0.637421;2.8897;0.0612618;0;0;0;0
124.4737;0.638869;2.8913;0.0604644;0;0;0;0
124.9735;0.64361;2.9169;0.0618243;0;0;0;0
125.4736;0.645244;2.9081;0.0635051;0;0;0;0
125.9735;0.647489;2.9033;0.0615852;0;0;0;0
126.4735;0.653;2.9153;0.0621343;0;0;0;0
126.9736;0.65501;2.9046;0.0635989;0;0;0;0
127.4736;0.658611;2.9093;0.0637504;0;0;0;0
127.9736;0.660473;2.9109;0.063482;0;0;0;0
128.4736;0.663269;2.9267;0.0627722;0;0;0;0
128.9736;0.666865;2.9008;0.0637833;0;0;0;0
129.4736;0.671969;2.8844;0.0658321;0;0;0;0
129.9734;0.676387;2.9033;0.0636072;0;0;0;0
130.4734;0.678545;2.9258;0.0651633;0;0;0;0
130.9735;0.682333;2.9292;0.0665201;0;0;0;0
131.4735;0.686781;2.9289;0.0658534;0;0;0;0
131.9735;0.687614;2.927;0.06688117;0;0;0;0
132.4735;0.690451;2.9147;0.0679832;0;0;0;0
132.9735;0.696155;2.9251;0.0661786;0;0;0;0
133.4735;0.695174;2.9232;0.0654887;0;0;0;0
133.9735;0.701107;2.9321;0.067716;0;0;0;0
134.4733;0.706041;2.9251;0.0684781;0;0;0;0
134.9733;0.705568;2.9365;0.0684568;0;0;0;0
135.4734;0.708924;2.9536;0.0691103;0;0;0;0
135.9733;0.715363;2.9343;0.0687025;0;0;0;0
136.4734;0.713506;2.9495;0.0694164;0;0;0;0
136.9734;0.721144;2.9469;0.06896293;0;0;0;0
137.4733;0.727205;2.957;0.0704225;0;0;0;0
137.9733;0.731445;2.957;0.0713296;0;0;0;0
138.4733;0.729211;2.9517;0.0707021;0;0;0;0
138.9732;0.731943;2.951;0.0708753;0;0;0;0
139.4734;0.737227;2.9321;0.0717624;0;0;0;0
139.9734;0.742756;2.9485;0.0713443;0;0;0;0
140.4732;0.745529;2.9438;0.0726519;0;0;0;0
140.9733;0.743652;2.9533;0.0713671;0;0;0;0
141.4732;0.751325;2.9545;0.0731738;0;0;0;0
141.9733;0.7552729;2.9438;0.0713426;0;0;0;0
142.4733;0.756956;2.9586;0.073658;0;0;0;0
142.9733;0.759883;2.9668;0.0733222;0;0;0;0
143.4732;0.76298;2.9659;0.0740051;0;0;0;0
143.9733;0.76965;2.9533;0.073363;0;0;0;0
144.4733;0.773516;2.964;0.0747429;0;0;0;0
144.9733;0.777701;2.9779;0.074707;0;0;0;0
145.4732;0.777689;2.9798;0.0768912;0;0;0;0
145.9732;0.780708;2.9706;0.07515304;0;0;0;0
146.4731;0.781119;2.9779;0.0766913;0;0;0;0
146.9732;0.786591;2.9754;0.0767043;0;0;0;0
147.4732;0.792098;3.0007;0.0764135;0;0;0;0
147.9732;0.793883;2.9842;0.0773525;0;0;0;0
148.4732;0.799045;2.9637;0.07690256;0;0;0;0
148.973;0.798435;2.9795;0.0772599;0;0;0;0
149.4732;0.802486;2.9706;0.0798419;0;0;0;0
149.9732;0.807369;2.977;0.0801706;0;0;0;0
150.473;0.812183;2.9817;0.0781981;0;0;0;0
150.9731;0.81558;2.983;0.0780456;0;0;0;0
151.4731;0.813336;2.9893;0.08000546;0;0;0;0
151.9731;0.816741;2.9924;0.0789555;0;0;0;0
152.473;0.82321;2.9766;0.080454;0;0;0;0
152.973;0.82888;2.9966;0.080666;0;0;0;0
153.473;0.8301;3.0136;0.0803665;0;0;0;0
153.9729;0.833542;3.0016;0.0820553;0;0;0;0
154.473;0.83503;2.9795;0.0817611;0;0;0;0
154.9729;0.835699;2.9988;0.0808246;0;0;0;0
155.4729;0.841325;2.9826;0.0814021;0;0;0;0
155.9729;0.849879;3.0146;0.0814393;0;0;0;0
156.473;0.850993;3.018;0.0815153;0;0;0;0
156.9729;0.850745;2.9861;0.08333445;0;0;0;0
157.473;0.854162;2.9943;0.083194;0;0;0;0
157.973;0.860471;2.9691;0.0825028;0;0;0;0
158.4729;0.864109;3.0111;0.0820294;0;0;0;0
158.973;0.867217;3.0313;0.083562;0;0;0;0
159.473;0.869753;3.0177;0.0850294;0;0;0;0
159.9728;0.873494;3.0196;0.0823817;0;0;0;0
160.4729;0.87673;3.0165;0.0850842;0;0;0;0
160.9728;0.885373;3.0206;0.0855192;0;0;0;0
161.4729;0.879996;3.0269;0.0864432;0;0;0;0
161.9728;0.884873;3.0082;0.0869194;0;0;0;0
162.4729;0.884402;3.0139;0.0858573;0;0;0;0
162.9729;0.892922;3.0218;0.0864899;0;0;0;0
163.4729;0.894952;3.0171;0.0883321;0;0;0;0
163.9728;0.898442;3.024;0.08748378;0;0;0;0
164.4727;0.903178;3.0323;0.0882342;0;0;0;0
164.9727;0.903532;3.0086;0.089613;0;0;0;0
165.4729;0.907807;3.0421;0.0882904;0;0;0;0
165.9727;0.913902;3.0171;0.0891268;0;0;0;0
166.4727;0.916664;3.007;0.0906726;0;0;0;0
166.9727;0.919793;3.0294;0.0887753;0;0;0;0
167.4728;0.923109;3.0323;0.0898599;0;0;0;0
167.9728;0.925234;3.0402;0.0890931;0;0;0;0
168.4728;0.926576;3.0329;0.0903073;0;0;0;0
168.9728;0.93272;3.0367;0.0908297;0;0;0;0
169.4726;0.934894;3.0329;0.0907608;0;0;0;0
169.9728;0.935487;3.0538;0.0936134;0;0;0;0
170.4728;0.943957;3.0294;0.0929981;0;0;0;0
170.9726;0.946814;3.0525;0.0928446;0;0;0;0
171.4727;0.951384;3.05;0.0931643;0;0;0;0
171.9727;0.951734;3.0534;0.0934232;0;0;0;0
172.4726;0.954439;3.0294;0.0940909;0;0;0;0
172.9727;0.959464;3.0402;0.0938945;0;0;0;0
173.4726;0.961158;3.0288;0.0942777;0;0;0;0
173.9726;0.969355;3.0632;0.0950294;0;0;0;0
174.4725;0.97009;3.0509;0.09610731;0;0;0;0
174.9727;0.972672;3.0386;0.0972907;0;0;0;0
175.4727;0.980272;3.0398;0.0950821;0;0;0;0
175.9727;0.984026;3.0812;0.0960691;0;0;0;0
176.4725;0.987049;3.0566;0.0964053;0;0;0;0
176.9725;0.983494;3.0714;0.0971267;0;0;0;0
177.4726;0.987705;3.073;0.0958635;0;0;0;0
177.9726;0.990956;3.0696;0.0985028;0;0;0;0
178.4724;0.999892;3.044;0.0990973;0;0;0;0
178.9725;0.998769;3.0648;0.09739254;0;0;0;0
179.4725;1.00141;3.0515;0.0982214;0;0;0;0
179.9726;1.0057;3.0373;0.0997215;0;0;0;0
180.4726;1.00783;3.068;0.0980512;0;0;0;0
180.9726;1.01363;3.0411;0.100582;0;0;0;0
181.4724;1.01622;3.0708;0.0992641;0;0;0;0
181.9725;1.02042;3.0484;0.100869;0;0;0;0
182.4724;1.02223;3.0604;0.101763;0;0;0;0
182.9725;1.02413;3.0648;0.101246;0;0;0;0
183.4725;1.0265;3.0664;0.10287;0;0;0;0
183.9725;1.03266;3.0787;0.101671;0;0;0;0
184.4724;1.03454;3.0683;0.102954;0;0;0;0
184.9723;1.03951;3.0933;0.101157;0;0;0;0
185.4725;1.04056;3.0718;0.101771;0;0;0;0
185.9724;1.04448;3.0727;0.101505;0;0;0;0
186.4724;1.04998;3.0686;0.105248;0;0;0;0
186.9724;1.05631;3.0683;0.104347;0;0;0;0
187.4724;1.05164;3.0895;0.103663;0;0;0;0
187.9723;1.05895;3.0866;0.104434;0;0;0;0
188.4725;1.05955;3.0917;0.106826;0;0;0;0
188.9725;1.06524;3.0929;0.106432;0;0;0;0
189.4722;1.06587;3.0838;0.105033;0;0;0;0
189.9722;1.07073;3.0914;0.1065435;0;0;0;0
190.4722;1.07554;3.0923;0.105273;0;0;0;0
190.9722;1.077;3.0974;0.105739;0;0;0;0
191.4722;1.08347;3.0847;0.108385;0;0;0;0
191.9724;1.08708;3.0847;0.106258;0;0;0;0
192.4722;1.08612;3.1015;0.106942;0;0;0;0
192.9723;1.09126;3.0882;0.108111;0;0;0;0
193.4723;1.09679;3.0872;0.10934;0;0;0;0
193.9722;1.10321;3.0895;0.109732;0;0;0;0
194.4722;1.1022;3.0809;0.109724;0;0;0;0
194.9723;1.10426;3.0857;0.113634;0;0;0;0
195.4723;1.10661;3.1132;0.109573;0;0;0;0
195.9721;1.1143;3.0866;0.108651;0;0;0;0
196.4721;1.1155;3.1034;0.109708;0;0;0;0
196.9722;1.12163;3.1138;0.111606;0;0;0;0
197.4722;1.12438;3.1046;0.11252;0;0;0;0
197.9722;1.12194;3.1008;0.109345;0;0;0;0
198.4722;1.12723;3.0955;0.111579;0;0;0;0
198.9721;1.1314;3.092;0.111758;0;0;0;0
199.4721;1.13549;3.1347;0.110736;0;0;0;0
199.972;1.1408;3.1103;0.111759;0;0;0;0
200.472;1.14005;3.1021;0.113905;0;0;0;0
200.972;1.14497;3.1128;0.115325;0;0;0;0
201.472;1.14709;3.1207;0.113974;0;0;0;0
201.972;1.15166;3.0983;0.112904;0;0;0;0
202.472;1.15712;3.1132;0.113633;0;0;0;0
202.9721;1.15829;3.1119;0.114889;0;0;0;0
203.472;1.16054;3.1157;0.116299;0;0;0;0
203.9721;1.16489;3.1144;0.115416;0;0;0;0
204.4721;1.16694;3.1163;0.1162864;0;0;0;0
204.9721;1.17241;3.1075;0.115765;0;0;0;0
205.4721;1.17628;3.1154;0.116204;0;0;0;0
205.9719;1.17691;3.129;0.11816;0;0;0;0
206.4719;1.18574;3.1176;0.11914;0;0;0;0
206.9719;1.18275;3.1245;0.117618;0;0;0;0
207.472;1.18595;3.1151;0.119022;0;0;0;0
207.972;1.19125;3.1226;0.119348;0;0;0;0
208.4719;1.19844;3.1182;0.115572;0;0;0;0
208.972;1.19857;3.1293;0.1194705;0;0;0;0
209.472;1.20176;3.1157;0.11889;0;0;0;0
209.9718;1.19905;3.1315;0.119885;0;0;0;0
210.472;1.20764;3.1125;0.119084;0;0;0;0
210.9718;1.2093;3.1359;0.12028;0;0;0;0
211.472;1.21404;3.128;0.121029;0;0;0;0
211.9719;1.21681;3.1375;0.121177;0;0;0;0
212.4719;1.21765;3.1271;0.121767;0;0;0;0
212.9718;1.22325;3.1419;0.12241;0;0;0;0
213.4719;1.22849;3.1309;0.121851;0;0;0;0
213.9718;1.22844;3.1324;0.122919;0;0;0;0
214.4719;1.2363;3.1451;0.123113;0;0;0;0
214.9718;1.23734;3.1318;0.123628;0;0;0;0
215.4717;1.243052;3.1416;0.12479;0;0;0;0
215.9717;1.24831;3.1435;0.12364;0;0;0;0
216.4719;1.24852;3.1185;0.124242;0;0;0;0
216.9718;1.25214;3.1479;0.126093;0;0;0;0
217.4717;1.25323;3.1334;0.125299;0;0;0;0
217.9718;1.2517;3.1561;0.126569;0;0;0;0
218.4717;1.26355;3.1419;0.128597;0;0;0;0
218.9717;1.2663;3.141;0.1260018;0;0;0;0
219.4717;1.26297;3.1233;0.125643;0;0;0;0
219.9718;1.26614;3.1362;0.129394;0;0;0;0
220.4716;1.2726;3.1467;0.129436;0;0;0;0
220.9718;1.2793;3.1451;0.12675;0;0;0;0
221.4716;1.27692;3.164;0.126102;0;0;0;0
221.9716;1.2841;3.1476;0.131913;0;0;0;0
222.4716;1.28667;3.1517;0.130597;0;0;0;0
222.9716;1.28827;3.1549;0.130032;0;0;0;0
223.4716;1.29673;3.1552;0.129639;0;0;0;0
223.9717;1.29907;3.1524;0.131141;0;0;0;0
224.4716;1.29897;3.1647;0.13188;0;0;0;0
224.9716;1.30774;3.1783;0.13273;0;0;0;0
225.4717;1.30826;3.1574;0.132654;0;0;0;0
225.9717;1.3107;3.1558;0.131622;0;0;0;0
226.4717;1.31681;3.1479;0.132551;0;0;0;0
226.9715;1.31656;3.153;0.133222;0;0;0;0
227.4715;1.32129;3.1606;0.135322;0;0;0;0
227.9715;1.32291;3.1552;0.136448;0;0;0;0
228.4716;1.32868;3.1792;0.134669;0;0;0;0
228.9715;1.33126;3.1637;0.134276;0;0;0;0
229.4715;1.3338;3.1612;0.134233;0;0;0;0
229.9716;1.33935;3.1533;0.131994;0;0;0;0
230.4716;1.34087;3.171;0.136103;0;0;0;0
230.9714;1.34627;3.1678;0.137375;0;0;0;0
231.4716;1.348;3.1558;0.13794;0;0;0;0
231.9716;1.34946;3.1577;0.138555;0;0;0;0
232.4715;1.3529;3.1776;0.138382;0;0;0;0
232.9715;1.35719;3.1748;0.136422;0;0;0;0
233.4714;1.35891;3.171;0.139391;0;0;0;0
233.9714;1.36416;3.1994;0.138596;0;0;0;0
234.4715;1.36702;3.1625;0.139246;0;0;0;0
234.9715;1.37104;3.1906;0.139396;0;0;0;0
235.4713;1.37104;3.1795;0.13833;0;0;0;0
235.9715;1.37675;3.1738;0.13871;0;0;0;0
236.4713;1.38084;3.1716;0.140241;0;0;0;0
236.9713;1.3856;3.1748;0.141713;0;0;0;0
237.4713;1.38611;3.1925;0.139574;0;0;0;0
237.9713;1.39151;3.1937;0.140061;0;0;0;0
238.4713;1.39941;3.1726;0.143594;0;0;0;0
238.9713;1.39591;3.1862;0.143087;0;0;0;0
239.4714;1.40154;3.1748;0.140838;0;0;0;0
239.9713;1.40478;3.1893;0.139431;0;0;0;0
240.4714;1.40598;3.1937;0.139142;0;0;0;0
240.9714;1.41355;3.1754;0.14155;0;0;0;0
241.4714;1.41515;3.1944;0.143444;0;0;0;0
241.9712;1.41389;3.1896;0.143254;0;0;0;0
242.4712;1.42003;3.1789;0.143464;0;0;0;0
242.9712;1.42013;3.2039;0.14491;0;0;0;0
243.4713;1.42936;3.1874;0.145037;0;0;0;0
243.9713;1.42912;3.1998;0.144006;0;0;0;0
244.4713;1.43313;3.1906;0.146014;0;0;0;0
244.9712;1.43729;3.2108;0.146626;0;0;0;0
245.4711;1.43932;3.2026;0.145037;0;0;0;0
245.9713;1.44465;3.2089;0.148611;0;0;0;0
246.4713;1.44547;3.1877;0.145463;0;0;0;0
246.9711;1.4506;3.1817;0.145409;0;0;0;0
247.4712;1.45319;3.2039;0.148704;0;0;0;0
247.9711;1.45924;3.1937;0.148447;0;0;0;0
248.4711;1.4593;3.1925;0.148108;0;0;0;0
248.9712;1.46191;3.1877;0.146784;0;0;0;0
249.4711;1.46579;3.1817;0.14766;0;0;0;0
249.9712;1.4708;3.1824;0.149265;0;0;0;0
250.4711;1.4714;3.1931;0.148521;0;0;0;0
250.9712;1.4751;3.2061;0.151499;0;0;0;0
251.4712;1.48209;3.2032;0.147483;0;0;0;0
251.971;1.48504;3.2168;0.148455;0;0;0;0
252.471;1.48733;3.1852;0.15097;0;0;0;0
252.971;1.49083;3.1858;0.151306;0;0;0;0
253.4711;1.49045;3.201;0.151942;0;0;0;0
253.971;1.4962;3.1985;0.148556;0;0;0;0
254.4711;1.49791;3.2042;0.148208;0;0;0;0
254.9711;1.50294;3.213;0.150295;0;0;0;0
255.471;1.50945;3.2244;0.152769;0;0;0;0
255.9711;1.50895;3.1975;0.152676;0;0;0;0
256.4711;1.50922;3.2143;0.153057;0;0;0;0
256.9709;1.516;3.2304;0.152676;0;0;0;0
257.4711;1.52143;3.1956;0.153468;0;0;0;0
257.971;1.52282;3.2054;0.155877;0;0;0;0
258.471;1.52448;3.2171;0.151338;0;0;0;0
258.9709;1.5282;3.2133;0.154068;0;0;0;0
259.471;1.52949;3.207;0.154997;0;0;0;0
259.971;1.53364;3.2241;0.154741;0;0;0;0
260.471;1.54093;3.1909;0.157894;0;0;0;0
260.9708;1.54328;3.2152;0.156974;0;0;0;0
261.471;1.54457;3.2067;0.156867;0;0;0;0
261.9708;1.54778;3.2304;0.157433;0;0;0;0
262.4708;1.55098;3.2077;0.157446;0;0;0;0
262.9708;1.5553;3.2238;0.156605;0;0;0;0
263.4708;1.56005;3.2222;0.158966;0;0;0;0
263.9708;1.56283;3.213;0.156746;0;0;0;0
264.4708;1.56565;3.2105;0.157016;0;0;0;0
264.9708;1.56814;3.2159;0.157846;0;0;0;0
265.4709;1.56866;3.2032;0.157455;0;0;0;0
265.9707;1.57613;3.2266;0.159081;0;0;0;0
266.4709;1.57741;3.2323;0.157804;0;0;0;0
266.9707;1.58257;3.2329;0.160233;0;0;0;0
267.4707;1.58445;3.2358;0.161037;0;0;0;0
267.9707;1.58727;3.2203;0.161005;0;0;0;0
268.4707;1.5925;3.2187;0.163405;0;0;0;0
268.9708;1.59586;3.2291;0.162575;0;0;0;0
269.4708;1.59837;3.2314;0.161786;0;0;0;0
269.9708;1.60083;3.2351;0.163876;0;0;0;0
270.4707;1.60129;3.2159;0.162417;0;0;0;0
270.9706;1.608035;3.2231;0.165592;0;0;0;0
271.4707;1.61434;3.2114;0.164735;0;0;0;0
271.9706;1.61511;3.2092;0.164158;0;0;0;0
272.4706;1.61524;3.2165;0.165572;0;0;0;0
272.9707;1.63085;3.2225;0.165059;0;0;0;0
273.4707;1.62524;3.2102;0.164689;0;0;0;0
273.9707;1.63071;3.2238;0.164833;0;0;0;0
274.4707;1.63081;3.2386;0.166008;0;0;0;0
274.9707;1.63468;3.2257;0.167073;0;0;0;0
275.4707;1.63811;3.2171;0.166252;0;0;0;0
275.9706;1.64286;3.2276;0.167186;0;0;0;0
276.4707;1.64629;3.2412;0.166722;0;0;0;0
276.9705;1.64884;3.2547;0.166812;0;0;0;0
277.4707;1.65115;3.2453;0.167951;0;0;0;0
277.9707;1.65713;3.2156;0.168306;0;0;0;0
278.4705;1.6603;3.2241;0.168503;0;0;0;0
278.9706;1.66187;3.2345;0.166711;0;0;0;0
279.4705;1.66426;3.2333;0.168191;0;0;0;0
279.9706;1.66925;3.2434;0.168325;0;0;0;0
280.4705;1.67114;3.244;0.171692;0;0;0;0
280.9705;1.67418;3.25;0.170773;0;0;0;0
281.4705;1.6805;3.2304;0.169771;0;0;0;0
281.9704;1.68051;3.238;0.169371;0;0;0;0
282.4704;1.68497;3.2424;0.171252;0;0;0;0
282.9706;1.68692;3.2317;0.170033;0;0;0;0
283.4704;1.69684;3.2238;0.170597;0;0;0;0
283.9704;1.69433;3.226;0.174205;0;0;0;0
284.4706;1.69625;3.2513;0.172764;0;0;0;0
284.9704;1.70175;3.2535;0.173064;0;0;0;0
285.4704;1.70363;3.2443;0.173192;0;0;0;0
285.9705;1.70518;3.2472;0.174949;0;0;0;0
286.4705;1.71378;3.2551;0.172813;0;0;0;0
286.9703;1.71366;3.2421;0.173182;0;0;0;0
287.4705;1.71875;3.2522;0.174173;0;0;0;0
287.9703;1.71968;3.2314;0.172367;0;0;0;0
288.4703;1.72443;3.2443;0.175774;0;0;0;0
288.9704;1.72506;3.2481;0.176996;0;0;0;0
289.4703;1.73149;3.2386;0.177105;0;0;0;0
289.9703;1.73599;3.2348;0.177939;0;0;0;0
290.4703;1.73663;3.2415;0.176593;0;0;0;0
290.9704;1.74132;3.2459;0.176349;0;0;0;0
291.4703;1.74506;3.2503;0.176176;0;0;0;0
291.9703;1.74677;3.2642;0.176506;0;0;0;0
292.4704;1.75315;3.2389;0.178227;0;0;0;0
292.9704;1.75399;3.2497;0.178262;0;0;0;0
293.4702;1.75676;3.2664;0.178667;0;0;0;0
293.9703;1.76182;3.2503;0.178636;0;0;0;0
294.4703;1.76833;3.2364;0.179722;0;0;0;0
294.9703;1.769;3.2358;0.180365;0;0;0;0
295.4703;1.77289;3.274;0.179404;0;0;0;0
295.9702;1.77081;3.2159;0.180141;0;0;0;0
296.4703;1.7747;3.2535;0.180541;0;0;0;0
296.9703;1.77723;3.2595;0.182168;0;0;0;0
297.4703;1.78721;3.2348;0.181132;0;0;0;0
297.9703;1.78684;3.2601;0.185665;0;0;0;0
298.4703;1.79128;3.2576;0.183004;0;0;0;0
298.9702;1.79497;3.2396;0.183857;0;0;0;0
299.4702;1.79644;3.2396;0.186749;0;0;0;0
299.9702;1.80581;3.2544;0.183686;0;0;0;0
300.4702;1.80387;3.2468;0.183369;0;0;0;0
300.9702;1.81035;3.2579;0.182951;0;0;0;0
301.4702;1.80761;3.2513;0.183934;0;0;0;0
301.9701;1.81246;3.2484;0.184287;0;0;0;0
302.47;1.81493;3.2582;0.183559;0;0;0;0
302.9702;1.82516;3.2582;0.191875;0;0;0;0
303.4702;1.82196;3.2412;0.187126;0;0;0;0
303.9702;1.82239;3.2683;0.188959;0;0;0;0
304.4701;1.82925;3.2702;0.188006;0;0;0;0
304.97;1.83669;3.2658;0.19024;0;0;0;0
305.4701;1.83675;3.2772;0.188459;0;0;0;0
305.97;1.84063;3.2468;0.188841;0;0;0;0
306.4701;1.84532;3.2633;0.19058;0;0;0;0
306.9701;1.84658;3.2718;0.190961;0;0;0;0
307.4701;1.85029;3.268;0.191473;0;0;0;0
307.9701;1.85528;3.2462;0.191643;0;0;0;0
308.4701;1.85795;3.2674;0.192441;0;0;0;0
308.9699;1.86019;3.2784;0.19051;0;0;0;0
309.4701;1.8616;3.2503;0.192273;0;0;0;0
309.97;1.87372;3.2702;0.192576;0;0;0;0
310.47;1.8765;3.2519;0.191468;0;0;0;0
310.97;1.87513;3.2516;0.194962;0;0;0;0
311.4699;1.87671;3.2686;0.194987;0;0;0;0
311.97;1.87923;3.2582;0.193357;0;0;0;0
312.4699;1.88373;3.2664;0.195884;0;0;0;0
312.9698;1.88595;3.2677;0.195134;0;0;0;0
313.4698;1.89105;3.2765;0.195599;0;0;0;0
313.9699;1.89309;3.2554;0.194886;0;0;0;0
314.4698;1.89837;3.2747;0.194912;0;0;0;0
314.9698;1.90044;3.2664;0.194062;0;0;0;0
315.4698;1.90324;3.2579;0.19655;0;0;0;0
315.9698;1.9094;3.2756;0.197803;0;0;0;0
316.4699;1.90912;3.2753;0.195;0;0;0;0
316.9699;1.91351;3.2737;0.198796;0;0;0;0
317.4699;1.92182;3.2661;0.19827;0;0;0;0
317.9697;1.91876;3.2661;0.200078;0;0;0;0
318.4699;1.92608;3.2645;0.199472;0;0;0;0
318.9697;1.92974;3.269;0.199184;0;0;0;0
319.4697;1.92704;3.2813;0.20299;0;0;0;0
319.9698;1.93368;3.2566;0.202631;0;0;0;0
320.4697;1.93321;3.2595;0.201076;0;0;0;0
320.9697;1.94208;3.2607;0.20052;0;0;0;0
321.4698;1.94616;3.2762;0.201706;0;0;0;0
321.9698;1.94511;3.2661;0.201126;0;0;0;0
322.4696;1.94832;3.263;0.201146;0;0;0;0
322.9698;1.95131;3.2857;0.203878;0;0;0;0
323.4698;1.95513;3.2835;0.205062;0;0;0;0
323.9696;1.96191;3.2778;0.203488;0;0;0;0
324.4696;1.96392;3.2715;0.204482;0;0;0;0
324.9697;1.96777;3.2794;0.203951;0;0;0;0
325.4697;1.97345;3.2813;0.207731;0;0;0;0
325.9697;1.97037;3.2617;0.204848;0;0;0;0
326.4697;1.98115;3.275;0.206954;0;0;0;0
326.9696;1.98131;3.262;0.208338;0;0;0;0
327.4695;1.98389;3.2784;0.207066;0;0;0;0
327.9695;1.98524;3.274;0.210063;0;0;0;0
328.4697;1.98976;3.2728;0.209361;0;0;0;0
328.9696;1.99151;3.2712;0.210247;0;0;0;0
329.4697;1.99739;3.286;0.211016;0;0;0;0
329.9695;2.00135;3.2949;0.209365;0;0;0;0
330.4696;2.00355;3.2671;0.210316;0;0;0;0
330.9695;2.00762;3.2788;0.212123;0;0;0;0
331.4695;2.01224;3.2658;0.212719;0;0;0;0
331.9696;2.01513;3.2642;0.211939;0;0;0;0
332.4696;2.01151;3.2712;0.213198;0;0;0;0
332.9696;2.02029;3.2892;0.213895;0;0;0;0
333.4696;2.0248;3.2705;0.213997;0;0;0;0
333.9694;2.02779;3.257;0.215838;0;0;0;0
334.4695;2.02959;3.2826;0.213183;0;0;0;0
334.9694;2.03298;3.2876;0.214562;0;0;0;0
335.4694;2.03566;3.2715;0.216678;0;0;0;0
335.9695;2.0391;3.2617;0.217323;0;0;0;0
336.4694;2.04315;3.2784;0.217469;0;0;0;0
336.9695;2.04785;3.2813;0.217556;0;0;0;0
337.4693;2.05136;3.2636;0.219074;0;0;0;0
337.9693;2.05337;3.2753;0.217148;0;0;0;0
338.4695;2.05907;3.2867;0.218089;0;0;0;0
338.9693;2.06005;3.2626;0.219771;0;0;0;0
339.4694;2.06338;3.2753;0.220881;0;0;0;0
339.9695;2.069;3.2715;0.221348;0;0;0;0
340.4693;2.06703;3.2633;0.222399;0;0;0;0
340.9694;2.0681;3.2709;0.219738;0;0;0;0
341.4694;2.0719;3.2844;0.219964;0;0;0;0
341.9694;2.08118;3.2557;0.222031;0;0;0;0
342.4693;2.08653;3.2683;0.221528;0;0;0;0
342.9692;2.0824;3.2731;0.224734;0;0;0;0
343.4692;2.08836;3.2791;0.224344;0;0;0;0
343.9692;2.09201;3.2984;0.223754;0;0;0;0
344.4692;2.09885;3.2781;0.222036;0;0;0;0
344.9692;2.10061;3.2756;0.226615;0;0;0;0
345.4693;2.10544;3.2683;0.228627;0;0;0;0
345.9692;2.10835;3.2898;0.226789;0;0;0;0
346.4693;2.10904;3.2841;0.229101;0;0;0;0
346.9692;2.11802;3.2917;0.229628;0;0;0;0
347.4692;2.11508;3.2702;0.229212;0;0;0;0
347.9693;2.12127;3.2826;0.22998;0;0;0;0
348.4693;2.12267;3.2607;0.230578;0;0;0;0
348.9693;2.12323;3.2639;0.232069;0;0;0;0
349.4693;2.12767;3.2731;0.232078;0;0;0;0
349.9692;2.13374;3.2854;0.231322;0;0;0;0
350.4691;2.13673;3.2677;0.232585;0;0;0;0
350.9691;2.13876;3.2658;0.234302;0;0;0;0
351.4691;2.14068;3.28;0.23597;0;0;0;0
351.9691;2.14612;3.286;0.235559;0;0;0;0
352.4692;2.14726;3.2759;0.234849;0;0;0;0
352.9692;2.15426;3.2664;0.236246;0;0;0;0
353.469;2.15555;3.2655;0.234992;0;0;0;0
353.969;2.16174;3.2731;0.238807;0;0;0;0
354.4692;2.16897;3.2895;0.235592;0;0;0;0
354.9691;2.16239;3.2911;0.240386;0;0;0;0
355.469;2.16877;3.2797;0.240756;0;0;0;0
355.969;2.17415;3.2642;0.242031;0;0;0;0
356.469;2.17786;3.2709;0.241331;0;0;0;0
356.969;2.17691;3.2901;0.243001;0;0;0;0
357.469;2.18391;3.274;0.24442;0;0;0;0
357.9689;2.19021;3.263;0.245322;0;0;0;0
358.4689;2.18954;3.2582;0.24497;0;0;0;0
358.969;2.19152;3.2623;0.243443;0;0;0;0
359.4689;2.19644;3.2649;0.248798;0;0;0;0
359.9689;2.1981;3.269;0.247488;0;0;0;0
360.469;2.2062;3.2889;0.248889;0;0;0;0
360.969;2.20731;3.2671;0.250319;0;0;0;0
361.469;2.21105;3.2661;0.250499;0;0;0;0
361.969;2.21231;3.2513;0.249993;0;0;0;0
362.4689;2.21404;3.2765;0.252276;0;0;0;0
362.9689;2.22159;3.2636;0.252953;0;0;0;0
363.4688;2.21867;3.2652;0.250837;0;0;0;0
363.969;2.23496;3.2645;0.254848;0;0;0;0
364.469;2.23308;3.2696;0.252958;0;0;0;0
364.9688;2.23122;3.2611;0.255937;0;0;0;0
365.4688;2.23754;3.2734;0.254531;0;0;0;0
365.9689;2.23853;3.2756;0.257392;0;0;0;0
366.4689;2.24509;3.2905;0.256839;0;0;0;0
366.9689;2.24474;3.2589;0.259157;0;0;0;0
367.4689;2.25074;3.2686;0.26017;0;0;0;0
367.9689;2.25536;3.2626;0.261006;0;0;0;0
368.4687;2.25969;3.2468;0.263031;0;0;0;0
368.9687;2.26143;3.2389;0.26199;0;0;0;0
369.469;2.26317;3.2576;0.264828;0;0;0;0
369.9687;2.26827;3.2668;0.266933;0;0;0;0
370.4687;2.26836;3.2677;0.266769;0;0;0;0
370.9687;2.27414;3.2655;0.269431;0;0;0;0
371.4687;2.27765;3.2462;0.268432;0;0;0;0
371.9687;2.27889;3.2803;0.267103;0;0;0;0
372.4688;2.2834;3.2491;0.266782;0;0;0;0
372.9686;2.28471;3.2611;0.268315;0;0;0;0
373.4688;2.29087;3.2709;0.268781;0;0;0;0
373.9686;2.29304;3.2589;0.269836;0;0;0;0
374.4686;2.29702;3.2525;0.271114;0;0;0;0
374.9686;2.29738;3.2598;0.271906;0;0;0;0
375.4686;2.30322;3.244;0.27463;0;0;0;0
375.9686;2.30629;3.2544;0.275753;0;0;0;0
376.4686;2.3121;3.2408;0.275419;0;0;0;0
376.9686;2.316;3.262;0.276001;0;0;0;0
377.4687;2.31654;3.2557;0.277919;0;0;0;0
377.9687;2.31892;3.2699;0.279678;0;0;0;0
378.4686;2.32567;3.2494;0.277073;0;0;0;0
378.9685;2.32834;3.274;0.279854;0;0;0;0
379.4687;2.33044;3.2604;0.280615;0;0;0;0
379.9687;2.33286;3.2532;0.281679;0;0;0;0
380.4687;2.33849;3.2541;0.2837;0;0;0;0
380.9687;2.34056;3.2509;0.282826;0;0;0;0
381.4685;2.34925;3.2358;0.283593;0;0;0;0
381.9685;2.34779;3.2528;0.285436;0;0;0;0
382.4686;2.35117;3.2671;0.290684;0;0;0;0
382.9686;2.35553;3.2421;0.290347;0;0;0;0
383.4686;2.35291;3.2671;0.289886;0;0;0;0
383.9686;2.36201;3.2573;0.291392;0;0;0;0
384.4684;2.3628;3.2551;0.292598;0;0;0;0
384.9686;2.36466;3.2355;0.29307;0;0;0;0
385.4686;2.37226;3.2421;0.294639;0;0;0;0
385.9684;2.37185;3.2611;0.294141;0;0;0;0
386.4684;2.37542;3.2383;0.298354;0;0;0;0
386.9684;2.38266;3.2532;0.297485;0;0;0;0
387.4685;2.38886;3.2487;0.29679;0;0;0;0
387.9684;2.38595;3.2358;0.299029;0;0;0;0
388.4684;2.38776;3.2509;0.298613;0;0;0;0
388.9684;2.39472;3.2165;0.305792;0;0;0;0
389.4684;2.39868;3.2216;0.306063;0;0;0;0
389.9685;2.40236;3.2494;0.30481;0;0;0;0
390.4683;2.40214;3.2412;0.307334;0;0;0;0
390.9684;2.40693;3.2326;0.307641;0;0;0;0
391.4683;2.41009;3.2339;0.309648;0;0;0;0
391.9684;2.41414;3.2219;0.310375;0;0;0;0
392.4684;2.41808;3.2557;0.31168;0;0;0;0
392.9684;2.42067;3.232;0.312608;0;0;0;0
393.4683;2.42429;3.2181;0.315059;0;0;0;0
393.9683;2.43312;3.2118;0.31572;0;0;0;0
394.4684;2.42764;3.214;0.316599;0;0;0;0
394.9684;2.43353;3.2127;0.318981;0;0;0;0
395.4683;2.43458;3.2301;0.319025;0;0;0;0
395.9683;2.43923;3.213;0.320978;0;0;0;0
396.4683;2.44417;3.2317;0.319024;0;0;0;0
396.9682;2.44866;3.2361;0.321679;0;0;0;0
397.4683;2.45225;3.2361;0.327285;0;0;0;0
397.9683;2.45424;3.2083;0.321997;0;0;0;0
398.4682;2.45767;3.2219;0.325088;0;0;0;0
398.9683;2.46026;3.2168;0.327292;0;0;0;0
399.4683;2.46568;3.2203;0.327015;0;0;0;0
399.9683;2.47144;3.2219;0.332055;0;0;0;0
400.4683;2.47108;3.2168;0.330086;0;0;0;0
400.9681;2.47403;3.232;0.329253;0;0;0;0
401.4682;2.47733;3.1956;0.333101;0;0;0;0
401.9682;2.48143;3.2222;0.334576;0;0;0;0
402.4681;2.48519;3.2244;0.335706;0;0;0;0
402.9681;2.48973;3.2064;0.340815;0;0;0;0
403.4682;2.49412;3.2048;0.337455;0;0;0;0
403.9682;2.49257;3.1843;0.340252;0;0;0;0
404.4682;2.50023;3.1994;0.342416;0;0;0;0
404.9682;2.50119;3.1846;0.344562;0;0;0;0
405.468;2.50635;3.1805;0.342463;0;0;0;0
405.9682;2.50706;3.2064;0.344996;0;0;0;0
406.468;2.51464;3.184;0.346957;0;0;0;0
406.9681;2.5136;3.1858;0.345605;0;0;0;0
407.468;2.51705;3.1963;0.352677;0;0;0;0
407.9681;2.52293;3.1751;0.351085;0;0;0;0
408.4681;2.52693;3.1546;0.35804;0;0;0;0
408.968;2.53219;3.1761;0.357982;0;0;0;0
409.4681;2.53174;3.1764;0.357914;0;0;0;0
409.9681;2.53705;3.1912;0.357873;0;0;0;0
410.4681;2.53877;3.1732;0.361649;0;0;0;0
410.9681;2.54061;3.1659;0.361973;0;0;0;0
411.4681;2.54525;3.1555;0.362567;0;0;0;0
411.968;2.54803;3.1729;0.372188;0;0;0;0
412.468;2.55395;3.1678;0.377332;0;0;0;0
412.968;2.55772;3.1448;0.376889;0;0;0;0
413.4679;2.55764;3.1498;0.380445;0;0;0;0
413.9679;2.56113;3.1378;0.384788;0;0;0;0
414.4679;2.56544;3.1552;0.385028;0;0;0;0
414.968;2.57182;3.1593;0.386565;0;0;0;0
415.468;2.57425;3.1561;0.390104;0;0;0;0
415.9678;2.57653;3.1236;0.395943;0;0;0;0
416.4678;2.58174;3.1217;0.393458;0;0;0;0
416.9678;2.58337;3.1432;0.396439;0;0;0;0
417.4678;2.59041;3.1245;0.39749;0;0;0;0
417.9678;2.5889;3.1233;0.395828;0;0;0;0
418.4679;2.59492;3.1242;0.401005;0;0;0;0
418.9679;2.59651;3.1147;0.405722;0;0;0;0
419.4678;2.60174;3.1166;0.406387;0;0;0;0
419.9679;2.60414;3.116;0.40626;0;0;0;0
420.4679;2.61071;3.0914;0.402078;0;0;0;0
420.9677;2.61018;3.1012;0.404982;0;0;0;0
421.4677;2.61809;3.0866;0.406182;0;0;0;0
421.9677;2.61958;3.0708;0.412551;0;0;0;0
422.4677;2.62313;3.0806;0.412465;0;0;0;0
422.9678;2.62541;3.0793;0.412838;0;0;0;0
423.4678;2.62448;3.0841;0.413397;0;0;0;0
423.9677;2.63134;3.0642;0.418896;0;0;0;0
424.4678;2.63417;3.0534;0.417417;0;0;0;0
424.9678;2.63937;3.0468;0.412036;0;0;0;0
425.4678;2.64503;3.0332;0.414134;0;0;0;0
425.9676;2.64835;3.0199;0.414303;0;0;0;0
426.4678;2.65274;3.0032;0.420551;0;0;0;0