File: polyN_optimization/AA7020-T6_results/DATA/SL_60_NT20_90_1.csv
Time[s];Displacement[mm];Force[kN];AxStrain_1;AxStrain_2;Thickness[mm];OuterWidth[mm];InnerWidth[mm]
0;0;-0.006;0;0;1.021;20;10
0.4764;0.002097968;0.0114;0.000457038;0;0;0;0
0.9764;0.000815072;-0.0335;0.000521293;0;0;0;0
1.4764;0.00141777;0.0108;0.000697971;0;0;0;0
1.9764;0.001787262;0;0.000740797;0;0;0;0
2.4764;0.002962823;-0.0038;0.00038564;0;0;0;0
2.9762;0.002245376;-0.0354;0.000169628;0;0;0;0
3.4761;0.001282013;-0.0148;0.000658712;0;0;0;0
3.9761;-0.000264806;-0.0063;0.000264251;0;0;0;0
4.4761;-0.000359606;0.0019;0.000737228;0;0;0;0
4.9761;0.001059576;0.007;0.000744366;0;0;0;0
5.4761;0.002983831;0.0051;0.000656927;0;0;0;0
5.9761;0.00169564;0.0168;0.000603389;0;0;0;0
6.4763;-7.1321E-05;0.0534;0.00074615;0;0;0;0
6.9763;0.006215874;0.0904;0.000970957;0;0;0;0
7.4763;0.001947911;0.1457;0.000249969;0;0;0;0
7.9761;0.004089307;0.1814;0.000198195;0;0;0;0
8.476;0.004696418;0.213;-8.5718E-05;0;0;0;0
8.9763;0.008219571;0.3053;0.000303525;0;0;0;0
9.4762;0.006384997;0.3179;-0.000385789;0;0;0;0
9.9762;0.0154209;0.3815;0.000837149;0;0;0;0
10.4763;0.01580149;0.4127;-2.14288E-05;0;0;0;0
10.976;0.0180183;0.5044;0.001354439;0;0;0;0
11.4762;0.0182262;0.5281;0.000658712;0;0;0;0
11.9759;0.0182677;0.5619;0.000801464;0;0;0;0
12.4762;0.0197026;0.6178;0.001147556;0;0;0;0
12.9761;0.0269224;0.675;0.001204631;0;0;0;0
13.4766;0.0299815;0.7057;0.000739013;0;0;0;0
13.9761;0.0316125;0.7736;0.000510584;0;0;0;0
14.4761;0.0306942;0.803;0.000742581;0;0;0;0
14.9761;0.0322759;0.8552;0.001170743;0;0;0;0
15.4759;0.02455844;0.9171;0.00147213;0;0;0;0
15.9761;0.0313087;0.9484;0.002078196;0;0;0;0
16.4761;0.0324641;0.9816;0.001910674;0;0;0;0
16.9762;0.03450066;1.0356;0.001336606;0;0;0;0
17.4761;0.0378847;1.0843;0.001359789;0;0;0;0
17.9758;0.0375751;1.138;0.001020907;0;0;0;0
18.4758;0.03840072;1.1927;0.001031611;0;0;0;0
18.9761;0.0397689;1.2442;0.001126151;0;0;0;0
19.476;0.0386025;1.2888;0.000967389;0;0;0;0
19.9758;0.0465777;1.3469;0.00144895;0;0;0;0
20.4758;0.050395;1.3804;0.002215401;0;0;0;0
20.9758;0.0516776;1.3643;0.002354369;0;0;0;0
21.476;0.0507212;1.4702;0.00157911;0;0;0;0
21.9758;0.0516742;1.5315;0.002568128;0;0;0;0
22.476;0.052679;1.5852;0.001800164;0;0;0;0
22.9758;0.0537549;1.6105;0.001500659;0;0;0;0
23.476;0.0621125;1.6658;0.001297372;0;0;0;0
23.976;0.0606448;1.7103;0.001340173;0;0;0;0
24.4759;0.0647468;1.7679;0.001391888;0;0;0;0
24.9759;0.0577036;1.8017;0.002156601;0;0;0;0
25.4757;0.0589544;1.8453;0.001256353;0;0;0;0
25.9757;0.060423;1.9148;0.002847727;0;0;0;0
26.4759;0.0610511;1.9553;0.00299907;0;0;0;0
26.9759;0.0628174;1.973;0.003467197;0;0;0;0
27.4759;0.0694255;2.0276;0.001903544;0;0;0;0
27.9756;0.071738;2.1003;0.002334772;0;0;0;0
28.4759;0.0703158;2.1057;0.001766296;0;0;0;0
28.9756;0.0725988;2.1651;0.002653619;0;0;0;0
29.4756;0.07416468;2.2207;0.00239178;0;0;0;0
29.9758;0.072835;2.2612;0.002263508;0;0;0;0
30.4758;0.0813602;2.326;0.002315175;0;0;0;0
30.9758;0.0816869;2.362;0.00295456;0;0;0;0
31.4756;0.0838354;2.399;0.003552611;0;0;0;0
31.9756;0.0860783;2.4464;0.004848939;0;0;0;0
32.4755;0.0854943;2.4906;0.003260749;0;0;0;0
32.9758;0.0881406;2.4938;0.003061381;0;0;0;0
33.4758;0.0873183;2.5794;0.002913608;0;0;0;0
33.9757;0.0884554;2.6113;0.00275513;0;0;0;0
34.4757;0.0949004;2.6404;0.002705266;0;0;0;0
34.9755;0.0956523;2.7023;0.003465417;0;0;0;0
35.4755;0.0913682;2.7339;0.004443684;0;0;0;0
35.9755;0.09351951;2.7598;0.005376592;0;0;0;0
36.4757;0.0938094;2.7981;0.005715777;0;0;0;0
36.9757;0.102433;2.8202;0.005509793;0;0;0;0
37.4755;0.102932;2.8398;0.005429874;0;0;0;0
37.9755;0.105445;2.8825;0.004877372;0;0;0;0
38.4757;0.106586;2.8878;0.005222056;0;0;0;0
38.9754;0.107948;2.934;0.004685435;0;0;0;0
39.4756;0.110048;2.9526;0.005012417;0;0;0;0
39.9756;0.110444;2.9646;0.004895142;0;0;0;0
40.4756;0.115895;2.9997;0.005440531;0;0;0;0
40.9756;0.122531;3.024;0.007652785;0;0;0;0
41.4756;0.121448;3.0215;0.008508344;0;0;0;0
41.9756;0.124758;3.0452;0.008871248;0;0;0;0
42.4753;0.126585;3.0705;0.009474617;0;0;0;0
42.9755;0.135247;3.0645;0.007973484;0;0;0;0
43.4753;0.136145;3.1053;0.007122787;0;0;0;0
43.9755;0.139299;3.1151;0.007672278;0;0;0;0
44.4755;0.140848;3.1037;0.00763152;0;0;0;0
44.9756;0.140731;3.1384;0.008419811;0;0;0;0
45.4753;0.142312;3.1685;0.010113;0;0;0;0
45.9755;0.143717;3.1729;0.0110989;0;0;0;0
46.4755;0.154614;3.1773;0.0114856;0;0;0;0
46.9755;0.155072;3.1625;0.0121456;0;0;0;0
47.4752;0.156494;3.232;0.0117909;0;0;0;0
47.9755;0.157164;3.1934;0.0120503;0;0;0;0
48.4754;0.160352;3.2405;0.0113496;0;0;0;0
48.9754;0.166912;3.2393;0.0109594;0;0;0;0
49.4754;0.170703;3.2686;0.0113055;0;0;0;0
49.9754;0.172427;3.2788;0.0123978;0;0;0;0
50.4754;0.174773;3.2396;0.0138606;0;0;0;0
50.9754;0.176387;3.2955;0.0139364;0;0;0;0
51.4754;0.178871;3.3129;0.013924;0;0;0;0
51.9754;0.185612;3.3296;0.0152369;0;0;0;0
52.4751;0.188444;3.3157;0.0146581;0;0;0;0
52.9751;0.189199;3.353;0.0151771;0;0;0;0
53.4753;0.19202;3.3382;0.014813;0;0;0;0
53.9753;0.19429;3.3552;0.0152387;0;0;0;0
54.4751;0.194062;3.3454;0.0162072;0;0;0;0
54.9753;0.204758;3.3739;0.0163372;0;0;0;0
55.4751;0.205264;3.3966;0.01663761;0;0;0;0
55.9753;0.209334;3.3777;0.0172855;0;0;0;0
56.4753;0.210092;3.371;0.0169976;0;0;0;0
56.975;0.212474;3.4314;0.0169344;0;0;0;0
57.475;0.22128;3.433;0.0179522;0;0;0;0
57.975;0.221456;3.4396;0.0176048;0;0;0;0
58.475;0.224407;3.3982;0.0175189;0;0;0;0
58.975;0.226666;3.4706;0.0181328;0;0;0;0
59.475;0.227806;3.4728;0.018345;0;0;0;0
59.975;0.228413;3.4355;0.01964155;0;0;0;0
60.475;0.236154;3.4658;0.0203172;0;0;0;0
60.975;0.233948;3.5035;0.0204152;0;0;0;0
61.4752;0.23567;3.47;0.0209714;0;0;0;0
61.9749;0.239268;3.5164;0.0203399;0;0;0;0
62.4749;0.239715;3.5193;0.0209032;0;0;0;0
62.9749;0.247553;3.512;0.02068809;0;0;0;0
63.4751;0.251741;3.5284;0.0204082;0;0;0;0
63.9752;0.255404;3.5287;0.0210763;0;0;0;0
64.4749;0.254798;3.5347;0.0224479;0;0;0;0
64.9749;0.25519;3.5313;0.0228634;0;0;0;0
65.4749;0.257157;3.5205;0.0230065;0;0;0;0
65.9751;0.264989;3.5218;0.0232281;0;0;0;0
66.4751;0.269605;3.5774;0.02306411;0;0;0;0
66.9749;0.271989;3.5881;0.0233014;0;0;0;0
67.475;0.272367;3.5727;0.02346189;0;0;0;0
67.9748;0.274591;3.5676;0.0238613;0;0;0;0
68.4748;0.282123;3.5897;0.0233485;0;0;0;0
68.9748;0.284577;3.5878;0.02504795;0;0;0;0
69.4748;0.284828;3.6128;0.02502531;0;0;0;0
69.9748;0.287977;3.5973;0.0253109;0;0;0;0
70.4748;0.289222;3.6118;0.025941;0;0;0;0
70.975;0.295693;3.6074;0.0261724;0;0;0;0
71.475;0.301638;3.5916;0.02608885;0;0;0;0
71.9747;0.303705;3.6526;0.0265741;0;0;0;0
72.475;0.303153;3.6441;0.0265411;0;0;0;0
72.9749;0.3066;3.6416;0.0264767;0;0;0;0
73.475;0.308629;3.6662;0.0271426;0;0;0;0
73.9749;0.312739;3.6627;0.0267376;0;0;0;0
74.4747;0.322805;3.6611;0.0280268;0;0;0;0
74.9749;0.321684;3.6864;0.0279295;0;0;0;0
75.4749;0.322338;3.6877;0.02802156;0;0;0;0
75.9747;0.322798;3.6703;0.028367;0;0;0;0
76.4749;0.332506;3.6858;0.0290785;0;0;0;0
76.9746;0.329238;3.7089;0.02916;0;0;0;0
77.4749;0.335193;3.6893;0.0290923;0;0;0;0
77.9749;0.337803;3.6893;0.0292484;0;0;0;0
78.4748;0.340882;3.6924;0.0305015;0;0;0;0
78.9748;0.342694;3.7038;0.0302105;0;0;0;0
79.4748;0.352022;3.7136;0.0306193;0;0;0;0
79.9748;0.353746;3.7149;0.0308201;0;0;0;0
80.4748;0.355567;3.7607;0.0308582;0;0;0;0
80.9748;0.358143;3.7455;0.0313014;0;0;0;0
81.4748;0.359708;3.7326;0.0309881;0;0;0;0
81.9748;0.368393;3.7389;0.0320972;0;0;0;0
82.4748;0.3702636;3.7547;0.0318724;0;0;0;0
82.9745;0.371957;3.7443;0.0326712;0;0;0;0
83.4745;0.374883;3.7579;0.0324568;0;0;0;0
83.9747;0.375085;3.7765;0.0336057;0;0;0;0
84.4745;0.382885;3.755;0.0330738;0;0;0;0
84.9747;0.385863;3.7939;0.0333605;0;0;0;0
85.4747;0.38892;3.8024;0.03336224;0;0;0;0
85.9744;0.390769;3.7866;0.0336109;0;0;0;0
86.4744;0.393925;3.8075;0.0341719;0;0;0;0
86.9747;0.394268;3.8037;0.03374904;0;0;0;0
87.4747;0.399035;3.8204;0.0343911;0;0;0;0
87.9746;0.403896;3.8062;0.0349051;0;0;0;0
88.4746;0.409444;3.8286;0.035031;0;0;0;0
88.9746;0.408367;3.809;0.0355826;0;0;0;0
89.4746;0.410388;3.8318;0.0354326;0;0;0;0
89.9746;0.42208;3.8388;0.0360254;0;0;0;0
90.4746;0.421239;3.8343;0.0363491;0;0;0;0
90.9746;0.422481;3.8498;0.0356877;0;0;0;0
91.4746;0.426104;3.8441;0.036542;0;0;0;0
91.9746;0.428524;3.829;0.0368209;0;0;0;0
92.4743;0.426771;3.8552;0.0366556;0;0;0;0
92.9746;0.436395;3.8359;0.0372786;0;0;0;0
93.4744;0.437774;3.8498;0.0375125;0;0;0;0
93.9743;0.44021;3.8571;0.037657;0;0;0;0
94.4745;0.443486;3.8631;0.0381607;0;0;0;0
94.9743;0.44574;3.8783;0.0382415;0;0;0;0
95.4742;0.449856;3.8903;0.038367;0;0;0;0
95.9743;0.455376;3.8723;0.0381728;0;0;0;0
96.4745;0.459029;3.9035;0.0386831;0;0;0;0
96.9744;0.4601558;3.8849;0.0393873;0;0;0;0
97.4745;0.462629;3.8792;0.03964473;0;0;0;0
97.9742;0.473826;3.882;0.0396276;0;0;0;0
98.4744;0.471202;3.895;0.0392379;0;0;0;0
98.9744;0.47566;3.907;0.0401097;0;0;0;0
99.4744;0.477826;3.9057;0.0403156;0;0;0;0
99.9744;0.47818;3.9295;0.0404957;0;0;0;0
100.4744;0.481371;3.9181;0.041255;0;0;0;0
100.9742;0.490616;3.9285;0.0417655;0;0;0;0
101.4744;0.492384;3.9307;0.0422707;0;0;0;0
101.9744;0.494129;3.9276;0.0417501;0;0;0;0
102.4741;0.495776;3.9178;0.0421012;0;0;0;0
102.9743;0.49604;3.9535;0.0419916;0;0;0;0
103.4743;0.507458;3.9421;0.0426335;0;0;0;0
103.9741;0.509627;3.9513;0.0430321;0;0;0;0
104.4741;0.510976;3.9437;0.04284566;0;0;0;0
104.9743;0.511877;3.9519;0.0433468;0;0;0;0
105.4743;0.514759;3.9633;0.043092;0;0;0;0
105.9743;0.51646;3.9418;0.0436357;0;0;0;0
106.4743;0.523071;3.968;0.0442527;0;0;0;0
106.9743;0.527934;4.0002;0.0445721;0;0;0;0
107.4743;0.529525;3.999;0.0454837;0;0;0;0
107.9742;0.532037;3.9727;0.0453335;0;0;0;0
108.474;0.53334;3.9667;0.0456338;0;0;0;0
108.9742;0.540767;3.9993;0.0457004;0;0;0;0
109.4742;0.543843;3.9908;0.0459306;0;0;0;0
109.9742;0.546026;3.9892;0.0462205;0;0;0;0
110.4742;0.547395;3.9983;0.0468052;0;0;0;0
110.9739;0.550685;4.0271;0.0468734;0;0;0;0
111.4739;0.552023;4.0157;0.04679157;0;0;0;0
111.9739;0.558326;4.029;0.046904;0;0;0;0
112.4741;0.563906;4.0028;0.0474083;0;0;0;0
112.9741;0.564754;3.9904;0.0481947;0;0;0;0
113.4741;0.566037;4.0394;0.0479497;0;0;0;0
113.9741;0.569556;4.0097;0.0478748;0;0;0;0
114.4741;0.576162;4.0514;0.048159;0;0;0;0
114.9741;0.577707;4.0391;0.0489194;0;0;0;0
115.4741;0.581296;4.0167;0.0491217;0;0;0;0
115.9738;0.584347;4.035;0.0492305;0;0;0;0
116.4741;0.585952;4.0495;0.0493784;0;0;0;0
116.974;0.593889;4.0268;0.0495025;0;0;0;0
117.4741;0.597655;4.0568;0.0503094;0;0;0;0
117.9738;0.598427;4.06;0.05072197;0;0;0;0
118.474;0.601351;4.0748;0.05028055;0;0;0;0
118.974;0.602999;4.0407;0.0503739;0;0;0;0
119.474;0.603087;4.0653;0.0512446;0;0;0;0
119.9738;0.61736;4.0565;0.05193996;0;0;0;0
120.474;0.616016;4.0865;0.0513396;0;0;0;0
120.974;0.617677;4.084;0.0519349;0;0;0;0
121.4737;0.618673;4.0574;0.0521247;0;0;0;0
121.974;0.622107;4.0856;0.0519806;0;0;0;0
122.474;0.629279;4.0773;0.0527263;0;0;0;0
122.9737;0.632069;4.0792;0.0524078;0;0;0;0
123.4739;0.633855;4.1137;0.052894;0;0;0;0
123.9739;0.635241;4.0957;0.0531514;0;0;0;0
124.4737;0.63668;4.0457;0.0539368;0;0;0;0
124.9739;0.643989;4.1029;0.0535458;0;0;0;0
125.4739;0.647268;4.1317;0.05417699;0;0;0;0
125.9736;0.650847;4.0938;0.0551154;0;0;0;0
126.4739;0.652847;4.1289;0.0546049;0;0;0;0
126.9736;0.655068;4.1298;0.0546809;0;0;0;0
127.4738;0.655485;4.109;0.0549497;0;0;0;0
127.9738;0.665858;4.0903;0.0557708;0;0;0;0
128.4738;0.667845;4.1311;0.0567263;0;0;0;0
128.9738;0.669269;4.1406;0.0562672;0;0;0;0
129.4736;0.670909;4.1573;0.0563972;0;0;0;0
129.9738;0.671943;4.1421;0.0567297;0;0;0;0
130.4735;0.680484;4.1257;0.0575577;0;0;0;0
130.9735;0.685221;4.1469;0.0577836;0;0;0;0
131.4738;0.686221;4.1557;0.0574161;0;0;0;0
131.9737;0.686314;4.1377;0.0575746;0;0;0;0
132.4737;0.691993;4.1535;0.0579572;0;0;0;0
132.9735;0.700865;4.1624;0.0586816;0;0;0;0
133.4735;0.700281;4.1478;0.0584845;0;0;0;0
133.9737;0.703056;4.1475;0.0595164;0;0;0;0
134.4737;0.705217;4.1579;0.0592354;0;0;0;0
134.9734;0.70761;4.1908;0.0594794;0;0;0;0
135.4734;0.715481;4.1848;0.0595282;0;0;0;0
135.9737;0.717716;4.15;0.0599589;0;0;0;0
136.4737;0.720149;4.1845;0.0601657;0;0;0;0
136.9737;0.723138;4.1753;0.0603405;0;0;0;0
137.4736;0.724391;4.162;0.06117909;0;0;0;0
137.9734;0.730038;4.1722;0.0615351;0;0;0;0
138.4736;0.733761;4.1974;0.0622821;0;0;0;0
138.9734;0.737001;4.1759;0.06155696;0;0;0;0
139.4733;0.738635;4.2044;0.0626511;0;0;0;0
139.9736;0.742373;4.1984;0.0624079;0;0;0;0
140.4734;0.742242;4.1759;0.0628289;0;0;0;0
140.9736;0.750168;4.2129;0.0629362;0;0;0;0
141.4736;0.753496;4.2259;0.0630804;0;0;0;0
141.9735;0.755346;4.199;0.0635296;0;0;0;0
142.4733;0.757973;4.2183;0.06425;0;0;0;0
142.9735;0.759087;4.2234;0.0639234;0;0;0;0
143.4735;0.762585;4.2369;0.0651923;0;0;0;0
143.9736;0.771407;4.2398;0.0646685;0;0;0;0
144.4733;0.772442;4.2354;0.0646233;0;0;0;0
144.9735;0.773922;4.2091;0.0651421;0;0;0;0
145.4735;0.777331;4.2363;0.0654834;0;0;0;0
145.9734;0.783469;4.2385;0.0653462;0;0;0;0
146.4734;0.782466;4.2218;0.0659516;0;0;0;0
146.9734;0.789808;4.2502;0.0667253;0;0;0;0
147.4732;0.792076;4.2347;0.066874;0;0;0;0
147.9732;0.792546;4.236;0.0666886;0;0;0;0
148.4732;0.80112;4.2335;0.0674016;0;0;0;0
148.9734;0.804009;4.2584;0.0672096;0;0;0;0
149.4734;0.805893;4.2515;0.0673883;0;0;0;0
149.9734;0.807882;4.2527;0.0683026;0;0;0;0
150.4734;0.810758;4.2739;0.0680775;0;0;0;0
150.9734;0.812249;4.2764;0.0680958;0;0;0;0
151.4733;0.816065;4.2553;0.0688162;0;0;0;0
151.9734;0.818159;4.2629;0.0689779;0;0;0;0
152.4733;0.827174;4.2689;0.0700956;0;0;0;0
152.9731;0.827152;4.2787;0.0696593;0;0;0;0
153.4733;0.829764;4.2727;0.0701039;0;0;0;0
153.9731;0.834802;4.279;0.0697759;0;0;0;0
154.4731;0.839568;4.2881;0.0709243;0;0;0;0
154.9733;0.842784;4.2916;0.0715695;0;0;0;0
155.4733;0.843462;4.2587;0.071779;0;0;0;0
155.9732;0.845679;4.2704;0.0717823;0;0;0;0
156.4733;0.854214;4.2777;0.0719202;0;0;0;0
156.973;0.856381;4.2982;0.072422;0;0;0;0
157.473;0.859776;4.2603;0.0729368;0;0;0;0
157.973;0.860984;4.2768;0.0730496;0;0;0;0
158.473;0.859294;4.3115;0.0727292;0;0;0;0
158.9732;0.861876;4.3141;0.0737582;0;0;0;0
159.473;0.868925;4.2907;0.073929;0;0;0;0
159.9732;0.869097;4.3084;0.0740385;0;0;0;0
160.4732;0.874559;4.2866;0.0746999;0;0;0;0
160.9729;0.875445;4.284;0.0744679;0;0;0;0
161.4729;0.877402;4.3039;0.07470486;0;0;0;0
161.9731;0.880365;4.2973;0.0754602;0;0;0;0
162.4732;0.891662;4.2951;0.0758394;0;0;0;0
162.9729;0.891759;4.303;0.0754453;0;0;0;0
163.4729;0.891547;4.3141;0.07530789;0;0;0;0
163.9729;0.89419;4.3273;0.0759652;0;0;0;0
164.4731;0.90259;4.3223;0.0771545;0;0;0;0
164.9731;0.908019;4.3216;0.0769395;0;0;0;0
165.4728;0.906366;4.3412;0.0768982;0;0;0;0
165.9731;0.906211;4.3194;0.0770735;0;0;0;0
166.4728;0.91094;4.3327;0.0781492;0;0;0;0
166.9728;0.916704;4.3409;0.0782136;0;0;0;0
167.4728;0.922485;4.3321;0.0789614;0;0;0;0
167.9728;0.922957;4.3504;0.0790076;0;0;0;0
168.473;0.924856;4.3656;0.078694;0;0;0;0
168.9728;0.929166;4.3396;0.0793029;0;0;0;0
169.473;0.935525;4.3545;0.0797399;0;0;0;0
169.973;0.93598;4.3494;0.0806035;0;0;0;0
170.473;0.940186;4.3485;0.0805409;0;0;0;0
170.973;0.944092;4.328;0.08065955;0;0;0;0
171.4729;0.944938;4.333;0.0808622;0;0;0;0
171.9727;0.944175;4.364;0.0811684;0;0;0;0
172.4727;0.953145;4.3618;0.0815043;0;0;0;0
172.9729;0.957781;4.3889;0.082294;0;0;0;0
173.4727;0.958777;4.3434;0.0816886;0;0;0;0
173.9729;0.962699;4.3444;0.0828087;0;0;0;0
174.4727;0.964083;4.3292;0.082858;0;0;0;0
174.9726;0.97201;4.358;0.0830437;0;0;0;0
175.4729;0.974796;4.3621;0.0836072;0;0;0;0
175.9726;0.975469;4.3662;0.0839997;0;0;0;0
176.4726;0.977974;4.3874;0.0844954;0;0;0;0
176.9726;0.982577;4.3956;0.0845463;0;0;0;0
177.4726;0.986006;4.3852;0.0845807;0;0;0;0
177.9726;0.987786;4.3921;0.0849482;0;0;0;0
178.4726;0.991805;4.3776;0.085232;0;0;0;0
178.9726;0.993526;4.3921;0.0854582;0;0;0;0
179.4725;0.995323;4.4006;0.085127;0;0;0;0
179.9728;1.00396;4.4013;0.0862596;0;0;0;0
180.4725;1.00501;4.3848;0.0860073;0;0;0;0
180.9725;1.01086;4.4117;0.0869638;0;0;0;0
181.4725;1.01178;4.3937;0.0871389;0;0;0;0
181.9725;1.01441;4.3823;0.0872747;0;0;0;0
182.4727;1.02343;4.37;0.0884147;0;0;0;0
182.9725;1.02093;4.3981;0.0880485;0;0;0;0
183.4725;1.02613;4.4234;0.0880518;0;0;0;0
183.9727;1.02617;4.4117;0.0885144;0;0;0;0
184.4724;1.02828;4.3959;0.0884392;0;0;0;0
184.9727;1.0307;4.4196;0.089457;0;0;0;0
185.4727;1.03667;4.4243;0.0889131;0;0;0;0
185.9724;1.04346;4.4066;0.0891141;0;0;0;0
186.4726;1.04437;4.4013;0.0901377;0;0;0;0
186.9724;1.04581;4.4221;0.090513;0;0;0;0
187.4726;1.04872;4.4063;0.0908995;0;0;0;0
187.9726;1.04937;4.4294;0.09127119;0;0;0;0
188.4724;1.05817;4.4259;0.0914488;0;0;0;0
188.9723;1.06117;4.4316;0.092392;0;0;0;0
189.4726;1.06275;4.437;0.0922259;0;0;0;0
189.9726;1.06519;4.4316;0.0921086;0;0;0;0
190.4726;1.07094;4.4341;0.0930121;0;0;0;0
190.9726;1.0741;4.4316;0.0929926;0;0;0;0
191.4723;1.07889;4.4199;0.09411466;0;0;0;0
191.9725;1.07877;4.43;0.0940253;0;0;0;0
192.4725;1.08147;4.454;0.0936757;0;0;0;0
192.9725;1.08426;4.4291;0.0944283;0;0;0;0
193.4722;1.09391;4.43;0.0948945;0;0;0;0
193.9722;1.09554;4.4288;0.09440555;0;0;0;0
194.4722;1.09673;4.4468;0.095281;0;0;0;0
194.9725;1.09872;4.4522;0.0948214;0;0;0;0
195.4723;1.10174;4.4594;0.0959058;0;0;0;0
195.9724;1.10923;4.4717;0.0966388;0;0;0;0
196.4722;1.11201;4.4427;0.09652535;0;0;0;0
196.9722;1.11218;4.454;0.0969144;0;0;0;0
197.4722;1.11227;4.4556;0.09736;0;0;0;0
197.9724;1.11846;4.4487;0.0982248;0;0;0;0
198.4724;1.1248;4.4597;0.0985614;0;0;0;0
198.9722;1.12762;4.479;0.0989238;0;0;0;0
199.4722;1.13071;4.4834;0.0985921;0;0;0;0
199.9722;1.1335;4.4465;0.0989982;0;0;0;0
200.4724;1.13349;4.4743;0.0995948;0;0;0;0
200.9723;1.14274;4.48;0.100021;0;0;0;0
201.4721;1.1424;4.4594;0.100207;0;0;0;0
201.9723;1.1474;4.4825;0.100501;0;0;0;0
202.4721;1.14865;4.5059;0.101676;0;0;0;0
202.9723;1.15168;4.467;0.101015;0;0;0;0
203.4723;1.15442;4.4834;0.101863;0;0;0;0
203.9723;1.16265;4.4942;0.101934;0;0;0;0
204.4723;1.16542;4.4711;0.102175;0;0;0;0
204.972;1.16401;4.4755;0.1028547;0;0;0;0
205.4722;1.16733;4.4945;0.102473;0;0;0;0
205.972;1.17081;4.4926;0.103549;0;0;0;0
206.4722;1.17384;4.4683;0.103631;0;0;0;0
206.9722;1.18013;4.4819;0.104529;0;0;0;0
207.4722;1.18035;4.4939;0.104476;0;0;0;0
207.9722;1.1847;4.4762;0.104764;0;0;0;0
208.4719;1.1876;4.4787;0.105283;0;0;0;0
208.9722;1.19354;4.4714;0.105682;0;0;0;0
209.4722;1.19939;4.4882;0.106019;0;0;0;0
209.9719;1.19937;4.5062;0.106377;0;0;0;0
210.4721;1.20208;4.4999;0.10707;0;0;0;0
210.9721;1.20364;4.4781;0.106552;0;0;0;0
211.4721;1.20933;4.5087;0.107457;0;0;0;0
211.9721;1.21281;4.4954;0.107271;0;0;0;0
212.4721;1.21702;4.4904;0.107661;0;0;0;0
212.9721;1.21843;4.5157;0.108172;0;0;0;0
213.4719;1.22013;4.5087;0.108358;0;0;0;0
213.9721;1.22243;4.4986;0.109618;0;0;0;0
214.4721;1.22626;4.5116;0.109511;0;0;0;0
214.9721;1.23158;4.5353;0.109344;0;0;0;0
215.4721;1.23646;4.5359;0.110341;0;0;0;0
215.9718;1.23793;4.5147;0.110678;0;0;0;0
216.4718;1.23934;4.5289;0.110881;0;0;0;0
216.972;1.24781;4.5429;0.111497;0;0;0;0
217.472;1.24878;4.5397;0.111497;0;0;0;0
217.9717;1.25318;4.4989;0.112103;0;0;0;0
218.472;1.25501;4.5125;0.11271;0;0;0;0
218.972;1.25688;4.5252;0.113359;0;0;0;0
219.4717;1.25922;4.5011;0.113625;0;0;0;0
219.972;1.26809;4.5141;0.113335;0;0;0;0
220.4719;1.27157;4.5271;0.114237;0;0;0;0
220.9717;1.27372;4.5545;0.114901;0;0;0;0
221.4717;1.27227;4.5283;0.115246;0;0;0;0
221.9717;1.27452;4.5239;0.114971;0;0;0;0
222.4719;1.28428;4.5368;0.115814;0;0;0;0
222.9719;1.28556;4.5037;0.115434;0;0;0;0
223.4719;1.28967;4.5381;0.116392;0;0;0;0
223.9719;1.29146;4.5346;0.116911;0;0;0;0
224.4718;1.29125;4.5441;0.117446;0;0;0;0
224.9717;1.29417;4.5185;0.118059;0;0;0;0
225.4716;1.30528;4.5508;0.117797;0;0;0;0
225.9716;1.30557;4.5653;0.118299;0;0;0;0
226.4716;1.30639;4.5489;0.118329;0;0;0;0
226.9718;1.31063;4.5264;0.118829;0;0;0;0
227.4718;1.31842;4.5343;0.119726;0;0;0;0
227.9716;1.3206;4.5637;0.119985;0;0;0;0
228.4715;1.32243;4.5628;0.120315;0;0;0;0
228.9715;1.3241;4.5248;0.120253;0;0;0;0
229.4715;1.32747;4.552;0.121373;0;0;0;0
229.9715;1.32845;4.5318;0.12109;0;0;0;0
230.4715;1.33542;4.5719;0.121587;0;0;0;0
230.9717;1.33964;4.5545;0.122845;0;0;0;0
231.4715;1.34144;4.5305;0.122823;0;0;0;0
231.9715;1.34223;4.5596;0.122635;0;0;0;0
232.4715;1.35016;4.5438;0.123779;0;0;0;0
232.9714;1.35306;4.5808;0.123738;0;0;0;0
233.4717;1.35632;4.5523;0.12418;0;0;0;0
233.9718;1.35861;4.5681;0.125156;0;0;0;0
234.4717;1.35986;4.547;0.125107;0;0;0;0
234.9717;1.36304;4.5782;0.125398;0;0;0;0
235.4716;1.36784;4.5877;0.126719;0;0;0;0
235.9716;1.37425;4.5675;0.125665;0;0;0;0
236.4716;1.37489;4.5479;0.127233;0;0;0;0
236.9716;1.37688;4.5994;0.127106;0;0;0;0
237.4716;1.37964;4.5523;0.128404;0;0;0;0
237.9713;1.38435;4.5577;0.128594;0;0;0;0
238.4713;1.3928;4.5786;0.128655;0;0;0;0
238.9716;1.39469;4.5444;0.129393;0;0;0;0
239.4713;1.39326;4.5773;0.129162;0;0;0;0
239.9716;1.39587;4.5792;0.129597;0;0;0;0
240.4713;1.40314;4.5631;0.130453;0;0;0;0
240.9715;1.40718;4.5906;0.130991;0;0;0;0
241.4713;1.40926;4.5858;0.131331;0;0;0;0
241.9713;1.41219;4.5944;0.131295;0;0;0;0
242.4715;1.41249;4.5694;0.132215;0;0;0;0
242.9712;1.41312;4.595;0.13216;0;0;0;0
243.4715;1.42295;4.5865;0.132902;0;0;0;0
243.9712;1.426;4.5593;0.134078;0;0;0;0
244.4715;1.42751;4.5906;0.133913;0;0;0;0
244.9712;1.43038;4.6019;0.134077;0;0;0;0
245.4712;1.43202;4.5726;0.135317;0;0;0;0
245.9712;1.43538;4.5982;0.135879;0;0;0;0
246.4712;1.44035;4.5634;0.135367;0;0;0;0
246.9714;1.44511;4.5868;0.13637;0;0;0;0
247.4712;1.4472;4.5915;0.136676;0;0;0;0
247.9714;1.44828;4.5798;0.137369;0;0;0;0
248.4712;1.45013;4.6225;0.137628;0;0;0;0
248.9714;1.46229;4.5947;0.1382;0;0;0;0
249.4714;1.4606;4.5931;0.138548;0;0;0;0
249.9714;1.4629;4.6026;0.139078;0;0;0;0
250.4713;1.46515;4.5808;0.139385;0;0;0;0
250.9711;1.47364;4.5997;0.139472;0;0;0;0
251.4711;1.47353;4.6241;0.140055;0;0;0;0
251.9711;1.47882;4.5915;0.140577;0;0;0;0
252.4713;1.48119;4.5865;0.141865;0;0;0;0
252.9713;1.48273;4.6054;0.141245;0;0;0;0
253.4713;1.48468;4.6092;0.142418;0;0;0;0
253.9713;1.49408;4.6086;0.142744;0;0;0;0
254.4712;1.49301;4.5997;0.143028;0;0;0;0
254.971;1.49811;4.6266;0.144207;0;0;0;0
255.471;1.49921;4.6095;0.144482;0;0;0;0
255.971;1.50177;4.6184;0.145485;0;0;0;0
256.4712;1.50293;4.6187;0.145261;0;0;0;0
256.971;1.5132;4.6171;0.145568;0;0;0;0
257.4712;1.51547;4.6111;0.147109;0;0;0;0
257.9712;1.51732;4.6256;0.147111;0;0;0;0
258.4712;1.5197;4.6029;0.148015;0;0;0;0
258.9709;1.51939;4.6136;0.14783;0;0;0;0
259.4712;1.52704;4.6247;0.148241;0;0;0;0
259.9709;1.53161;4.6399;0.149412;0;0;0;0
260.4711;1.53298;4.6275;0.149944;0;0;0;0
260.9711;1.53676;4.6196;0.15047;0;0;0;0
261.4709;1.53838;4.608;0.150488;0;0;0;0
261.9711;1.54382;4.6019;0.150943;0;0;0;0
262.4709;1.55059;4.589;0.151602;0;0;0;0
262.9708;1.54963;4.5694;0.152365;0;0;0;0
263.4708;1.55283;4.6181;0.153196;0;0;0;0
263.9711;1.5511;4.6415;0.152825;0;0;0;0
264.471;1.5559;4.6193;0.153604;0;0;0;0
264.9711;1.55666;4.6456;0.153608;0;0;0;0
265.471;1.56841;4.5953;0.1541;0;0;0;0
265.9708;1.56906;4.625;0.154816;0;0;0;0
266.471;1.57311;4.6095;0.156382;0;0;0;0
266.971;1.58015;4.6516;0.156011;0;0;0;0
267.4708;1.58296;4.6354;0.157765;0;0;0;0
267.971;1.58288;4.6241;0.157103;0;0;0;0
268.4707;1.58735;4.6348;0.159641;0;0;0;0
268.971;1.58748;4.6595;0.159592;0;0;0;0
269.4707;1.59093;4.6124;0.160284;0;0;0;0
269.9709;1.5996;4.625;0.160202;0;0;0;0
270.4709;1.5984;4.6535;0.162022;0;0;0;0
270.9709;1.60359;4.6266;0.159819;0;0;0;0
271.4707;1.60534;4.6291;0.162145;0;0;0;0
271.9706;1.60796;4.6234;0.16231;0;0;0;0
272.4707;1.61679;4.638;0.163906;0;0;0;0
272.9706;1.61668;4.6595;0.164023;0;0;0;0
273.4707;1.62171;4.6317;0.163856;0;0;0;0
273.9709;1.62383;4.6462;0.164782;0;0;0;0
274.4706;1.62476;4.638;0.165991;0;0;0;0
274.9708;1.62951;4.6465;0.166863;0;0;0;0
275.4706;1.63306;4.6708;0.166888;0;0;0;0
275.9708;1.63783;4.6396;0.16822;0;0;0;0
276.4708;1.6405;4.6402;0.169664;0;0;0;0
276.9708;1.64061;4.6642;0.169306;0;0;0;0
277.4705;1.64278;4.6215;0.170488;0;0;0;0
277.9706;1.65324;4.6487;0.16997;0;0;0;0
278.4708;1.65332;4.649;0.170531;0;0;0;0
278.9705;1.65675;4.6377;0.171426;0;0;0;0
279.4707;1.6596;4.6468;0.172409;0;0;0;0
279.9708;1.66057;4.6342;0.173023;0;0;0;0
280.4705;1.66779;4.5982;0.17244;0;0;0;0
280.9707;1.67131;4.6626;0.173868;0;0;0;0
281.4705;1.672;4.6696;0.173294;0;0;0;0
281.9704;1.6741;4.65;0.174838;0;0;0;0
282.4707;1.67611;4.6636;0.175101;0;0;0;0
282.9707;1.68569;4.6579;0.175811;0;0;0;0
283.4706;1.68837;4.6326;0.176586;0;0;0;0
283.9707;1.684;4.6702;0.176497;0;0;0;0
284.4706;1.69397;4.6696;0.177527;0;0;0;0
284.9704;1.69569;4.6415;0.178003;0;0;0;0
285.4706;1.70016;4.6266;0.178814;0;0;0;0
285.9704;1.70528;4.6731;0.179105;0;0;0;0
286.4704;1.70924;4.626;0.180169;0;0;0;0
286.9703;1.70254;4.6238;0.179378;0;0;0;0
287.4703;1.71123;4.6528;0.180239;0;0;0;0
287.9706;1.70494;4.6718;0.181095;0;0;0;0
288.4703;1.723;4.6731;0.181151;0;0;0;0
288.9706;1.72418;4.6724;0.181543;0;0;0;0
289.4708;1.72647;4.637;0.182563;0;0;0;0
289.9703;1.72892;4.6566;0.183492;0;0;0;0
290.4705;1.72882;4.6674;0.184486;0;0;0;0
290.9703;1.73761;4.6696;0.184565;0;0;0;0
291.4705;1.73616;4.6459;0.184568;0;0;0;0
291.9705;1.73754;4.6408;0.185651;0;0;0;0
292.4705;1.74503;4.6566;0.186485;0;0;0;0
292.9705;1.74708;4.6405;0.18676;0;0;0;0
293.4702;1.75043;4.6313;0.187571;0;0;0;0
293.9704;1.7588;4.6803;0.187573;0;0;0;0
294.4704;1.7545;4.6519;0.18874;0;0;0;0
294.9704;1.76262;4.6433;0.188969;0;0;0;0
295.4704;1.76517;4.6569;0.189288;0;0;0;0
295.9704;1.76828;4.6519;0.190808;0;0;0;0
296.4704;1.77481;4.6787;0.191561;0;0;0;0
296.9701;1.77766;4.6373;0.191929;0;0;0;0
297.4704;1.77898;4.6617;0.192172;0;0;0;0
297.9704;1.7815;4.644;0.192842;0;0;0;0
298.4703;1.78345;4.6664;0.194037;0;0;0;0
298.9703;1.78323;4.6633;0.194521;0;0;0;0
299.4701;1.79565;4.6494;0.195877;0;0;0;0
299.9703;1.7946;4.6471;0.195752;0;0;0;0
300.4703;1.79114;4.6563;0.197031;0;0;0;0
300.9701;1.79989;4.6522;0.197314;0;0;0;0
301.4701;1.80292;4.6841;0.197405;0;0;0;0
301.97;1.80644;4.6677;0.197084;0;0;0;0
302.4703;1.81411;4.6828;0.199476;0;0;0;0
302.9702;1.81551;4.6569;0.199976;0;0;0;0
303.4702;1.8168;4.6699;0.200275;0;0;0;0
303.9702;1.82328;4.6102;0.201167;0;0;0;0
304.4702;1.82556;4.6623;0.202734;0;0;0;0
304.9702;1.83149;4.6588;0.203275;0;0;0;0
305.4702;1.83129;4.6712;0.203414;0;0;0;0
305.9699;1.83414;4.6452;0.204725;0;0;0;0
306.4702;1.83651;4.6854;0.207567;0;0;0;0
306.9702;1.84087;4.681;0.20641;0;0;0;0
307.4702;1.84643;4.667;0.207498;0;0;0;0
307.9699;1.84449;4.6718;0.209521;0;0;0;0
308.4702;1.84935;4.6547;0.211325;0;0;0;0
308.9701;1.85416;4.6484;0.21076;0;0;0;0
309.4701;1.85862;4.6617;0.211344;0;0;0;0
309.9701;1.86294;4.6648;0.213203;0;0;0;0
310.4701;1.86508;4.6601;0.213076;0;0;0;0
310.9699;1.86798;4.6475;0.213786;0;0;0;0
311.4701;1.87175;4.6566;0.216066;0;0;0;0
311.9701;1.87099;4.6332;0.216456;0;0;0;0
312.47;1.87834;4.6582;0.218091;0;0;0;0
312.9701;1.88431;4.6535;0.219564;0;0;0;0
313.47;1.88519;4.6399;0.219723;0;0;0;0
313.9701;1.88626;4.686;0.22045;0;0;0;0
314.4698;1.88922;4.6636;0.222213;0;0;0;0
314.97;1.89481;4.6778;0.223051;0;0;0;0
315.47;1.90194;4.6471;0.224577;0;0;0;0
315.97;1.90307;4.667;0.225451;0;0;0;0
316.47;1.90382;4.6633;0.22636;0;0;0;0
316.97;1.90668;4.6494;0.22721;0;0;0;0
317.47;1.90747;4.6715;0.228813;0;0;0;0
317.9697;1.91953;4.6392;0.229394;0;0;0;0
318.4699;1.92034;4.6497;0.229464;0;0;0;0
318.9699;1.92206;4.6683;0.230708;0;0;0;0
319.4697;1.92252;4.6629;0.231788;0;0;0;0
319.9699;1.93079;4.6402;0.233623;0;0;0;0
320.4699;1.93206;4.6509;0.232948;0;0;0;0
320.9699;1.93124;4.6566;0.233973;0;0;0;0
321.4697;1.93897;4.6449;0.23591;0;0;0;0
321.9699;1.94042;4.6415;0.236996;0;0;0;0
322.4699;1.94312;4.6389;0.238506;0;0;0;0
322.9699;1.95028;4.667;0.239596;0;0;0;0
323.4698;1.95537;4.6124;0.240164;0;0;0;0
323.9696;1.95767;4.6452;0.240654;0;0;0;0
324.4698;1.95828;4.6566;0.243587;0;0;0;0
324.9698;1.95929;4.6506;0.244852;0;0;0;0
325.4695;1.96934;4.6582;0.245829;0;0;0;0
325.9698;1.97021;4.662;0.247334;0;0;0;0
326.4695;1.97393;4.6579;0.248151;0;0;0;0
326.9698;1.97477;4.6307;0.249112;0;0;0;0
327.4697;1.97419;4.6547;0.249606;0;0;0;0
327.9698;1.9814;4.6535;0.252136;0;0;0;0
328.4695;1.98556;4.6279;0.251979;0;0;0;0
328.9697;1.99098;4.6737;0.254796;0;0;0;0
329.4697;1.98589;4.6642;0.257026;0;0;0;0
329.9697;1.99317;4.6433;0.257475;0;0;0;0
330.4697;1.9958;4.6421;0.25772;0;0;0;0
330.9697;2.00408;4.6449;0.259595;0;0;0;0
331.4697;2.00748;4.6307;0.262142;0;0;0;0
331.9694;2.01037;4.6452;0.264324;0;0;0;0
332.4697;2.00964;4.6636;0.266245;0;0;0;0
332.9696;2.01805;4.6367;0.267984;0;0;0;0
333.4696;2.02198;4.6317;0.269235;0;0;0;0
333.9694;2.02469;4.6462;0.270978;0;0;0;0
334.4694;2.02603;4.6626;0.273356;0;0;0;0
334.9696;2.02876;4.6424;0.274884;0;0;0;0
335.4694;2.03068;4.6263;0.277421;0;0;0;0
335.9694;2.03874;4.6408;0.28017;0;0;0;0
336.4696;2.03844;4.6269;0.281253;0;0;0;0
336.9696;2.04276;4.6405;0.281608;0;0;0;0
337.4694;2.04249;4.6329;0.280564;0;0;0;0
337.9695;2.04676;4.6509;0.282521;0;0;0;0
338.4695;2.05468;4.6471;0.283799;0;0;0;0
338.9695;2.05757;4.6114;0.286338;0;0;0;0
339.4695;2.06242;4.6541;0.28914;0;0;0;0
339.9695;2.057;4.632;0.290607;0;0;0;0
340.4692;2.05976;4.6168;0.29385;0;0;0;0
340.9695;2.06835;4.6184;0.295125;0;0;0;0
341.4692;2.0757;4.6136;0.297046;0;0;0;0
341.9693;2.07739;4.6383;0.298075;0;0;0;0
342.4694;2.08154;4.6238;0.299901;0;0;0;0
342.9695;2.08251;4.5855;0.30222;0;0;0;0
343.4692;2.0884;4.6111;0.303055;0;0;0;0
343.9694;2.09104;4.5963;0.303758;0;0;0;0
344.4694;2.08958;4.6184;0.306861;0;0;0;0
344.9691;2.09739;4.6083;0.306789;0;0;0;0
345.4694;2.09815;4.613;0.308679;0;0;0;0
345.9694;2.10147;4.5858;0.309646;0;0;0;0
346.4694;2.10803;4.6127;0.309903;0;0;0;0
346.9694;2.11183;4.6073;0.312442;0;0;0;0
347.4692;2.11486;4.6117;0.316411;0;0;0;0
347.9691;2.1147;4.6187;0.318511;0;0;0;0
348.4691;2.11877;4.5615;0.318991;0;0;0;0
348.9691;2.11944;4.5808;0.3204;0;0;0;0
349.4691;2.12492;4.5931;0.324335;0;0;0;0
349.9691;2.1271;4.5843;0.329636;0;0;0;0
350.469;2.12998;4.5707;0.329683;0;0;0;0
350.9691;2.13521;4.5599;0.331187;0;0;0;0
351.4693;2.13841;4.57;0.332885;0;0;0;0
351.9691;2.14793;4.5662;0.334681;0;0;0;0
352.4692;2.14824;4.5738;0.335883;0;0;0;0
352.969;2.14772;4.5782;0.341839;0;0;0;0
353.4692;2.14615;4.5675;0.341375;0;0;0;0
353.9692;2.15672;4.5476;0.344783;0;0;0;0
354.4689;2.16353;4.5697;0.344421;0;0;0;0
354.9692;2.16921;4.5485;0.351713;0;0;0;0
355.4692;2.16716;4.5169;0.352323;0;0;0;0
355.969;2.17038;4.5517;0.353013;0;0;0;0
356.4692;2.18302;4.546;0.354566;0;0;0;0
356.969;2.18076;4.5444;0.357049;0;0;0;0
357.4689;2.18334;4.5356;0.370334;0;0;0;0
357.9691;2.18665;4.54;0.372873;0;0;0;0
358.4691;2.18612;4.515;0.375683;0;0;0;0
358.9692;2.18986;4.5141;0.379319;0;0;0;0
359.4691;2.1899;4.5252;0.38007;0;0;0;0
359.9689;2.20135;4.4847;0.381791;0;0;0;0