File: lab_data/DP600_results/DATA/CH_45_1.csv
Time[s],Displacement[mm],Force[kN],AxStrain_1,AxStrain_2,Thickness[mm],OuterWidth[mm],Diameter[mm]
0.64,0,-0.021846,0,0,1.5293,20,5.038
1.64,-6.3e-05,-0.021129,0.00014299,9.3996e-05,0,0,0
2.64,0.00036,0.022295,0.00027196,0.00012899,0,0,0
3.64,0.000359,0.087432,0.00015199,7.9997e-05,0,0,0
4.64,0.000535,0.14415,0.00027496,-0.00011601,0,0,0
5.64,0.000621,0.18658,0.00033494,-7e-06,0,0,0
6.64,0.000555,0.22043,0.00039592,-0.00011501,0,0,0
7.64,0.000562,0.25343,0.00026696,0.00010499,0,0,0
8.64,0.00051,0.28686,0.00016899,0.00010899,0,0,0
9.64,0.000622,0.32486,0.00015199,6.1998e-05,0,0,0
10.64,0.000853,0.36444,0.00012399,7.7997e-05,0,0,0
11.64,0.001138,0.40129,3.6999e-05,0.00014899,0,0,0
12.64,0.001141,0.43815,0.00010699,0.00025997,0,0,0
13.64,0.001104,0.47615,5.9998e-05,0.00018398,0,0,0
14.64,0.001258,0.51215,0.00010899,0.00023197,0,0,0
15.64,0.001311,0.55115,2e-05,0.00032795,0,0,0
16.64,0.001351,0.58872,0.00020498,0.00028096,0,0,0
17.64,0.001546,0.62429,0.00019898,-3e-06,0,0,0
18.64,0.00148,0.66329,0.00035794,0.00012599,0,0,0
19.64,0.001503,0.70472,0.00031095,5.5998e-05,0,0,0
20.64,0.001721,0.74386,0.00019898,8.8996e-05,0,0,0
21.64,0.001824,0.78315,0.00020498,0.00013599,0,0,0
22.64,0.001897,0.82415,0.00037693,0.00027796,0,0,0
23.64,0.002241,0.86329,0.00019198,0.00026197,0,0,0
24.64,0.002251,0.90643,0.00017898,0.00030795,0,0,0
25.64,0.002533,0.94843,0.00036693,0.00022797,0,0,0
26.64,0.002814,0.98729,0.00041991,0.00024197,0,0,0
27.64,0.002496,1.0286,0.00036393,0.00014199,0,0,0
28.64,0.002648,1.072,0.00034394,3.5999e-05,0,0,0
29.64,0.002579,1.1123,0.00041092,0.00015899,0,0,0
30.64,0.002735,1.1521,0.0004499,0.00023797,0,0,0
31.64,0.002893,1.1941,0.00051287,0.00017498,0,0,0
32.64,0.003135,1.234,0.0004439,0.00036093,0,0,0
33.64,0.003347,1.2756,0.00048288,0.00049288,0,0,0
34.64,0.003705,1.3157,0.00054985,0.00054585,0,0,0
35.64,0.004158,1.3586,0.00039692,0.00047689,0,0,0
36.64,0.004036,1.3984,0.00065179,0.0004399,0,0,0
37.64,0.003969,1.4423,0.00058283,0.00025497,0,0,0
38.64,0.003863,1.4839,0.00056584,0.00031095,0,0,0
39.64,0.00385,1.5247,0.00068477,0.00032395,0,0,0
40.64,0.00387,1.5657,0.00072474,0.00026496,0,0,0
41.64,0.004112,1.605,0.0004469,0.00048988,0,0,0
42.64,0.004155,1.6463,0.00066478,0.00024797,0,0,0
43.64,0.004535,1.6901,0.00066878,0.00033095,0,0,0
44.64,0.005006,1.7286,0.00056584,0.00032395,0,0,0
45.64,0.005449,1.7681,0.00057883,0.00038393,0,0,0
46.64,0.005618,1.8103,0.00047689,0.00034794,0,0,0
47.64,0.005211,1.8516,0.00065878,0.00035394,0,0,0
48.64,0.005191,1.8914,0.00062181,0.00028796,0,0,0
49.64,0.005006,1.9324,0.00051986,0.00046689,0,0,0
50.64,0.005069,1.9717,0.00050687,0.00039392,0,0,0
51.64,0.005267,2.0123,0.00070775,0.00049288,0,0,0
52.64,0.005353,2.0551,0.00066878,0.00050987,0,0,0
53.64,0.00578,2.0923,0.00058883,0.00055884,0,0,0
54.64,0.006108,2.1319,0.00070475,0.0004569,0,0,0
55.64,0.006634,2.1736,0.00064179,0.00070175,0,0,0
56.64,0.006807,2.2139,0.00073473,0.00058283,0,0,0
57.64,0.007038,2.2541,0.00067477,0.00058583,0,0,0
58.64,0.006754,2.2954,0.00073173,0.00075072,0,0,0
59.64,0.006386,2.3343,0.00071175,0.00051587,0,0,0
60.64,0.006459,2.3753,0.0006318,0.00047689,0,0,0
61.64,0.006389,2.4181,0.00073473,0.00046989,0,0,0
62.64,0.006572,2.4556,0.00068876,0.00061281,0,0,0
63.64,0.006906,2.4947,0.00065578,0.00061581,0,0,0
64.64,0.007518,2.5366,0.0007747,0.00067877,0,0,0
65.64,0.008051,2.5776,0.00085064,0.00083365,0,0,0
66.64,0.008237,2.6167,0.00081767,0.00069476,0,0,0
67.64,0.00831,2.6574,0.00065578,0.00087362,0,0,0
68.64,0.007992,2.6967,0.00068477,0.00078469,0,0,0
69.64,0.007919,2.7377,0.0007707,0.0006288,0,0,0
70.64,0.007846,2.7804,0.00078769,0.00056584,0,0,0
71.64,0.00776,2.8186,0.00081767,0.00079468,0,0,0
72.64,0.007936,2.8581,0.0010225,0.00070175,0,0,0
73.64,0.008187,2.8996,0.00096653,0.00071175,0,0,0
74.64,0.008803,2.9399,0.00075771,0.00068477,0,0,0
75.64,0.009306,2.9791,0.00081367,0.00082066,0,0,0
76.64,0.009703,3.0199,0.00090359,0.00073173,0,0,0
77.64,0.010127,3.058,0.0010195,0.0011543,0,0,0
78.64,0.010051,3.0983,0.00095954,0.00082766,0,0,0
79.64,0.00973,3.1411,0.00098651,0.00088661,0,0,0
80.64,0.009127,3.1779,0.0011154,0.0008996,0,0,0
81.64,0.009243,3.2171,0.00087662,0.00083365,0,0,0
82.64,0.009442,3.2586,0.00080068,0.00096254,0,0,0
83.64,0.009508,3.2986,0.0010095,0.0010684,0,0,0
84.64,0.01015,3.3371,0.0010195,0.0010125,0,0,0
85.64,0.010812,3.3774,0.0010824,0.0010624,0,0,0
86.64,0.011571,3.416,0.0013701,0.0010914,0,0,0
87.64,0.011627,3.4557,0.0012972,0.0011643,0,0,0
88.64,0.011458,3.4971,0.0011214,0.0011054,0,0,0
89.64,0.011269,3.5336,0.0012702,0.00098651,0,0,0
90.64,0.010852,3.5721,0.0011913,0.00092957,0,0,0
91.64,0.010468,3.6129,0.0012043,0.00087362,0,0,0
92.64,0.010607,3.6526,0.0013002,0.0010425,0,0,0
93.64,0.010892,3.6911,0.0012672,0.00092957,0,0,0
94.64,0.011412,3.7311,0.0011613,0.0010355,0,0,0
95.64,0.012133,3.7687,0.0012772,0.0010095,0,0,0
96.64,0.012766,3.8077,0.0013401,0.0010884,0,0,0
97.64,0.013146,3.8494,0.0015089,0.001406,0,0,0
98.64,0.01311,3.8866,0.0013401,0.0010554,0,0,0
99.64,0.012726,3.9244,0.0013661,0.00091658,0,0,0
100.64,0.012395,3.9653,0.0012073,0.00095954,0,0,0
101.64,0.01218,4.0046,0.0013701,0.0009995,0,0,0
102.64,0.012233,4.0427,0.0012213,0.0010255,0,0,0
103.64,0.012378,4.0831,0.0013701,0.00098651,0,0,0
104.64,0.012951,4.1207,0.0013271,0.00086662,0,0,0
105.64,0.013795,4.16,0.0011154,0.0012772,0,0,0
106.64,0.014474,4.2014,0.0013041,0.0013531,0,0,0
107.64,0.014818,4.2376,0.001432,0.0015188,0,0,0
108.64,0.015037,4.2761,0.0014889,0.001389,0,0,0
109.64,0.014702,4.3169,0.0015218,0.0012572,0,0,0
110.64,0.01407,4.3559,0.0016536,0.0013561,0,0,0
111.64,0.013905,4.3941,0.0014559,0.0010584,0,0,0
112.64,0.013739,4.4334,0.0014559,0.0012902,0,0,0
113.64,0.013871,4.4707,0.0014889,0.0012572,0,0,0
114.64,0.014567,4.51,0.0014889,0.0013231,0,0,0
115.64,0.015427,4.5507,0.0012902,0.0012902,0,0,0
116.64,0.016222,4.5866,0.0014559,0.001423,0,0,0
117.64,0.016685,4.6244,0.0015548,0.0014889,0,0,0
118.64,0.016719,4.6646,0.0016866,0.0015548,0,0,0
119.64,0.016421,4.7036,0.0016536,0.0015548,0,0,0
120.64,0.015924,4.7419,0.0015877,0.0014559,0,0,0
121.64,0.015527,4.7804,0.0015548,0.001389,0,0,0
122.64,0.015494,4.817,0.0014889,0.001423,0,0,0
123.64,0.015692,4.8554,0.0014889,0.0013231,0,0,0
124.64,0.016255,4.8954,0.0012902,0.0014889,0,0,0
125.64,0.017017,4.9316,0.0016207,0.0015218,0,0,0
126.64,0.017811,4.9691,0.0015548,0.0017195,0,0,0
127.64,0.018275,5.0093,0.0018193,0.0018523,0,0,0
128.64,0.018407,5.0483,0.0018523,0.002017,0,0,0
129.64,0.01844,5.0854,0.0017205,0.0018193,0,0,0
130.64,0.01791,5.1241,0.0016207,0.0017535,0,0,0
131.64,0.017513,5.1607,0.0017535,0.0017864,0,0,0
132.64,0.017248,5.1994,0.0016536,0.0015548,0,0,0
133.64,0.017215,5.2391,0.0018523,0.0017535,0,0,0
134.64,0.017745,5.2746,0.0017205,0.0018193,0,0,0
135.64,0.018473,5.3124,0.0016866,0.0019511,0,0,0
136.64,0.019301,5.3523,0.0018852,0.0018852,0,0,0
137.64,0.019764,5.3906,0.0018523,0.0021168,0,0,0
138.64,0.020228,5.4281,0.0022155,0.0022814,0,0,0
139.64,0.020095,5.4664,0.0021497,0.0022155,0,0,0
140.64,0.019963,5.5037,0.0021168,0.0019182,0,0,0
141.64,0.0194,5.542,0.0018523,0.0018193,0,0,0
142.64,0.019301,5.5824,0.0021497,0.001984,0,0,0
143.64,0.019102,5.6186,0.0018523,0.0019182,0,0,0
144.64,0.019533,5.6561,0.0018523,0.0019511,0,0,0
145.64,0.020394,5.6956,0.002018,0.0019511,0,0,0
146.64,0.021122,5.7343,0.0021826,0.0021168,0,0,0
147.64,0.021718,5.7719,0.0021826,0.0023143,0,0,0
148.64,0.022115,5.8104,0.0022814,0.0025787,0,0,0
149.64,0.022248,5.8477,0.0023812,0.0025128,0,0,0
150.64,0.022148,5.8864,0.0024141,0.0023812,0,0,0
151.64,0.021784,5.9271,0.0021826,0.0021497,0,0,0
152.64,0.021387,5.9633,0.0021168,0.0021168,0,0,0
153.64,0.021188,6.0004,0.001984,0.0021168,0,0,0
154.64,0.021652,6.0406,0.0021168,0.0021826,0,0,0
155.64,0.022479,6.0793,0.0020838,0.0022814,0,0,0
156.64,0.023175,6.1164,0.0021826,0.0025458,0,0,0
157.64,0.023903,6.1551,0.0022495,0.0027442,0,0,0
158.64,0.024168,6.1914,0.0025458,0.0030414,0,0,0
159.64,0.024168,6.2297,0.0026455,0.0031072,0,0,0
160.64,0.024333,6.2701,0.0025458,0.00281,0,0,0
161.64,0.024168,6.3049,0.0025458,0.0029088,0,0,0
162.64,0.023969,6.3424,0.0023482,0.0026455,0,0,0
163.64,0.023903,6.3826,0.0024799,0.0026455,0,0,0
164.64,0.024499,6.4209,0.0023812,0.0025458,0,0,0
165.64,0.024863,6.4584,0.0025128,0.002843,0,0,0
166.64,0.025624,6.4971,0.0025458,0.0028759,0,0,0
167.64,0.026287,6.5334,0.0027771,0.0032726,0,0,0
168.64,0.026584,6.5714,0.0029756,0.0035686,0,0,0
169.64,0.02675,6.6119,0.0031072,0.0036354,0,0,0
170.64,0.026717,6.6473,0.0029756,0.0034371,0,0,0
171.64,0.026882,6.6856,0.0029756,0.0033055,0,0,0
172.64,0.026849,6.7257,0.0029427,0.0029427,0,0,0
173.64,0.026816,6.7633,0.0029098,0.0031072,0,0,0
174.64,0.027048,6.8001,0.0027113,0.003173,0,0,0
175.64,0.027677,6.8381,0.0029756,0.003173,0,0,0
176.64,0.028339,6.8744,0.0030743,0.0034371,0,0,0
177.64,0.028836,6.9141,0.0031072,0.0037998,0,0,0
178.64,0.029233,6.9507,0.0032397,0.0041295,0,0,0
179.64,0.029564,6.9876,0.0035029,0.0042619,0,0,0
180.64,0.029663,7.0256,0.0036354,0.0040309,0,0,0
181.64,0.029829,7.0636,0.0035029,0.0037011,0,0,0
182.64,0.030193,7.1001,0.0036025,0.0037669,0,0,0
183.64,0.030392,7.1384,0.0034371,0.0036683,0,0,0
184.64,0.030557,7.1767,0.0034371,0.0034371,0,0,0
185.64,0.031286,7.2127,0.00347,0.0037998,0,0,0
186.64,0.031716,7.2521,0.0036683,0.0039323,0,0,0
187.64,0.032113,7.2884,0.0037011,0.0042948,0,0,0
188.64,0.032544,7.3249,0.0041962,0.0045586,0,0,0
189.64,0.032775,7.363,0.00446,0.0049537,0,0,0
190.64,0.032974,7.4,0.004459,0.00469,0,0,0
191.64,0.033504,7.4361,0.0040637,0.0043933,0,0,0
192.64,0.033802,7.4731,0.0040309,0.0043276,0,0,0
193.64,0.034431,7.5101,0.0038994,0.0041962,0,0,0
194.64,0.034696,7.5464,0.0039651,0.0044262,0,0,0
195.64,0.035192,7.5851,0.0040637,0.0044262,0,0,0
196.64,0.03559,7.6201,0.0040309,0.0049865,0,0,0
197.64,0.035789,7.656,0.0043933,0.005283,0,0,0
198.64,0.036054,7.6923,0.00469,0.0055794,0,0,0
199.64,0.036451,7.7286,0.0049209,0.0059413,0,0,0
200.64,0.036914,7.7646,0.0049537,0.0057435,0,0,0
201.64,0.03751,7.8009,0.0048224,0.0056122,0,0,0
202.64,0.038239,7.8371,0.0050194,0.005481,0,0,0
203.64,0.039,7.8714,0.0047567,0.0053158,0,0,0
204.64,0.039762,7.9069,0.0046571,0.0053158,0,0,0
205.64,0.040126,7.9417,0.0047895,0.0054153,0,0,0
206.64,0.040126,7.9789,0.005086,0.0058429,0,0,0
207.64,0.040523,8.0117,0.0052502,0.0063031,0,0,0
208.64,0.040788,8.0499,0.0057445,0.0067968,0,0,0
209.64,0.041417,8.0834,0.0063031,0.0072566,0,0,0
210.64,0.041814,8.1211,0.0063697,0.0072566,0,0,0
211.64,0.04294,8.1571,0.0061719,0.0069617,0,0,0
212.64,0.044032,8.1903,0.0058101,0.0066985,0,0,0
213.64,0.045357,8.2256,0.0058757,0.006633,0,0,0
214.64,0.046019,8.2624,0.0058757,0.0067313,0,0,0
215.64,0.046515,8.2973,0.0060407,0.0067641,0,0,0
216.64,0.046847,8.3319,0.0061719,0.0072248,0,0,0
217.64,0.04688,8.3669,0.006633,0.0077499,0,0,0
218.64,0.047178,8.4004,0.0069945,0.0083084,0,0,0
219.64,0.04784,8.4379,0.0074551,0.0089647,0,0,0
220.64,0.048767,8.4729,0.0076189,0.0089647,0,0,0
221.64,0.050025,8.5053,0.0074551,0.0086693,0,0,0
222.64,0.051647,8.5396,0.0075206,0.0082429,0,0,0
223.64,0.052905,8.5751,0.0071583,0.0080783,0,0,0
224.64,0.053766,8.6083,0.0070273,0.008111,0,0,0
225.64,0.054528,8.6411,0.0073569,0.0083084,0,0,0
226.64,0.054859,8.6751,0.0076189,0.0088666,0,0,0
227.64,0.055323,8.7074,0.0081447,0.0093254,0,0,0
228.64,0.055588,8.7424,0.0086703,0.010309,0,0,0
229.64,0.056449,8.7766,0.0091619,0.010571,0,0,0
230.64,0.057608,8.8073,0.0093918,0.010833,0,0,0
231.64,0.059065,8.8406,0.0093591,0.010768,0,0,0
232.64,0.060555,8.8751,0.0091946,0.010538,0,0,0
233.64,0.061482,8.9063,0.0090311,0.010145,0,0,0
234.64,0.062707,8.9379,0.0090311,0.010113,0,0,0
235.64,0.063733,8.9701,0.009261,0.01044,0,0,0
236.64,0.064561,9.0009,0.0095552,0.010997,0,0,0
237.64,0.065388,9.0344,0.010113,0.011816,0,0,0
238.64,0.066713,9.0664,0.010965,0.012535,0,0,0
239.64,0.06807,9.0953,0.011587,0.013254,0,0,0
240.64,0.069295,9.127,0.011685,0.013351,0,0,0
241.64,0.070222,9.1596,0.011946,0.01345,0,0,0
242.64,0.071182,9.1893,0.011685,0.013221,0,0,0
243.64,0.072341,9.2199,0.011685,0.013026,0,0,0
244.64,0.073136,9.2501,0.011358,0.012895,0,0,0
245.64,0.074493,9.2791,0.011456,0.012993,0,0,0
246.64,0.076049,9.3119,0.011947,0.013581,0,0,0
247.64,0.077738,9.3429,0.012406,0.014463,0,0,0
248.64,0.079856,9.371,0.013157,0.015049,0,0,0
249.64,0.081379,9.401,0.013778,0.0158,0,0,0
250.64,0.082869,9.4314,0.014039,0.016158,0,0,0
251.64,0.083962,9.461,0.014333,0.01619,0,0,0
252.64,0.084658,9.4899,0.014333,0.016125,0,0,0
253.64,0.085552,9.5199,0.014235,0.0158,0,0,0
254.64,0.086744,9.5481,0.014039,0.01606,0,0,0
255.64,0.088433,9.5791,0.0143,0.01606,0,0,0
256.64,0.090254,9.6089,0.014594,0.016647,0,0,0
257.64,0.092506,9.6357,0.015312,0.017526,0,0,0
258.64,0.094227,9.665,0.015963,0.018045,0,0,0
259.64,0.095916,9.6956,0.016745,0.01863,0,0,0
260.64,0.097274,9.723,0.017266,0.019086,0,0,0
261.64,0.098697,9.7509,0.017461,0.019183,0,0,0
262.64,0.10062,9.7796,0.017397,0.01941,0,0,0
263.64,0.10227,9.8066,0.017169,0.019443,0,0,0
264.64,0.10433,9.8369,0.017398,0.019507,0,0,0
265.64,0.10628,9.8649,0.01743,0.01993,0,0,0
266.64,0.1078,9.8907,0.017918,0.020352,0,0,0
267.64,0.10926,9.9187,0.018731,0.021098,0,0,0
268.64,0.11062,9.9466,0.019153,0.021714,0,0,0
269.64,0.11204,9.973,0.01977,0.022523,0,0,0
270.64,0.11399,9.9999,0.020192,0.022815,0,0,0
271.64,0.11595,10.027,0.020485,0.023138,0,0,0
272.64,0.11866,10.053,0.020808,0.023558,0,0,0
273.64,0.12101,10.081,0.020971,0.023656,0,0,0
274.64,0.1231,10.108,0.021035,0.023818,0,0,0
275.64,0.12489,10.133,0.021457,0.024496,0,0,0
276.64,0.12658,10.159,0.021943,0.024723,0,0,0
277.64,0.12823,10.187,0.022429,0.025401,0,0,0
278.64,0.13005,10.212,0.02314,0.026014,0,0,0
279.64,0.13217,10.238,0.02356,0.0264,0,0,0
280.64,0.13426,10.264,0.023949,0.026789,0,0,0
281.64,0.13648,10.289,0.024208,0.027175,0,0,0
282.64,0.13827,10.316,0.024497,0.027594,0,0,0
283.64,0.14005,10.342,0.024982,0.027981,0,0,0
284.64,0.14168,10.365,0.025176,0.028656,0,0,0
285.64,0.14343,10.39,0.025887,0.028882,0,0,0
286.64,0.14572,10.416,0.026274,0.029365,0,0,0
287.64,0.1485,10.441,0.026726,0.029847,0,0,0
288.64,0.15111,10.465,0.026886,0.030265,0,0,0
289.64,0.15373,10.491,0.027371,0.030651,0,0,0
290.64,0.15582,10.515,0.027887,0.031261,0,0,0
291.64,0.15797,10.539,0.028338,0.031775,0,0,0
292.64,0.15979,10.563,0.028499,0.032127,0,0,0
293.64,0.16174,10.586,0.028917,0.032672,0,0,0
294.64,0.16379,10.61,0.029336,0.033249,0,0,0
295.64,0.16621,10.634,0.029914,0.033602,0,0,0
296.64,0.1685,10.656,0.030364,0.033985,0,0,0
297.64,0.17088,10.681,0.030686,0.034497,0,0,0
298.64,0.1728,10.705,0.031199,0.034913,0,0,0
299.64,0.17489,10.726,0.031488,0.035234,0,0,0
300.64,0.17688,10.75,0.031969,0.035617,0,0,0
301.64,0.17926,10.774,0.032386,0.036064,0,0,0
302.64,0.18207,10.797,0.032866,0.036767,0,0,0
303.64,0.18509,10.819,0.033443,0.037182,0,0,0
304.64,0.18777,10.843,0.033986,0.037661,0,0,0
305.64,0.19029,10.865,0.034562,0.03817,0,0,0
306.64,0.19254,10.889,0.035074,0.038681,0,0,0
307.64,0.19456,10.912,0.035489,0.039,0,0,0
308.64,0.19694,10.932,0.036031,0.039318,0,0,0
309.64,0.19929,10.954,0.036319,0.039986,0,0,0
310.64,0.20207,10.977,0.036798,0.040559,0,0,0
311.64,0.20446,10.997,0.037085,0.041067,0,0,0
312.64,0.20668,11.019,0.03785,0.041513,0,0,0
313.64,0.2087,11.04,0.038041,0.042116,0,0,0
314.64,0.21052,11.06,0.038709,0.042655,0,0,0
315.64,0.21274,11.083,0.03922,0.043068,0,0,0
316.64,0.21555,11.105,0.039506,0.043671,0,0,0
317.64,0.21843,11.124,0.040111,0.044242,0,0,0
318.64,0.22145,11.145,0.040493,0.04443,0,0,0
319.64,0.2242,11.167,0.040748,0.044937,0,0,0
320.64,0.22665,11.187,0.041224,0.045381,0,0,0
321.64,0.22887,11.207,0.04186,0.045981,0,0,0
322.64,0.23138,11.227,0.0424,0.046455,0,0,0
323.64,0.23387,11.247,0.042749,0.046929,0,0,0
324.64,0.23668,11.269,0.043288,0.047434,0,0,0
325.64,0.23953,11.289,0.043796,0.047844,0,0,0
326.64,0.24215,11.307,0.043986,0.048508,0,0,0
327.64,0.2441,11.327,0.044398,0.048823,0,0,0
328.64,0.24612,11.347,0.044747,0.049642,0,0,0
329.64,0.24834,11.367,0.045474,0.049862,0,0,0
330.64,0.25069,11.386,0.046108,0.050524,0,0,0
331.64,0.25347,11.405,0.046802,0.051311,0,0,0
332.64,0.25685,11.424,0.047341,0.051751,0,0,0
333.64,0.25966,11.444,0.047687,0.052223,0,0,0
334.64,0.26221,11.464,0.048127,0.052726,0,0,0
335.64,0.26476,11.481,0.048411,0.053291,0,0,0
336.64,0.26718,11.5,0.048916,0.053763,0,0,0
337.64,0.26986,11.52,0.049452,0.05436,0,0,0
338.64,0.27301,11.538,0.050019,0.055049,0,0,0
339.64,0.27609,11.556,0.050585,0.055488,0,0,0
340.64,0.2792,11.575,0.051183,0.056302,0,0,0
341.64,0.28162,11.593,0.051968,0.056803,0,0,0
342.64,0.28371,11.612,0.052534,0.057272,0,0,0
343.64,0.28606,11.631,0.052785,0.057742,0,0,0
344.64,0.28834,11.647,0.053099,0.058274,0,0,0
345.64,0.29113,11.666,0.053224,0.058774,0,0,0
346.64,0.2942,11.684,0.053758,0.059554,0,0,0
347.64,0.29705,11.701,0.054229,0.060179,0,0,0
348.64,0.29954,11.719,0.054637,0.060614,0,0,0
349.64,0.30222,11.737,0.055232,0.061364,0,0,0
350.64,0.30487,11.754,0.055734,0.06214,0,0,0
351.64,0.30749,11.772,0.056485,0.062638,0,0,0
352.64,0.31076,11.79,0.057111,0.063106,0,0,0
353.64,0.31391,11.806,0.057299,0.06382,0,0,0
354.64,0.31722,11.822,0.057955,0.064286,0,0,0
355.64,0.32007,11.84,0.058268,0.064845,0,0,0
356.64,0.32252,11.857,0.058892,0.065311,0,0,0
357.64,0.32514,11.873,0.059299,0.066055,0,0,0
358.64,0.32726,11.89,0.059922,0.06683,0,0,0
359.64,0.33017,11.906,0.060547,0.067235,0,0,0
360.64,0.33318,11.923,0.060952,0.067977,0,0,0
361.64,0.33607,11.94,0.061793,0.068565,0,0,0
362.64,0.33868,11.955,0.061887,0.06903,0,0,0
363.64,0.34093,11.972,0.062385,0.069368,0,0,0
364.64,0.34342,11.989,0.062882,0.07017,0,0,0
365.64,0.34633,12.004,0.063317,0.070634,0,0,0
366.64,0.34898,12.021,0.064002,0.071406,0,0,0
367.64,0.35266,12.037,0.064622,0.071992,0,0,0
368.64,0.356,12.052,0.065398,0.072455,0,0,0
369.64,0.35895,12.07,0.06608,0.073501,0,0,0
370.64,0.3615,12.085,0.066391,0.073993,0,0,0
371.64,0.36425,12.099,0.067043,0.074607,0,0,0
372.64,0.367,12.115,0.067199,0.075222,0,0,0
373.64,0.37021,12.131,0.067787,0.075744,0,0,0
374.64,0.37343,12.146,0.06825,0.076418,0,0,0
375.64,0.37654,12.161,0.069086,0.07691,0,0,0
376.64,0.37955,12.177,0.069981,0.077735,0,0,0
377.64,0.38187,12.192,0.070629,0.078318,0,0,0
378.64,0.38432,12.208,0.071091,0.079206,0,0,0
379.64,0.38664,12.223,0.071831,0.079511,0,0,0
380.64,0.38975,12.237,0.07217,0.080093,0,0,0
381.64,0.39297,12.252,0.072693,0.080767,0,0,0
382.64,0.39644,12.267,0.073124,0.081287,0,0,0
383.64,0.39929,12.281,0.0738,0.081865,0,0,0
384.64,0.40178,12.295,0.074262,0.082383,0,0,0
385.64,0.40449,12.311,0.07506,0.08348,0,0,0
386.64,0.40747,12.325,0.075522,0.083814,0,0,0
387.64,0.41065,12.34,0.076199,0.084697,0,0,0
388.64,0.41443,12.355,0.07727,0.085276,0,0,0
389.64,0.41781,12.368,0.07773,0.085823,0,0,0
390.64,0.42072,12.384,0.078253,0.086552,0,0,0
391.64,0.42357,12.397,0.07868,0.08713,0,0,0
392.64,0.42618,12.412,0.078925,0.087707,0,0,0
393.64,0.429,12.426,0.079475,0.088465,0,0,0
394.64,0.43234,12.44,0.080301,0.089284,0,0,0
395.64,0.43579,12.454,0.080728,0.08992,0,0,0
396.64,0.4389,12.468,0.081309,0.090554,0,0,0
397.64,0.44152,12.482,0.081919,0.091281,0,0,0
398.64,0.444,12.495,0.082744,0.091945,0,0,0
399.64,0.44665,12.509,0.083353,0.092639,0,0,0
400.64,0.44943,12.522,0.084055,0.093393,0,0,0
401.64,0.45294,12.536,0.08442,0.094147,0,0,0
402.64,0.45659,12.55,0.085058,0.09493,0,0,0
403.64,0.4598,12.563,0.085757,0.095595,0,0,0
404.64,0.46301,12.577,0.086121,0.096466,0,0,0
405.64,0.46583,12.59,0.08688,0.096919,0,0,0
406.64,0.46864,12.603,0.087396,0.097851,0,0,0
407.64,0.47195,12.616,0.087972,0.098064,0,0,0
408.64,0.47573,12.63,0.088366,0.098844,0,0,0
409.64,0.47934,12.643,0.088975,0.099504,0,0,0
410.64,0.48248,12.656,0.089701,0.10023,0,0,0
411.64,0.48546,12.67,0.090338,0.101,0,0,0
412.64,0.48831,12.684,0.090792,0.10193,0,0,0
413.64,0.49103,12.696,0.091606,0.10256,0,0,0
414.64,0.49408,12.708,0.092421,0.1036,0,0,0
415.64,0.49782,12.721,0.093085,0.10432,0,0,0
416.64,0.50096,12.734,0.09372,0.10489,0,0,0
417.64,0.50398,12.747,0.094171,0.10534,0,0,0
418.64,0.50669,12.759,0.094806,0.1059,0,0,0
419.64,0.50951,12.772,0.095258,0.10659,0,0,0
420.64,0.51269,12.785,0.096013,0.10739,0,0,0
421.64,0.51597,12.797,0.096614,0.10798,0,0,0
422.64,0.51981,12.808,0.097334,0.10896,0,0,0
423.64,0.52335,12.822,0.098145,0.10991,0,0,0
424.64,0.52666,12.834,0.099044,0.11048,0,0,0
425.64,0.52971,12.845,0.099733,0.11149,0,0,0
426.64,0.53263,12.858,0.10039,0.11202,0,0,0
427.64,0.5359,12.87,0.10084,0.1127,0,0,0
428.64,0.53961,12.882,0.10147,0.11335,0,0,0
429.64,0.54312,12.894,0.10207,0.1143,0,0,0
430.64,0.54667,12.906,0.10281,0.11512,0,0,0
431.64,0.54971,12.918,0.10371,0.11598,0,0,0
432.64,0.55249,12.93,0.10436,0.11654,0,0,0
433.64,0.55544,12.942,0.10508,0.11749,0,0,0
434.64,0.55836,12.953,0.10562,0.11825,0,0,0
435.64,0.56183,12.965,0.10639,0.11922,0,0,0
436.64,0.56538,12.977,0.10728,0.11993,0,0,0
437.64,0.56869,12.989,0.10794,0.12066,0,0,0
438.64,0.57164,13,0.10841,0.12143,0,0,0
439.64,0.57449,13.012,0.10909,0.1221,0,0,0
440.64,0.57753,13.023,0.10989,0.1231,0,0,0
441.64,0.58091,13.035,0.11022,0.12409,0,0,0
442.64,0.58485,13.046,0.11132,0.12491,0,0,0
443.64,0.58869,13.057,0.1117,0.12599,0,0,0
444.64,0.59181,13.07,0.11203,0.12669,0,0,0
445.64,0.59515,13.08,0.11262,0.12763,0,0,0
446.64,0.5981,13.091,0.11342,0.12853,0,0,0
447.64,0.60154,13.103,0.11422,0.12932,0,0,0
448.64,0.60525,13.114,0.11501,0.13028,0,0,0
449.64,0.60926,13.125,0.11581,0.13127,0,0,0
450.64,0.61264,13.136,0.11628,0.13208,0,0,0
451.64,0.61582,13.147,0.11678,0.13245,0,0,0
452.64,0.6187,13.158,0.11752,0.13341,0,0,0
453.64,0.62155,13.169,0.11829,0.13428,0,0,0
454.64,0.62499,13.18,0.11902,0.13489,0,0,0
455.64,0.6286,13.192,0.12011,0.13555,0,0,0
456.64,0.63208,13.202,0.12096,0.13662,0,0,0
457.64,0.63555,13.213,0.12169,0.13735,0,0,0
458.64,0.6388,13.224,0.12248,0.13836,0,0,0
459.64,0.64181,13.234,0.12269,0.13922,0,0,0
460.64,0.64503,13.245,0.12322,0.13971,0,0,0
461.64,0.64854,13.255,0.12375,0.14072,0,0,0
462.64,0.65244,13.266,0.12439,0.1415,0,0,0
463.64,0.65615,13.277,0.12535,0.14259,0,0,0
464.64,0.6597,13.287,0.12646,0.14345,0,0,0
465.64,0.66297,13.297,0.12757,0.14417,0,0,0
466.64,0.66619,13.307,0.12807,0.14517,0,0,0
467.64,0.66983,13.318,0.12876,0.14615,0,0,0
468.64,0.67341,13.328,0.1294,0.14729,0,0,0
469.64,0.67754,13.339,0.12984,0.14858,0,0,0
470.64,0.68109,13.349,0.13036,0.14938,0,0,0
471.64,0.6844,13.36,0.13109,0.15029,0,0,0
472.64,0.68781,13.369,0.13211,0.15114,0,0,0
473.64,0.69079,13.38,0.13295,0.15205,0,0,0
474.64,0.6942,13.39,0.13387,0.1529,0,0,0
475.64,0.69804,13.4,0.13454,0.1537,0,0,0
476.64,0.70185,13.41,0.1357,0.15484,0,0,0
477.64,0.7053,13.419,0.13648,0.15569,0,0,0
478.64,0.70815,13.429,0.13679,0.15666,0,0,0
479.64,0.71139,13.44,0.13754,0.15774,0,0,0
480.64,0.71474,13.45,0.13823,0.15872,0,0,0
481.64,0.71841,13.46,0.1389,0.15988,0,0,0
482.64,0.72248,13.47,0.13971,0.16039,0,0,0
483.64,0.72616,13.479,0.13996,0.16096,0,0,0
484.64,0.72987,13.489,0.1412,0.16206,0,0,0
485.64,0.73305,13.498,0.14215,0.16327,0,0,0
486.64,0.73642,13.508,0.14318,0.16448,0,0,0
487.64,0.7403,13.518,0.14381,0.16633,0,0,0
488.64,0.7444,13.528,0.14496,0.16751,0,0,0
489.64,0.74851,13.538,0.14608,0.16835,0,0,0
490.64,0.75222,13.547,0.1467,0.16928,0,0,0
491.64,0.75553,13.557,0.14759,0.16981,0,0,0
492.64,0.75904,13.566,0.14813,0.17028,0,0,0
493.64,0.76258,13.575,0.14924,0.17129,0,0,0
494.64,0.76636,13.584,0.1503,0.17193,0,0,0
495.64,0.7704,13.594,0.15129,0.17251,0,0,0
496.64,0.77398,13.604,0.15192,0.17341,0,0,0
497.64,0.77755,13.612,0.15303,0.17485,0,0,0
498.64,0.78073,13.621,0.15411,0.17635,0,0,0
499.64,0.78411,13.63,0.15513,0.17713,0,0,0
500.64,0.78722,13.639,0.15615,0.17772,0,0,0
501.64,0.79149,13.649,0.15664,0.17863,0,0,0
502.64,0.79527,13.657,0.1572,0.17968,0,0,0
503.64,0.79894,13.666,0.15813,0.17988,0,0,0
504.64,0.80242,13.676,0.15853,0.18082,0,0,0
505.64,0.80593,13.685,0.15946,0.18145,0,0,0
506.64,0.80951,13.694,0.16042,0.18253,0,0,0
507.64,0.81351,13.703,0.16163,0.18361,0,0,0
508.64,0.81775,13.711,0.16219,0.18424,0,0,0
509.64,0.82146,13.72,0.16329,0.18559,0,0,0
510.64,0.8251,13.729,0.16417,0.18614,0,0,0
511.64,0.82861,13.737,0.16453,0.18715,0,0,0
512.64,0.83216,13.745,0.16568,0.18795,0,0,0
513.64,0.836,13.755,0.16636,0.18867,0,0,0
514.64,0.8402,13.764,0.16694,0.18993,0,0,0
515.64,0.84437,13.772,0.16806,0.19056,0,0,0
516.64,0.84802,13.781,0.16865,0.1922,0,0,0
517.64,0.85146,13.789,0.17016,0.19304,0,0,0
518.64,0.85484,13.798,0.17074,0.19394,0,0,0
519.64,0.85845,13.806,0.17219,0.19531,0,0,0
520.64,0.86262,13.814,0.17275,0.19618,0,0,0
521.64,0.86659,13.823,0.17389,0.19705,0,0,0
522.64,0.87037,13.832,0.17478,0.19762,0,0,0
523.64,0.87394,13.84,0.17614,0.19876,0,0,0
524.64,0.87726,13.849,0.177,0.19976,0,0,0
525.64,0.8809,13.857,0.17775,0.20049,0,0,0
526.64,0.8848,13.865,0.17913,0.20147,0,0,0
527.64,0.88895,13.874,0.17969,0.2029,0,0,0
528.64,0.89295,13.882,0.18087,0.2043,0,0,0
529.64,0.89686,13.89,0.1814,0.20533,0,0,0
530.64,0.90027,13.899,0.18229,0.20622,0,0,0
531.64,0.90418,13.907,0.18369,0.20727,0,0,0
532.64,0.90825,13.916,0.18477,0.20762,0,0,0
533.64,0.91269,13.924,0.18579,0.20853,0,0,0
534.64,0.91689,13.932,0.18683,0.20913,0,0,0
535.64,0.92077,13.939,0.18801,0.21002,0,0,0
536.64,0.92444,13.948,0.18839,0.21111,0,0,0
537.64,0.92835,13.956,0.18955,0.21208,0,0,0
538.64,0.93222,13.964,0.1905,0.21253,0,0,0
539.64,0.93653,13.972,0.19149,0.2143,0,0,0
540.64,0.94073,13.98,0.19231,0.21566,0,0,0
541.64,0.94504,13.987,0.19332,0.21712,0,0,0
542.64,0.94848,13.994,0.19444,0.21898,0,0,0
543.64,0.95209,14.002,0.19509,0.22009,0,0,0
544.64,0.95583,14.01,0.19599,0.22102,0,0,0
545.64,0.95981,14.017,0.1967,0.22224,0,0,0
546.64,0.96415,14.025,0.19738,0.22317,0,0,0
547.64,0.96812,14.032,0.1986,0.22459,0,0,0
548.64,0.97186,14.04,0.1992,0.22505,0,0,0
549.64,0.97547,14.048,0.20026,0.2265,0,0,0
550.64,0.97928,14.056,0.20097,0.22792,0,0,0
551.64,0.98338,14.063,0.2021,0.22902,0,0,0
552.64,0.98779,14.07,0.20259,0.23034,0,0,0
553.64,0.99212,14.077,0.20337,0.23144,0,0,0
554.64,0.9958,14.085,0.2047,0.23247,0,0,0
555.64,0.99974,14.093,0.20561,0.23336,0,0,0
556.64,1.0034,14.1,0.20691,0.23427,0,0,0
557.64,1.0078,14.107,0.20827,0.23537,0,0,0
558.64,1.0122,14.115,0.20948,0.23741,0,0,0
559.64,1.0166,14.122,0.21037,0.23788,0,0,0
560.64,1.0207,14.129,0.2116,0.23846,0,0,0
561.64,1.0246,14.136,0.21259,0.23984,0,0,0
562.64,1.0283,14.143,0.21394,0.24075,0,0,0
563.64,1.0325,14.15,0.21455,0.24117,0,0,0
564.64,1.0372,14.157,0.21585,0.2427,0,0,0
565.64,1.0416,14.164,0.21708,0.24322,0,0,0
566.64,1.0456,14.171,0.21817,0.24404,0,0,0
567.64,1.0494,14.178,0.21924,0.24469,0,0,0
568.64,1.0531,14.185,0.22011,0.24534,0,0,0
569.64,1.0574,14.192,0.2212,0.24676,0,0,0
570.64,1.0615,14.199,0.22248,0.24965,0,0,0
571.64,1.066,14.205,0.22362,0.25148,0,0,0
572.64,1.0702,14.212,0.22454,0.25261,0,0,0
573.64,1.0739,14.219,0.22549,0.2539,0,0,0
574.64,1.0778,14.226,0.22668,0.25511,0,0,0
575.64,1.0819,14.233,0.22684,0.2551,0,0,0
576.64,1.0864,14.24,0.22837,0.25587,0,0,0
577.64,1.0907,14.246,0.22898,0.25766,0,0,0
578.64,1.0949,14.253,0.2302,0.25922,0,0,0
579.64,1.0986,14.259,0.2312,-Inf,0,0,0
580.64,1.1026,14.265,0.23246,-Inf,0,0,0
581.64,1.1068,14.272,0.23395,-Inf,0,0,0
582.64,1.1113,14.279,0.23458,-Inf,0,0,0
583.64,1.1161,14.285,0.23623,-Inf,0,0,0
584.64,1.1205,14.291,0.23712,-Inf,0,0,0
585.64,1.1245,14.298,0.23787,-Inf,0,0,0
586.64,1.1286,14.305,0.23868,-Inf,0,0,0
587.64,1.1328,14.311,0.23954,-Inf,0,0,0
588.64,1.1374,14.317,0.24102,-Inf,0,0,0
589.64,1.1418,14.323,0.24266,-Inf,0,0,0
590.64,1.1464,14.329,0.24308,-Inf,0,0,0
591.64,1.1506,14.336,0.24445,-Inf,0,0,0
592.64,1.1545,14.343,0.24562,-Inf,0,0,0
593.64,1.1588,14.349,0.24598,-Inf,0,0,0
594.64,1.1633,14.355,0.24756,-Inf,0,0,0
595.64,1.1679,14.362,0.24886,-Inf,0,0,0
596.64,1.1723,14.368,0.25045,-Inf,0,0,0
597.64,1.1765,14.374,0.25107,-Inf,0,0,0
598.64,1.1806,14.38,0.25195,-Inf,0,0,0
599.64,1.1845,14.386,0.25346,-Inf,0,0,0
600.64,1.1894,14.392,0.25398,-Inf,0,0,0
601.64,1.1941,14.398,0.25454,-Inf,0,0,0
602.64,1.1988,14.403,0.256,-Inf,0,0,0
603.64,1.2028,14.409,0.25772,-Inf,0,0,0
604.64,1.2068,14.415,0.25889,-Inf,0,0,0
605.64,1.2113,14.42,0.25974,-Inf,0,0,0
606.64,1.2159,14.426,0.26081,-Inf,0,0,0
607.64,1.2206,14.432,0.26183,-Inf,0,0,0
608.64,1.2252,14.438,0.26338,-Inf,0,0,0
609.64,1.2296,14.443,0.26483,-Inf,0,0,0
610.64,1.2337,14.449,0.26607,-Inf,0,0,0
611.64,1.2382,14.454,0.26815,-Inf,0,0,0
612.64,1.2429,14.459,0.26969,-Inf,0,0,0
613.64,1.2479,14.465,0.26959,-Inf,0,0,0
614.64,1.2527,14.47,0.27058,-Inf,0,0,0
615.64,1.257,14.476,0.27108,-Inf,0,0,0
616.64,1.2612,14.481,0.27252,-Inf,0,0,0
617.64,1.2658,14.486,0.27375,-Inf,0,0,0
618.64,1.2706,14.492,0.27541,-Inf,0,0,0
619.64,1.2757,14.498,0.27722,-Inf,0,0,0
620.64,1.2804,14.502,0.27865,-Inf,0,0,0
621.64,1.2848,14.508,0.28027,-Inf,0,0,0
622.64,1.289,14.512,0.28105,-Inf,0,0,0
623.64,1.2936,14.517,0.2821,-Inf,0,0,0
624.64,1.2986,14.523,0.28392,-Inf,0,0,0
625.64,1.3034,14.528,0.28539,-Inf,0,0,0
626.64,1.3082,14.533,0.28656,-Inf,0,0,0
627.64,1.3124,14.538,0.28745,-Inf,0,0,0
628.64,1.3168,14.542,0.28899,-Inf,0,0,0
629.64,1.3216,14.547,0.2898,-Inf,0,0,0
630.64,1.3264,14.553,0.29119,-Inf,0,0,0
631.64,1.3313,14.557,0.29312,-Inf,0,0,0
632.64,1.3358,14.562,0.29583,-Inf,0,0,0
633.64,1.3402,14.566,0.29669,-Inf,0,0,0
634.64,1.3447,14.571,0.29743,-Inf,0,0,0
635.64,1.3493,14.576,0.29849,-Inf,0,0,0
636.64,1.3546,14.581,0.2995,-Inf,0,0,0
637.64,1.3594,14.585,0.30065,-Inf,0,0,0
638.64,1.3642,14.59,0.30226,-Inf,0,0,0
639.64,1.3686,14.594,0.30512,-Inf,0,0,0
640.64,1.3731,14.598,0.30607,-Inf,0,0,0
641.64,1.3781,14.603,0.30778,-Inf,0,0,0
642.64,1.3834,14.608,0.30921,-Inf,0,0,0
643.64,1.3884,14.613,0.31062,-Inf,0,0,0
644.64,1.3933,14.617,0.31256,-Inf,0,0,0
645.64,1.398,14.621,0.31495,-Inf,0,0,0
646.64,1.4027,14.625,0.31727,-Inf,0,0,0
647.64,1.4079,14.629,0.31886,-Inf,0,0,0
648.64,1.4131,14.633,0.31963,-Inf,0,0,0
649.64,1.4181,14.636,0.3212,-Inf,0,0,0
650.64,1.423,14.641,0.32213,-Inf,0,0,0
651.64,1.4276,14.645,0.32446,-Inf,0,0,0
652.64,1.4326,14.648,0.32597,-Inf,0,0,0
653.64,1.4379,14.652,-Inf,-Inf,0,0,0
654.64,1.4433,14.656,-Inf,-Inf,0,0,0
655.64,1.4485,14.659,-Inf,-Inf,0,0,0
656.64,1.4531,14.663,-Inf,-Inf,0,0,0
657.64,1.4582,14.666,-Inf,-Inf,0,0,0
658.64,1.4633,14.67,-Inf,-Inf,0,0,0
659.64,1.4687,14.674,-Inf,-Inf,0,0,0
660.64,1.4739,14.677,-Inf,-Inf,0,0,0
661.64,1.4792,14.68,-Inf,-Inf,0,0,0
662.64,1.4838,14.684,-Inf,-Inf,0,0,0
663.64,1.4888,14.687,-Inf,-Inf,0,0,0
664.64,1.4942,14.69,-Inf,-Inf,0,0,0
665.64,1.4997,14.693,-Inf,-Inf,0,0,0
666.64,1.5051,14.696,-Inf,-Inf,0,0,0
667.64,1.5103,14.699,-Inf,-Inf,0,0,0
668.64,1.515,14.702,-Inf,-Inf,0,0,0
669.64,1.5201,14.705,-Inf,-Inf,0,0,0
670.64,1.5258,14.708,-Inf,-Inf,0,0,0
671.64,1.5313,14.71,-Inf,-Inf,0,0,0
672.64,1.5366,14.713,-Inf,-Inf,0,0,0
673.64,1.5416,14.715,-Inf,-Inf,0,0,0
674.64,1.5468,14.717,-Inf,-Inf,0,0,0
675.64,1.5522,14.72,-Inf,-Inf,0,0,0
676.64,1.5578,14.722,-Inf,-Inf,0,0,0
677.64,1.5637,14.725,-Inf,-Inf,0,0,0
678.64,1.569,14.728,-Inf,-Inf,0,0,0
679.64,1.5739,14.729,-Inf,-Inf,0,0,0
680.64,1.5796,14.731,-Inf,-Inf,0,0,0
681.64,1.5855,14.732,-Inf,-Inf,0,0,0
682.64,1.5912,14.733,-Inf,-Inf,0,0,0
683.64,1.5966,14.735,-Inf,-Inf,0,0,0
684.64,1.6021,14.736,-Inf,-Inf,0,0,0
685.64,1.6073,14.738,-Inf,-Inf,0,0,0
686.64,1.6132,14.739,-Inf,-Inf,0,0,0
687.64,1.6192,14.741,-Inf,-Inf,0,0,0
688.64,1.6249,14.741,-Inf,-Inf,0,0,0
689.64,1.6305,14.742,-Inf,-Inf,0,0,0
690.64,1.6357,14.743,-Inf,-Inf,0,0,0
691.64,1.6415,14.743,-Inf,-Inf,0,0,0
692.64,1.6475,14.743,-Inf,-Inf,0,0,0
693.64,1.6535,14.744,-Inf,-Inf,0,0,0
694.64,1.6593,14.745,-Inf,-Inf,0,0,0
695.64,1.6648,14.744,-Inf,-Inf,0,0,0
696.64,1.6707,14.744,-Inf,-Inf,0,0,0
697.64,1.6768,14.744,-Inf,-Inf,0,0,0
698.64,1.6832,14.743,-Inf,-Inf,0,0,0
699.64,1.689,14.743,-Inf,-Inf,0,0,0
700.64,1.6947,14.742,-Inf,-Inf,0,0,0
701.64,1.7006,14.741,-Inf,-Inf,0,0,0
702.64,1.7068,14.74,-Inf,-Inf,0,0,0
703.64,1.7132,14.738,-Inf,-Inf,0,0,0
704.64,1.7196,14.736,-Inf,-Inf,0,0,0
705.64,1.7255,14.734,-Inf,-Inf,0,0,0
706.64,1.7316,14.732,-Inf,-Inf,0,0,0
707.64,1.7378,14.728,-Inf,-Inf,0,0,0
708.64,1.7447,14.724,-Inf,-Inf,0,0,0
709.64,1.7512,14.719,-Inf,-Inf,0,0,0
710.64,1.7579,14.715,-Inf,-Inf,0,0,0
711.64,1.7641,14.709,-Inf,-Inf,0,0,0
712.64,1.7711,14.702,-Inf,-Inf,0,0,0
713.64,1.7778,14.694,-Inf,-Inf,0,0,0
714.64,1.7852,14.684,-Inf,-Inf,0,0,0
715.64,1.7919,14.675,-Inf,-Inf,0,0,0
716.64,1.7989,14.663,-Inf,-Inf,0,0,0
717.64,1.8067,14.646,-Inf,-Inf,0,0,0
718.64,1.816,14.623,-Inf,-Inf,0,0,0
719.14,1.8209,14.605,-Inf,-Inf,0,0,0