File: LAB_DATA/DP600_results/DATA/CH_45_2.csv
Time[s],Displacement[mm],Force[kN],AxStrain_1,AxStrain_2,Thickness[mm],OuterWidth[mm],Diameter[mm]
0.59,0,-0.017095,0,0,1.5263,20,4.8913
1.59,3.8e-05,-0.022564,0.00036393,8.6996e-05,0,0,0
2.59,0.00017,0.017133,0.00035594,-0.00012301,0,0,0
3.59,0.000145,0.082129,0.00028896,-0.00038908,0,0,0
4.59,0.000366,0.13771,0.00038892,-0.00031905,0,0,0
5.59,0.00027,0.19113,0.00030795,-0.00031105,0,0,0
6.59,0.000473,0.23085,0.00040292,-0.00021402,0,0,0
7.59,0.000461,0.26757,0.00051687,-5e-06,0,0,0
8.59,0.000586,0.30285,0.00035294,-2e-05,0,0,0
9.59,0.00051,0.33771,0.00041791,0.00013199,0,0,0
10.59,0.000554,0.37442,0.00031895,0.00053286,0,0,0
11.59,0.000666,0.411,0.00036293,0.0006348,0,0,0
12.59,0.000816,0.44685,0.00036593,0.00059682,0,0,0
13.59,0.000965,0.48257,0.00050387,0.00038293,0,0,0
14.59,0.000738,0.52128,0.00049688,0.00012299,0,0,0
15.59,0.00098,0.55657,0.00056584,-0.00010901,0,0,0
16.59,0.001043,0.59457,0.00037393,-0.00017902,0,0,0
17.59,0.001188,0.63357,0.00040392,-0.00029804,0,0,0
18.59,0.001198,0.67214,0.00039392,-0.00025103,0,0,0
19.59,0.001175,0.71242,0.00037393,-4.3001e-05,0,0,0
20.59,0.001539,0.75314,0.00038693,0.00025497,0,0,0
21.59,0.001241,0.79228,0.00048288,0.00068876,0,0,0
22.59,0.001533,0.83157,0.00040092,0.0006288,0,0,0
23.59,0.001493,0.87499,0.0004439,0.00093057,0,0,0
24.59,0.00191,0.91485,0.00025797,0.00078769,0,0,0
25.59,0.002208,0.95657,0.00055585,0.00046389,0,0,0
26.59,0.002215,0.99785,0.00020198,0.00034194,0,0,0
27.59,0.002105,1.0384,0.00047289,5.6998e-05,0,0,0
28.59,0.00241,1.0804,0.00034094,-0.00011501,0,0,0
29.59,0.002274,1.1231,0.00036693,-0.00023103,0,0,0
30.59,0.002489,1.164,0.00033095,0.00015999,0,0,0
31.59,0.00242,1.2043,0.00038093,0.00039492,0,0,0
32.59,0.002423,1.2483,0.00018498,0.00084364,0,0,0
33.59,0.002807,1.2889,0.00019898,0.0010265,0,0,0
34.59,0.003089,1.3309,0.00020498,0.0010095,0,0,0
35.59,0.003347,1.3736,0.00047988,0.0010794,0,0,0
36.59,0.003661,1.4147,0.00030495,0.00080468,0,0,0
37.59,0.003496,1.4574,0.00028796,0.00038792,0,0,0
38.59,0.003516,1.4994,0.00023497,0.00014599,0,0,0
39.59,0.003503,1.54,0.00042391,6.9998e-05,0,0,0
40.59,0.00338,1.5803,0.00041991,0.00021898,0,0,0
41.59,0.003648,1.624,0.00049988,0.00033794,0,0,0
42.59,0.003751,1.6646,0.00026796,0.00051387,0,0,0
43.59,0.003969,1.7066,0.00039692,0.00086063,0,0,0
44.59,0.004098,1.7479,0.0004499,0.0011583,0,0,0
45.59,0.004615,1.7887,0.0004399,0.0012842,0,0,0
46.59,0.005055,1.8311,0.00068477,0.00091059,0,0,0
47.59,0.005025,1.8731,0.00055585,0.00055984,0,0,0
48.59,0.004996,1.914,0.00050687,0.00023197,0,0,0
49.59,0.004797,1.9536,0.0006258,8.2997e-05,0,0,0
50.59,0.004929,1.9967,0.0004439,0.00013599,0,0,0
51.59,0.004744,2.0359,0.00071175,0.00035094,0,0,0
52.59,0.004727,2.0771,0.00060282,0.00050987,0,0,0
53.59,0.005025,2.1193,0.00059582,0.00084464,0,0,0
54.59,0.005267,2.1591,0.00066878,0.0010494,0,0,0
55.59,0.005767,2.2004,0.00061181,0.0011214,0,0,0
56.59,0.006085,2.2431,0.00058583,0.0010295,0,0,0
57.59,0.006409,2.2837,0.0007807,0.00073773,0,0,0
58.59,0.006283,2.3233,0.00073173,0.00046389,0,0,0
59.59,0.006237,2.367,0.0006388,0.00034794,0,0,0
60.59,0.006022,2.4066,0.00070775,0.00032095,0,0,0
61.59,0.005783,2.4479,0.0006318,0.00046989,0,0,0
62.59,0.005807,2.4891,0.00076771,0.00049288,0,0,0
63.59,0.006128,2.5294,0.00065479,0.00069476,0,0,0
64.59,0.006171,2.5711,0.00085663,0.00075172,0,0,0
65.59,0.006879,2.6121,0.0008936,0.0011913,0,0,0
66.59,0.007412,2.652,0.00083065,0.0011543,0,0,0
67.59,0.007727,2.6919,0.0010584,0.00095954,0,0,0
68.59,0.007743,2.7353,0.00093656,0.00083765,0,0,0
69.59,0.007495,2.7749,0.00086363,0.00058283,0,0,0
70.59,0.007171,2.8166,0.00085364,0.00024797,0,0,0
71.59,0.006929,2.8573,0.00088661,0.00036093,0,0,0
72.59,0.007118,2.8969,0.00082766,0.00057583,0,0,0
73.59,0.00721,2.9381,0.00075072,0.0007707,0,0,0
74.59,0.007359,2.9794,0.00082366,0.00072174,0,0,0
75.59,0.007995,3.0193,0.00093656,0.0012342,0,0,0
76.59,0.008574,3.0579,0.00075771,0.00087062,0,0,0
77.59,0.009236,3.1007,0.00081067,0.0010654,0,0,0
78.59,0.009445,3.1396,0.0010624,0.0010524,0,0,0
79.59,0.009233,3.1806,0.0011354,0.00064579,0,0,0
80.59,0.00877,3.2216,0.0010095,0.00059282,0,0,0
81.59,0.00864,3.2611,0.0010225,0.00021198,0,0,0
82.59,0.008346,3.3021,0.00090959,0.00042991,0,0,0
83.59,0.008518,3.3424,0.00079768,0.00058583,0,0,0
84.59,0.008717,3.381,0.00092657,0.00098951,0,0,0
85.59,0.009495,3.4196,0.00094955,0.0012143,0,0,0
86.59,0.009892,3.462,0.0008936,0.0011024,0,0,0
87.59,0.010441,3.4999,0.00079768,0.0013701,0,0,0
88.59,0.010723,3.5406,0.00088661,0.0011024,0,0,0
89.59,0.010849,3.5809,0.00099251,0.00086063,0,0,0
90.59,0.010547,3.6201,0.0009955,0.00069576,0,0,0
91.59,0.010296,3.6593,0.00092957,0.00035494,0,0,0
92.59,0.009879,3.6996,0.00096953,0.00025897,0,0,0
93.59,0.0101,3.74,0.00072174,0.00073873,0,0,0
94.59,0.0102,3.7776,0.00098651,0.00087761,0,0,0
95.59,0.010782,3.8186,0.00093956,0.0012083,0,0,0
96.59,0.011388,3.8569,0.00092357,0.0016277,0,0,0
97.59,0.012169,3.8969,0.00098951,0.0014829,0,0,0
98.59,0.012636,3.9369,0.0011184,0.0015558,0,0,0
99.59,0.01256,3.9754,0.0012602,0.0011553,0,0,0
100.59,0.012305,4.0151,0.0011913,0.00097952,0,0,0
101.59,0.011918,4.0551,0.0010914,0.00058283,0,0,0
102.59,0.011613,4.094,0.0010914,0.00053985,0,0,0
103.59,0.011699,4.1319,0.0012442,0.00066878,0,0,0
104.59,0.011898,4.174,0.0011184,0.0010465,0,0,0
105.59,0.012246,4.2119,0.0010325,0.0012772,0,0,0
106.59,0.013057,4.2514,0.0010724,0.0015688,0,0,0
107.59,0.013732,4.2919,0.001442,0.001978,0,0,0
108.59,0.014282,4.3304,0.0012772,0.0019152,0,0,0
109.59,0.014401,4.3704,0.0014889,0.0014889,0,0,0
110.59,0.014169,4.4104,0.0014889,0.0010594,0,0,0
111.59,0.013705,4.4476,0.0013561,0.0006288,0,0,0
112.59,0.013275,4.4856,0.0012243,0.00082766,0,0,0
113.59,0.013077,4.5273,0.0012902,0.00092657,0,0,0
114.59,0.013573,4.5641,0.0012243,0.0011583,0,0,0
115.59,0.013739,4.6039,0.0012243,0.0013241,0,0,0
116.59,0.014533,4.6436,0.0015218,0.0015548,0,0,0
117.59,0.015195,4.6814,0.0014889,0.0018523,0,0,0
118.59,0.015824,4.7207,0.0014559,0.0018852,0,0,0
119.59,0.016155,4.7597,0.0018523,0.0015548,0,0,0
120.59,0.015924,4.7966,0.0016207,0.0013561,0,0,0
121.59,0.015427,4.8336,0.0017864,0.00095954,0,0,0
122.59,0.015162,4.8743,0.0014889,0.00086063,0,0,0
123.59,0.014997,4.9116,0.0015218,0.00092657,0,0,0
124.59,0.015063,4.9506,0.0015548,0.0010924,0,0,0
125.59,0.015295,4.9891,0.0013561,0.0011913,0,0,0
126.59,0.015924,5.0274,0.0016207,0.001423,0,0,0
127.59,0.016784,5.0664,0.0014889,0.0017864,0,0,0
128.59,0.017479,5.1047,0.0017195,0.0017535,0,0,0
129.59,0.017777,5.1426,0.0019182,0.0016866,0,0,0
130.59,0.017811,5.1799,0.0018193,0.0014559,0,0,0
131.59,0.017413,5.2203,0.0017535,0.001389,0,0,0
132.59,0.016784,5.2576,0.0017535,0.0010255,0,0,0
133.59,0.016553,5.2969,0.0018523,0.0010914,0,0,0
134.59,0.01642,5.3361,0.0017195,0.0011583,0,0,0
135.59,0.016784,5.3737,0.0016536,0.0013231,0,0,0
136.59,0.017513,5.4124,0.0015877,0.0015548,0,0,0
137.59,0.018274,5.4514,0.0016866,0.0018523,0,0,0
138.59,0.019069,5.4889,0.0017864,0.0019182,0,0,0
139.59,0.019532,5.5261,0.0019182,0.0020838,0,0,0
140.59,0.019499,5.5666,0.0022155,0.0019182,0,0,0
141.59,0.019366,5.6039,0.0020509,0.0018193,0,0,0
142.59,0.019168,5.6429,0.0018193,0.001423,0,0,0
143.59,0.018771,5.6816,0.0017864,0.0011583,0,0,0
144.59,0.018804,5.7201,0.0016536,0.0011583,0,0,0
145.59,0.018969,5.7596,0.0017195,0.0016217,0,0,0
146.59,0.019698,5.797,0.0016866,0.0018193,0,0,0
147.59,0.020327,5.8336,0.0018193,0.0021168,0,0,0
148.59,0.021154,5.8729,0.0020509,0.0023812,0,0,0
149.59,0.021551,5.9139,0.0020838,0.0024141,0,0,0
150.59,0.021684,5.9516,0.0023472,0.0025797,0,0,0
151.59,0.021949,5.9906,0.0021826,0.0022495,0,0,0
152.59,0.021585,6.0284,0.0021168,0.0019192,0,0,0
153.59,0.021187,6.067,0.0021826,0.0016217,0,0,0
154.59,0.021253,6.1067,0.0020509,0.0014889,0,0,0
155.59,0.021353,6.1454,0.002017,0.0017864,0,0,0
156.59,0.022114,6.1819,0.0021168,0.0019521,0,0,0
157.59,0.022843,6.2226,0.0023143,0.0024141,0,0,0
158.59,0.023505,6.2613,0.002447,0.0025787,0,0,0
159.59,0.024167,6.2986,0.0026445,0.0027771,0,0,0
160.59,0.024299,6.3371,0.0029746,0.0031072,0,0,0
161.59,0.024398,6.3747,0.0028759,0.0026784,0,0,0
162.59,0.024432,6.4131,0.0029417,0.0022485,0,0,0
163.59,0.024001,6.4526,0.0026784,0.0017535,0,0,0
164.59,0.023968,6.4897,0.0026445,0.0018523,0,0,0
165.59,0.024134,6.5251,0.0026445,0.0020838,0,0,0
166.59,0.024796,6.5656,0.0026445,0.0021168,0,0,0
167.59,0.025491,6.6036,0.0026445,0.0024141,0,0,0
168.59,0.026021,6.6409,0.0029746,0.0027771,0,0,0
169.59,0.026583,6.6799,0.0031401,0.0032387,0,0,0
170.59,0.026782,6.7171,0.0034042,0.0030414,0,0,0
171.59,0.026881,6.7554,0.0034042,0.0030414,0,0,0
172.59,0.026716,6.7949,0.0031072,0.002843,0,0,0
173.59,0.026848,6.8317,0.0029746,0.0023812,0,0,0
174.59,0.026716,6.8676,0.0029746,0.0022155,0,0,0
175.59,0.027014,6.9076,0.0028759,0.0021168,0,0,0
176.59,0.02751,6.9463,0.0028759,0.0024141,0,0,0
177.59,0.028106,6.9829,0.0029088,0.0029088,0,0,0
178.59,0.028735,7.0209,0.0031072,0.0031401,0,0,0
179.59,0.029132,7.0577,0.0035357,0.0034371,0,0,0
180.59,0.029596,7.0957,0.0037998,0.0036683,0,0,0
181.59,0.029662,7.1349,0.003734,0.0041295,0,0,0
182.59,0.030126,7.1714,0.0038655,0.00347,0,0,0
183.59,0.030093,7.2063,0.0037011,0.0033055,0,0,0
184.59,0.030589,7.2456,0.0035357,0.0026784,0,0,0
185.59,0.03092,7.2833,0.0036015,0.0027771,0,0,0
186.59,0.031615,7.3186,0.0035029,0.0030085,0,0,0
187.59,0.031847,7.3559,0.003734,0.0034371,0,0,0
188.59,0.032311,7.392,0.0039651,0.0039651,0,0,0
189.59,0.032907,7.429,0.0042948,0.0043933,0,0,0
190.59,0.033238,7.4669,0.0046571,0.0047557,0,0,0
191.59,0.033569,7.5024,0.0048214,0.004888,0,0,0
192.59,0.033536,7.5369,0.0046243,0.0043276,0,0,0
193.59,0.034297,7.5763,0.0046243,0.0038326,0,0,0
194.59,0.034694,7.6129,0.0041623,0.0036025,0,0,0
195.59,0.035224,7.6479,0.0040966,0.0033055,0,0,0
196.59,0.03582,7.6839,0.0040966,0.0035357,0,0,0
197.59,0.036217,7.7187,0.0041952,0.0039323,0,0,0
198.59,0.036482,7.755,0.0042619,0.004228,0,0,0
199.59,0.036813,7.7929,0.0047557,0.004888,0,0,0
200.59,0.037078,7.8277,0.005283,0.0052502,0,0,0
201.59,0.03774,7.8609,0.0057435,0.0058101,0,0,0
202.59,0.03817,7.8979,0.00548,0.0053487,0,0,0
203.59,0.039031,7.9336,0.0055794,0.0049865,0,0,0
204.59,0.039792,7.9679,0.0051179,0.0047228,0,0,0
205.59,0.040819,8.0036,0.0050522,0.0041633,0,0,0
206.59,0.041745,8.0381,0.0053815,0.004459,0,0,0
207.59,0.042341,8.0727,0.0053815,0.0049537,0,0,0
208.59,0.042209,8.1086,0.0056122,0.0053158,0,0,0
209.59,0.04254,8.1427,0.0060725,0.0060069,0,0,0
210.59,0.042739,8.1756,0.0066975,0.0066975,0,0,0
211.59,0.043235,8.2123,0.0070263,0.0068952,0,0,0
212.59,0.043997,8.2476,0.0070263,0.0066647,0,0,0
213.59,0.045122,8.2809,0.0067303,0.006468,0,0,0
214.59,0.046347,8.3159,0.0065008,0.0059741,0,0,0
215.59,0.047539,8.3493,0.0060725,0.005645,0,0,0
216.59,0.0483,8.384,0.0061391,0.0057763,0,0,0
217.59,0.04883,8.4206,0.0063697,0.0057763,0,0,0
218.59,0.049029,8.4537,0.0068624,0.0064343,0,0,0
219.59,0.049128,8.4859,0.0073886,0.0071583,0,0,0
220.59,0.049591,8.5226,0.0082092,0.0077499,0,0,0
221.59,0.050353,8.5566,0.0085375,0.0085712,0,0,0
222.59,0.051313,8.5896,0.0088002,0.0087675,0,0,0
223.59,0.053067,8.6249,0.008702,0.0087347,0,0,0
224.59,0.054226,8.656,0.0083074,0.0079801,0,0,0
225.59,0.055451,8.6921,0.0081765,0.0079801,0,0,0
226.59,0.05661,8.7219,0.0079463,0.0072238,0,0,0
227.59,0.057338,8.7541,0.0082747,0.0076517,0,0,0
228.59,0.058132,8.7866,0.0086029,0.0082747,0,0,0
229.59,0.058497,8.8217,0.0093581,0.0086693,0,0,0
230.59,0.059059,8.8547,0.010046,0.0099484,0,0,0
231.59,0.059887,8.8844,0.010472,0.010341,0,0,0
232.59,0.061377,8.9181,0.010931,0.010538,0,0,0
233.59,0.062668,8.9499,0.010538,0.010669,0,0,0
234.59,0.06376,8.9799,0.010243,0.010211,0,0,0
235.59,0.064853,9.0119,0.010046,0.0099484,0,0,0
236.59,0.065879,9.0427,0.010144,0.0096206,0,0,0
237.59,0.067005,9.0731,0.010538,0.0096533,0,0,0
238.59,0.067931,9.106,0.010866,0.010145,0,0,0
239.59,0.069256,9.1373,0.011815,0.010703,0,0,0
240.59,0.070845,9.1654,0.012502,0.011848,0,0,0
241.59,0.072599,9.1969,0.01309,0.013057,0,0,0
242.59,0.074023,9.2291,0.013319,0.013613,0,0,0
243.59,0.07495,9.2579,0.013155,0.013777,0,0,0
244.59,0.075579,9.2886,0.01309,0.013483,0,0,0
245.59,0.076539,9.318,0.012469,0.012992,0,0,0
246.59,0.077532,9.3479,0.012502,0.012502,0,0,0
247.59,0.078922,9.3797,0.012698,0.012305,0,0,0
248.59,0.080743,9.41,0.013449,0.012926,0,0,0
249.59,0.082564,9.4379,0.014232,0.013482,0,0,0
250.59,0.084616,9.4681,0.015146,0.014331,0,0,0
251.59,0.086239,9.5001,0.015961,0.015048,0,0,0
252.59,0.087794,9.5291,0.016677,0.015896,0,0,0
253.59,0.08892,9.5594,0.01658,0.016319,0,0,0
254.59,0.090145,9.589,0.016417,0.016385,0,0,0
255.59,0.091568,9.6181,0.016417,0.016223,0,0,0
256.59,0.09286,9.649,0.016157,0.015864,0,0,0
257.59,0.094548,9.6783,0.016352,0.015538,0,0,0
258.59,0.096302,9.7051,0.01684,0.015766,0,0,0
259.59,0.098156,9.7339,0.017426,0.016157,0,0,0
260.59,0.10001,9.7639,0.018337,0.016646,0,0,0
261.59,0.10157,9.7904,0.019051,0.01785,0,0,0
262.59,0.10312,9.8191,0.019539,0.018825,0,0,0
263.59,0.10478,9.8473,0.01996,0.019376,0,0,0
264.59,0.1066,9.8744,0.02009,0.020026,0,0,0
265.59,0.10868,9.9033,0.019993,0.019994,0,0,0
266.59,0.1112,9.9313,0.020057,0.019604,0,0,0
267.59,0.11322,9.9564,0.02035,0.019474,0,0,0
268.59,0.11501,9.9841,0.020836,0.019377,0,0,0
269.59,0.1161,10.012,0.021581,0.019701,0,0,0
270.59,0.11752,10.039,0.0221,0.019928,0,0,0
271.59,0.11891,10.066,0.022942,0.021096,0,0,0
272.59,0.12054,10.092,0.023524,0.022003,0,0,0
273.59,0.12265,10.118,0.023782,0.022618,0,0,0
274.59,0.12517,10.146,0.024137,0.023072,0,0,0
275.59,0.12726,10.172,0.024203,0.023201,0,0,0
276.59,0.12964,10.196,0.024461,0.023136,0,0,0
277.59,0.13133,10.221,0.024655,0.023297,0,0,0
278.59,0.13325,10.248,0.02501,0.023718,0,0,0
279.59,0.13517,10.273,0.025526,0.023751,0,0,0
280.59,0.13732,10.299,0.026204,0.024203,0,0,0
281.59,0.1399,10.324,0.02659,0.02472,0,0,0
282.59,0.14239,10.349,0.027171,0.025333,0,0,0
283.59,0.14457,10.375,0.02775,0.026075,0,0,0
284.59,0.14639,10.399,0.028137,0.026558,0,0,0
285.59,0.14788,10.422,0.028426,0.027138,0,0,0
286.59,0.14944,10.448,0.028845,0.027364,0,0,0
287.59,0.15132,10.473,0.029552,0.027654,0,0,0
288.59,0.15351,10.496,0.029809,0.028008,0,0,0
289.59,0.15609,10.521,0.030324,0.02833,0,0,0
290.59,0.1589,10.545,0.030837,0.028587,0,0,0
291.59,0.16112,10.569,0.031286,0.028845,0,0,0
292.59,0.16331,10.594,0.031735,0.029424,0,0,0
293.59,0.16529,10.618,0.032024,0.029841,0,0,0
294.59,0.16735,10.639,0.032569,0.030613,0,0,0
295.59,0.16963,10.664,0.032793,0.031094,0,0,0
296.59,0.17211,10.688,0.033498,0.031735,0,0,0
297.59,0.17489,10.71,0.033786,0.032088,0,0,0
298.59,0.17748,10.734,0.034042,0.032697,0,0,0
299.59,0.17969,10.756,0.034874,0.032985,0,0,0
300.59,0.18135,10.779,0.035257,0.033273,0,0,0
301.59,0.183,10.803,0.035704,0.033273,0,0,0
302.59,0.18512,10.825,0.036471,0.03369,0,0,0
303.59,0.18741,10.846,0.036694,0.034042,0,0,0
304.59,0.19009,10.869,0.037523,0.034777,0,0,0
305.59,0.1931,10.892,0.038192,0.03564,0,0,0
306.59,0.19555,10.913,0.038479,0.036407,0,0,0
307.59,0.1979,10.935,0.039052,0.036982,0,0,0
308.59,0.20002,10.957,0.039339,0.037461,0,0,0
309.59,0.20257,10.979,0.039944,0.037811,0,0,0
310.59,0.20466,11,0.040326,0.038002,0,0,0
311.59,0.20773,11.021,0.040897,0.03813,0,0,0
312.59,0.21061,11.041,0.041692,0.038512,0,0,0
313.59,0.21366,11.062,0.042104,0.038575,0,0,0
314.59,0.21571,11.083,0.042549,0.039372,0,0,0
315.59,0.21803,11.104,0.042929,0.039913,0,0,0
316.59,0.21965,11.125,0.043057,0.040708,0,0,0
317.59,0.2217,11.146,0.043848,0.041598,0,0,0
318.59,0.22422,11.166,0.044039,0.04201,0,0,0
319.59,0.2271,11.186,0.044546,0.042423,0,0,0
320.59,0.23001,11.206,0.045146,0.042581,0,0,0
321.59,0.2324,11.226,0.045684,0.042899,0,0,0
322.59,0.23461,11.246,0.046601,0.043058,0,0,0
323.59,0.23687,11.265,0.047075,0.04366,0,0,0
324.59,0.23935,11.286,0.04777,0.04404,0,0,0
325.59,0.24197,11.306,0.04818,0.044706,0,0,0
326.59,0.24511,11.326,0.048527,0.045655,0,0,0
327.59,0.24815,11.346,0.048811,0.046319,0,0,0
328.59,0.2509,11.366,0.049158,0.046982,0,0,0
329.59,0.25332,11.384,0.049882,0.047487,0,0,0
330.59,0.25557,11.404,0.050638,0.047772,0,0,0
331.59,0.25772,11.423,0.051393,0.047929,0,0,0
332.59,0.26024,11.442,0.052085,0.048434,0,0,0
333.59,0.26309,11.461,0.053027,0.048906,0,0,0
334.59,0.2661,11.48,0.053467,0.049505,0,0,0
335.59,0.26875,11.499,0.053999,0.050135,0,0,0
336.59,0.27097,11.517,0.054408,0.05067,0,0,0
337.59,0.27335,11.534,0.054626,0.051299,0,0,0
338.59,0.2758,11.554,0.055222,0.052148,0,0,0
339.59,0.27831,11.573,0.055723,0.052462,0,0,0
340.59,0.28153,11.591,0.056349,0.053154,0,0,0
341.59,0.2849,11.609,0.056944,0.053216,0,0,0
342.59,0.28801,11.627,0.057694,0.053844,0,0,0
343.59,0.29069,11.646,0.058226,0.054189,0,0,0
344.59,0.29324,11.664,0.059037,0.054722,0,0,0
345.59,0.29583,11.681,0.059536,0.055035,0,0,0
346.59,0.29828,11.699,0.05991,0.055473,0,0,0
347.59,0.30135,11.715,0.060409,0.055912,0,0,0
348.59,0.30457,11.733,0.060814,0.056632,0,0,0
349.59,0.30728,11.751,0.061437,0.057195,0,0,0
350.59,0.3099,11.767,0.061935,0.058008,0,0,0
351.59,0.31208,11.785,0.062619,0.058694,0,0,0
352.59,0.3143,11.802,0.06324,0.059381,0,0,0
353.59,0.31682,11.819,0.064079,0.059849,0,0,0
354.59,0.31989,11.836,0.064576,0.060098,0,0,0
355.59,0.32324,11.853,0.065259,0.060691,0,0,0
356.59,0.32608,11.869,0.065817,0.061065,0,0,0
357.59,0.3289,11.886,0.066777,0.061532,0,0,0
358.59,0.33158,11.903,0.066932,0.062124,0,0,0
359.59,0.33406,11.919,0.067799,0.062902,0,0,0
360.59,0.33681,11.935,0.068417,0.063771,0,0,0
361.59,0.34012,11.951,0.069035,0.064361,0,0,0
362.59,0.3434,11.968,0.069561,0.065168,0,0,0
363.59,0.34674,11.984,0.070147,0.066067,0,0,0
364.59,0.34946,12,0.070827,0.06619,0,0,0
365.59,0.35211,12.016,0.071443,0.066377,0,0,0
366.59,0.35436,12.032,0.072336,0.066748,0,0,0
367.59,0.35667,12.049,0.072983,0.067089,0,0,0
368.59,0.35949,12.063,0.073445,0.067399,0,0,0
369.59,0.36253,12.078,0.073814,0.067832,0,0,0
370.59,0.36598,12.094,0.074305,0.068821,0,0,0
371.59,0.36882,12.11,0.07492,0.069624,0,0,0
372.59,0.37121,12.125,0.075626,0.070211,0,0,0
373.59,0.37372,12.141,0.075902,0.070827,0,0,0
374.59,0.37664,12.156,0.076393,0.071721,0,0,0
375.59,0.37991,12.172,0.077252,0.07203,0,0,0
376.59,0.38345,12.187,0.077864,0.072338,0,0,0
377.59,0.38677,12.201,0.078384,0.072708,0,0,0
378.59,0.38978,12.216,0.078874,0.0732,0,0,0
379.59,0.39249,12.231,0.079486,0.073539,0,0,0
380.59,0.39544,12.246,0.079975,0.074216,0,0,0
381.59,0.39815,12.261,0.080555,0.075013,0,0,0
382.59,0.40133,12.275,0.081289,0.07575,0,0,0
383.59,0.40471,12.29,0.08202,0.076701,0,0,0
384.59,0.40756,12.304,0.0826,0.077192,0,0,0
385.59,0.4105,12.319,0.083392,0.078081,0,0,0
386.59,0.41282,12.333,0.084214,0.078784,0,0,0
387.59,0.41537,12.347,0.084792,0.079243,0,0,0
388.59,0.41802,12.361,0.085279,0.079671,0,0,0
389.59,0.42113,12.376,0.085917,0.079549,0,0,0
390.59,0.42457,12.39,0.086798,0.080038,0,0,0
391.59,0.42782,12.404,0.087526,0.080587,0,0,0
392.59,0.43089,12.418,0.088254,0.081442,0,0,0
393.59,0.43364,12.432,0.089223,0.082327,0,0,0
394.59,0.43646,12.446,0.08998,0.08312,0,0,0
395.59,0.4395,12.459,0.090404,0.084033,0,0,0
396.59,0.44291,12.473,0.090887,0.084734,0,0,0
397.59,0.44662,12.487,0.092036,0.085281,0,0,0
398.59,0.44996,12.501,0.092639,0.085889,0,0,0
399.59,0.45291,12.515,0.093575,0.086253,0,0,0
400.59,0.45572,12.528,0.094147,0.086374,0,0,0
401.59,0.45844,12.541,0.094871,0.086738,0,0,0
402.59,0.46132,12.555,0.095532,0.087224,0,0,0
403.59,0.46489,12.569,0.096254,0.088285,0,0,0
404.59,0.46837,12.581,0.096915,0.089163,0,0,0
405.59,0.47148,12.595,0.097396,0.08992,0,0,0
406.59,0.47406,12.608,0.098026,0.090767,0,0,0
407.59,0.47694,12.621,0.098626,0.091674,0,0,0
408.59,0.47943,12.635,0.099226,0.092218,0,0,0
409.59,0.48284,12.647,0.10004,0.092882,0,0,0
410.59,0.48628,12.661,0.10066,0.093093,0,0,0
411.59,0.49019,12.674,0.10138,0.093213,0,0,0
412.59,0.49327,12.686,0.10228,0.093696,0,0,0
413.59,0.49634,12.698,0.10297,0.09454,0,0,0
414.59,0.49939,12.711,0.10356,0.095112,0,0,0
415.59,0.50227,12.724,0.10446,0.096044,0,0,0
416.59,0.50578,12.737,0.10497,0.096976,0,0,0
417.59,0.50962,12.75,0.10586,0.097608,0,0,0
418.59,0.51326,12.762,0.10681,0.098418,0,0,0
419.59,0.51641,12.775,0.10732,0.099288,0,0,0
420.59,0.51922,12.787,0.10791,0.099647,0,0,0
421.59,0.52203,12.8,0.10913,0.10007,0,0,0
422.59,0.52501,12.811,0.10961,0.10028,0,0,0
423.59,0.52832,12.823,0.11014,0.10085,0,0,0
424.59,0.53183,12.835,0.11106,0.10174,0,0,0
425.59,0.53541,12.847,0.11186,0.10255,0,0,0
426.59,0.53839,12.86,0.11281,0.10345,0,0,0
427.59,0.54114,12.871,0.1134,0.10443,0,0,0
428.59,0.54398,12.883,0.11461,0.10536,0,0,0
429.59,0.54719,12.895,0.11493,0.1058,0,0,0
430.59,0.55057,12.907,0.11549,0.10634,0,0,0
431.59,0.55424,12.918,0.11596,0.10705,0,0,0
432.59,0.55792,12.93,0.11682,0.10762,0,0,0
433.59,0.56116,12.942,0.11758,0.10792,0,0,0
434.59,0.56414,12.953,0.11826,0.10875,0,0,0
435.59,0.56715,12.965,0.11911,0.10949,0,0,0
436.59,0.57063,12.976,0.11994,0.11041,0,0,0
437.59,0.57417,12.988,0.12114,0.11121,0,0,0
438.59,0.57798,12.999,0.12175,0.11183,0,0,0
439.59,0.58146,13.011,0.12199,0.11266,0,0,0
440.59,0.58457,13.022,0.12272,0.11358,0,0,0
441.59,0.58745,13.033,0.12331,0.11426,0,0,0
442.59,0.59053,13.045,0.12407,0.11485,0,0,0
443.59,0.59364,13.056,0.12442,0.11547,0,0,0
444.59,0.59725,13.068,0.12547,0.1157,0,0,0
445.59,0.60082,13.079,0.12597,0.11629,0,0,0
446.59,0.60413,13.09,0.12673,0.11738,0,0,0
447.59,0.60721,13.101,0.12731,0.11815,0,0,0
448.59,0.60999,13.112,0.12833,0.11871,0,0,0
449.59,0.6135,13.122,0.12868,0.11921,0,0,0
450.58,0.61681,13.135,0.12929,0.12012,0,0,0
451.58,0.62072,13.145,0.12996,0.12109,0,0,0
452.59,0.62466,13.156,0.13074,0.12188,0,0,0
453.58,0.6278,13.167,0.13159,0.12261,0,0,0
454.59,0.63125,13.178,0.13219,0.12346,0,0,0
455.59,0.63446,13.188,0.13243,0.12416,0,0,0
456.59,0.63774,13.199,0.13292,0.12486,0,0,0
457.58,0.64161,13.21,0.1335,0.12551,0,0,0
458.59,0.64565,13.219,0.13396,0.12624,0,0,0
459.58,0.64922,13.23,0.13503,0.12702,0,0,0
460.59,0.6525,13.241,0.13628,0.12775,0,0,0
461.59,0.65555,13.252,0.1372,0.12862,0,0,0
462.59,0.65866,13.262,0.13798,0.12941,0,0,0
463.58,0.66213,13.272,0.13896,0.13046,0,0,0
464.58,0.66587,13.282,0.13959,0.13127,0,0,0
465.58,0.66958,13.292,0.14005,0.13211,0,0,0
466.59,0.67289,13.303,0.14043,0.13284,0,0,0
467.59,0.67597,13.313,0.14112,0.1331,0,0,0
468.59,0.67905,13.323,0.1421,0.13348,0,0,0
469.59,0.68213,13.334,0.14313,0.1342,0,0,0
470.59,0.6859,13.343,0.14368,0.13507,0,0,0
471.59,0.69001,13.354,0.14473,0.13611,0,0,0
472.59,0.69348,13.363,0.14534,0.13686,0,0,0
473.58,0.69693,13.373,0.14614,0.13801,0,0,0
474.58,0.70017,13.383,0.14668,0.13893,0,0,0
475.58,0.70348,13.393,0.14708,0.13957,0,0,0
476.58,0.70709,13.403,0.14791,0.14026,0,0,0
477.59,0.71129,13.413,0.14882,0.14078,0,0,0
478.58,0.7151,13.423,0.14951,0.14127,0,0,0
479.58,0.71878,13.432,0.15031,0.14219,0,0,0
480.58,0.72228,13.443,0.15136,0.14322,0,0,0
481.58,0.72533,13.452,0.15253,0.14379,0,0,0
482.58,0.72871,13.462,0.15253,0.14485,0,0,0
483.58,0.73268,13.472,0.15307,0.14574,0,0,0
484.59,0.73659,13.481,0.15414,0.14651,0,0,0
485.58,0.74026,13.49,0.1546,0.14748,0,0,0
486.58,0.74404,13.501,0.15562,0.14854,0,0,0
487.58,0.74691,13.51,0.1559,0.14931,0,0,0
488.58,0.75019,13.519,0.15692,0.15045,0,0,0
489.58,0.75354,13.529,0.15766,0.15073,0,0,0
490.58,0.75764,13.538,0.15868,0.15159,0,0,0
491.59,0.76125,13.547,0.15947,0.1521,0,0,0
492.58,0.76499,13.556,0.16043,0.15298,0,0,0
493.58,0.76837,13.564,0.16079,0.15364,0,0,0
494.58,0.77165,13.573,0.16164,0.15466,0,0,0
495.58,0.77509,13.583,0.16268,0.15585,0,0,0
496.58,0.77899,13.593,0.16358,0.15703,0,0,0
497.58,0.78313,13.602,0.16386,0.15802,0,0,0
498.58,0.78707,13.61,0.16529,0.1589,0,0,0
499.58,0.79088,13.619,0.16639,0.16014,0,0,0
500.58,0.79439,13.628,0.16759,0.16076,0,0,0
501.58,0.7976,13.637,0.16888,0.1615,0,0,0
502.58,0.80144,13.646,0.16966,0.162,0,0,0
503.58,0.80544,13.655,0.16997,0.16248,0,0,0
504.58,0.80965,13.663,0.17052,0.16293,0,0,0
505.58,0.81332,13.672,0.17167,0.16355,0,0,0
506.58,0.81663,13.68,0.17225,0.16445,0,0,0
507.58,0.81985,13.689,0.17317,0.1656,0,0,0
508.58,0.82335,13.697,0.17437,0.16709,0,0,0
509.58,0.82716,13.706,0.17532,0.16823,0,0,0
510.58,0.8312,13.715,0.17637,0.16932,0,0,0
511.58,0.83514,13.723,0.17745,0.17055,0,0,0
512.59,0.83862,13.732,0.17781,0.17153,0,0,0
513.59,0.84203,13.74,0.17909,0.17234,0,0,0
514.59,0.84534,13.748,0.17986,0.173,0,0,0
515.59,0.84908,13.757,0.18044,0.17409,0,0,0
516.59,0.85298,13.766,0.18152,0.17476,0,0,0
517.59,0.85725,13.774,0.18251,0.17551,0,0,0
518.59,0.86129,13.782,0.18364,0.17612,0,0,0
519.59,0.86454,13.79,0.18508,0.17717,0,0,0
520.59,0.86821,13.799,0.18557,0.17822,0,0,0
521.59,0.87212,13.808,0.18706,0.17928,0,0,0
522.59,0.87616,13.816,0.18766,0.18033,0,0,0
523.59,0.88046,13.824,0.18835,0.18152,0,0,0
524.59,0.88453,13.832,0.1895,0.18262,0,0,0
525.59,0.88831,13.84,0.19013,0.18369,0,0,0
526.59,0.89198,13.848,0.19142,0.18482,0,0,0
527.59,0.89533,13.857,0.19267,0.18601,0,0,0
528.59,0.89946,13.865,0.19336,0.18666,0,0,0
529.59,0.90377,13.873,0.19445,0.18702,0,0,0
530.59,0.90784,13.881,0.19532,0.18774,0,0,0
531.59,0.91145,13.89,0.19627,0.18828,0,0,0
532.59,0.91499,13.897,0.19717,0.18916,0,0,0
533.59,0.91846,13.905,0.19823,0.19064,0,0,0
534.59,0.92247,13.913,0.19928,0.19184,0,0,0
535.59,0.92668,13.92,0.20056,0.19296,0,0,0
536.59,0.93088,13.928,0.20161,0.19427,0,0,0
537.59,0.93432,13.937,0.20245,0.19523,0,0,0
538.59,0.93806,13.944,0.20364,0.19642,0,0,0
539.59,0.94161,13.951,0.20435,0.19678,0,0,0
540.59,0.94545,13.959,0.20586,0.19778,0,0,0
541.59,0.94972,13.967,0.20721,0.19851,0,0,0
542.59,0.95429,13.974,0.20777,0.19963,0,0,0
543.59,0.95826,13.982,0.20839,0.20117,0,0,0
544.59,0.96206,13.989,0.2093,0.20241,0,0,0
545.59,0.96587,13.997,0.21088,0.20325,0,0,0
546.59,0.96998,14.005,0.21196,0.20444,0,0,0
547.59,0.97411,14.012,0.21375,0.20541,0,0,0
548.59,0.97849,14.019,0.21474,0.20627,0,0,0
549.59,0.98266,14.026,0.21576,0.20751,0,0,0
550.59,0.98643,14.033,0.21733,0.2088,0,0,0
551.59,0.99014,14.041,0.21858,0.21006,0,0,0
552.59,0.99398,14.048,0.21972,0.21089,0,0,0
553.59,0.99818,14.055,0.22084,0.21181,0,0,0
554.59,1.0027,14.063,0.22201,0.2129,0,0,0
555.59,1.007,14.07,0.22267,0.21405,0,0,0
556.59,1.0109,14.077,0.22339,0.21499,0,0,0
557.59,1.0145,14.084,0.22437,0.21614,0,0,0
558.59,1.018,14.091,0.2258,0.21787,0,0,0
559.59,1.0222,14.098,0.22677,0.21901,0,0,0
560.59,1.0268,14.105,0.22857,0.2209,0,0,0
561.59,1.0309,14.112,0.22965,0.22225,0,0,0
562.59,1.035,14.119,0.23125,0.2231,0,0,0
563.59,1.0386,14.126,0.23254,0.22376,0,0,0
564.59,1.0425,14.133,0.23343,0.22503,0,0,0
565.59,1.0465,14.139,0.23487,0.22598,0,0,0
566.59,1.051,14.146,0.23558,0.22754,0,0,0
567.59,1.0556,14.153,0.23663,0.22857,0,0,0
568.59,1.0597,14.159,0.23746,0.22986,0,0,0
569.59,1.0638,14.166,0.23874,0.23151,0,0,0
570.59,1.0674,14.173,0.24041,0.23277,0,0,0
571.59,1.0713,14.18,0.24089,0.23403,0,0,0
572.59,1.0759,14.187,0.2425,0.23549,0,0,0
573.59,1.0807,14.193,0.2441,0.23651,0,0,0
574.59,1.0851,14.2,0.24584,0.23727,0,0,0
575.58,1.089,14.207,0.24745,0.23847,0,0,0
576.59,1.093,14.213,-Inf,0.23941,0,0,0
577.59,1.0973,14.219,-Inf,0.24165,0,0,0
578.59,1.1013,14.225,-Inf,0.24264,0,0,0
579.59,1.106,14.231,-Inf,0.24375,0,0,0
580.59,1.1105,14.237,-Inf,0.24502,0,0,0
581.59,1.1145,14.244,-Inf,0.2464,0,0,0
582.58,1.1185,14.25,-Inf,0.24803,0,0,0
583.58,1.1224,14.257,-Inf,0.24913,0,0,0
584.59,1.1266,14.263,-Inf,0.25045,0,0,0
585.58,1.1314,14.269,-Inf,0.25207,0,0,0
586.59,1.1358,14.276,-Inf,0.25385,0,0,0
587.58,1.1398,14.282,-Inf,0.25521,0,0,0
588.58,1.1441,14.288,-Inf,0.25628,0,0,0
589.58,1.148,14.293,-Inf,0.25795,0,0,0
590.59,1.1522,14.299,-Inf,0.25946,0,0,0
591.58,1.1569,14.305,-Inf,0.26109,0,0,0
592.58,1.1613,14.312,-Inf,0.26244,0,0,0
593.58,1.1652,14.318,-Inf,0.26356,0,0,0
594.58,1.1697,14.324,-Inf,0.26514,0,0,0
595.58,1.1738,14.33,-Inf,0.26671,0,0,0
596.58,1.1786,14.336,-Inf,0.26813,0,0,0
597.59,1.1835,14.342,-Inf,0.26962,0,0,0
598.59,1.1879,14.347,-Inf,0.27084,0,0,0
599.58,1.1922,14.353,-Inf,0.2722,0,0,0
600.58,1.1964,14.359,-Inf,0.27397,0,0,0
601.59,1.2009,14.365,-Inf,0.2758,0,0,0
602.58,1.2056,14.37,-Inf,0.27688,0,0,0
603.58,1.2106,14.376,-Inf,0.27864,0,0,0
604.58,1.2151,14.381,-Inf,0.27961,0,0,0
605.58,1.2194,14.387,-Inf,0.28117,0,0,0
606.58,1.2239,14.393,-Inf,0.28219,0,0,0
607.58,1.2283,14.398,-Inf,0.28384,0,0,0
608.58,1.2328,14.403,-Inf,0.28536,0,0,0
609.58,1.2379,14.408,-Inf,0.28698,0,0,0
610.58,1.2423,14.413,-Inf,0.28879,0,0,0
611.58,1.2469,14.419,-Inf,0.29087,0,0,0
612.58,1.2511,14.424,-Inf,0.29233,0,0,0
613.58,1.2554,14.429,-Inf,0.29388,0,0,0
614.58,1.26,14.434,-Inf,0.29519,0,0,0
615.58,1.2649,14.439,-Inf,0.29711,0,0,0
616.58,1.2695,14.444,-Inf,0.29943,0,0,0
617.58,1.2739,14.45,-Inf,-Inf,0,0,0
618.58,1.2785,14.455,-Inf,-Inf,0,0,0
619.58,1.2826,14.46,-Inf,-Inf,0,0,0
620.58,1.2875,14.464,-Inf,-Inf,0,0,0
621.58,1.2921,14.469,-Inf,-Inf,0,0,0
622.59,1.2972,14.474,-Inf,-Inf,0,0,0
623.58,1.3015,14.479,-Inf,-Inf,0,0,0
624.58,1.3057,14.483,-Inf,-Inf,0,0,0
625.58,1.3104,14.488,-Inf,-Inf,0,0,0
626.58,1.3155,14.493,-Inf,-Inf,0,0,0
627.58,1.3204,14.497,-Inf,-Inf,0,0,0
628.58,1.3254,14.502,-Inf,-Inf,0,0,0
629.58,1.3297,14.507,-Inf,-Inf,0,0,0
630.58,1.3343,14.511,-Inf,-Inf,0,0,0
631.58,1.3391,14.515,-Inf,-Inf,0,0,0
632.58,1.3442,14.519,-Inf,-Inf,0,0,0
633.58,1.3491,14.523,-Inf,-Inf,0,0,0
634.58,1.3544,14.528,-Inf,-Inf,0,0,0
635.58,1.3588,14.532,-Inf,-Inf,0,0,0
636.58,1.3634,14.536,-Inf,-Inf,0,0,0
637.58,1.3686,14.541,-Inf,-Inf,0,0,0
638.58,1.3736,14.545,-Inf,-Inf,0,0,0
639.58,1.3788,14.549,-Inf,-Inf,0,0,0
640.58,1.3839,14.553,-Inf,-Inf,0,0,0
641.58,1.3883,14.557,-Inf,-Inf,0,0,0
642.58,1.3932,14.561,-Inf,-Inf,0,0,0
643.58,1.398,14.565,-Inf,-Inf,0,0,0
644.58,1.404,14.569,-Inf,-Inf,0,0,0
645.58,1.4086,14.572,-Inf,-Inf,0,0,0
646.58,1.4135,14.575,-Inf,-Inf,0,0,0
647.58,1.4176,14.579,-Inf,-Inf,0,0,0
648.58,1.4227,14.583,-Inf,-Inf,0,0,0
649.58,1.4282,14.586,-Inf,-Inf,0,0,0
650.58,1.4338,14.59,-Inf,-Inf,0,0,0
651.58,1.4387,14.593,-Inf,-Inf,0,0,0
652.58,1.4437,14.597,-Inf,-Inf,0,0,0
653.58,1.4484,14.599,-Inf,-Inf,0,0,0
654.58,1.4534,14.602,-Inf,-Inf,0,0,0
655.58,1.4588,14.605,-Inf,-Inf,0,0,0
656.58,1.4644,14.608,-Inf,-Inf,0,0,0
657.58,1.4694,14.611,-Inf,-Inf,0,0,0
658.58,1.4743,14.614,-Inf,-Inf,0,0,0
659.58,1.4794,14.616,-Inf,-Inf,0,0,0
660.58,1.4847,14.619,-Inf,-Inf,0,0,0
661.58,1.4903,14.622,-Inf,-Inf,0,0,0
662.58,1.4955,14.624,-Inf,-Inf,0,0,0
663.58,1.5007,14.626,-Inf,-Inf,0,0,0
664.58,1.5057,14.629,-Inf,-Inf,0,0,0
665.58,1.5113,14.631,-Inf,-Inf,0,0,0
666.58,1.5168,14.633,-Inf,-Inf,0,0,0
667.58,1.5226,14.634,-Inf,-Inf,0,0,0
668.58,1.5279,14.637,-Inf,-Inf,0,0,0
669.58,1.5332,14.638,-Inf,-Inf,0,0,0
670.58,1.5385,14.64,-Inf,-Inf,0,0,0
671.58,1.5442,14.641,-Inf,-Inf,0,0,0
672.58,1.55,14.642,-Inf,-Inf,0,0,0
673.58,1.5558,14.644,-Inf,-Inf,0,0,0
674.58,1.5614,14.645,-Inf,-Inf,0,0,0
675.58,1.5667,14.645,-Inf,-Inf,0,0,0
676.58,1.5722,14.647,-Inf,-Inf,0,0,0
677.58,1.5784,14.647,-Inf,-Inf,0,0,0
678.58,1.5844,14.647,-Inf,-Inf,0,0,0
679.58,1.5904,14.648,-Inf,-Inf,0,0,0
680.58,1.596,14.648,-Inf,-Inf,0,0,0
681.58,1.6018,14.647,-Inf,-Inf,0,0,0
682.58,1.6076,14.647,-Inf,-Inf,0,0,0
683.58,1.614,14.646,-Inf,-Inf,0,0,0
684.58,1.6201,14.645,-Inf,-Inf,0,0,0
685.58,1.6258,14.644,-Inf,-Inf,0,0,0
686.58,1.6317,14.643,-Inf,-Inf,0,0,0
687.58,1.638,14.641,-Inf,-Inf,0,0,0
688.58,1.6444,14.639,-Inf,-Inf,0,0,0
689.58,1.6507,14.636,-Inf,-Inf,0,0,0
690.58,1.657,14.633,-Inf,-Inf,0,0,0
691.58,1.663,14.629,-Inf,-Inf,0,0,0
692.58,1.6693,14.626,-Inf,-Inf,0,0,0
693.58,1.6761,14.621,-Inf,-Inf,0,0,0
694.58,1.6829,14.617,-Inf,-Inf,0,0,0
695.58,1.6892,14.611,-Inf,-Inf,0,0,0
696.58,1.6953,14.605,-Inf,-Inf,0,0,0
697.58,1.7022,14.598,-Inf,-Inf,0,0,0
698.58,1.7093,14.59,-Inf,-Inf,0,0,0
699.58,1.7163,14.58,-Inf,-Inf,0,0,0
700.58,1.7231,14.568,-Inf,-Inf,0,0,0
701.58,1.7298,14.556,-Inf,-Inf,0,0,0
702.58,1.7371,14.543,-Inf,-Inf,0,0,0
703.58,1.7451,14.529,-Inf,-Inf,0,0,0
704.58,1.7527,14.51,-Inf,-Inf,0,0,0
705.58,1.7603,14.487,-Inf,-Inf,0,0,0
706.58,1.7686,14.461,-Inf,-Inf,0,0,0
707.58,1.7776,14.424,-Inf,-Inf,0,0,0
708.58,1.7869,14.382,-Inf,-Inf,0,0,0
709.58,1.7957,14.339,-Inf,-Inf,0,0,0
710.08,1.8006,14.315,-Inf,-Inf,0,0,0