File: LAB_DATA/DP600_results/DATA/CH_90_2.csv
Time[s],Displacement[mm],Force[kN],AxStrain_1,AxStrain_2,Thickness[mm],OuterWidth[mm],Diameter[mm]
0.59,0,-0.018095,0,0,1.5296,20,4.8562
1.59,0.000283,-0.021564,0.00027096,0.00019398,0,0,0
2.59,0.000421,0.019722,0.00030695,0.00013699,0,0,0
3.59,0.000418,0.08644,0.00049288,0.00012499,0,0,0
4.59,0.00064,0.14086,0.00026696,5e-06,0,0,0
5.59,0.000676,0.19215,0.00058983,0.00015299,0,0,0
6.59,0.000938,0.23929,0.00026796,0.00022897,0,0,0
7.59,0.000983,0.27558,0.00057284,2.5e-05,0,0,0
8.59,0.000939,0.31315,0.00042191,0.00022098,0,0,0
9.59,0.000949,0.35043,0.00038693,-6.6002e-05,0,0,0
10.59,0.001234,0.385,0.00013499,1.9e-05,0,0,0
11.59,0.001139,0.42229,0.00014099,1.5e-05,0,0,0
12.59,0.001146,0.46072,0.00028196,4e-06,0,0,0
13.59,0.00143,0.49658,0.00028596,0.00010899,0,0,0
14.59,0.001766,0.53215,0.00040692,4.6999e-05,0,0,0
15.59,0.001622,0.56915,0.00056584,0.00018898,0,0,0
16.59,0.001715,0.60743,0.00038093,0.00033095,0,0,0
17.59,0.001913,0.64715,0.00031395,0.00029096,0,0,0
18.59,0.001774,0.68743,0.00059582,0.00013199,0,0,0
19.59,0.00193,0.72486,0.00054285,0.00021198,0,0,0
20.59,0.00198,0.76586,0.00049288,0.00031095,0,0,0
21.59,0.002059,0.80686,0.00059882,7.5997e-05,0,0,0
22.59,0.002152,0.84615,0.00024197,0.00017498,0,0,0
23.59,0.002523,0.88686,0.00038693,6.5998e-05,0,0,0
24.59,0.002725,0.92743,0.00050287,0.00018498,0,0,0
25.59,0.003089,0.96843,0.0007777,0.0004539,0,0,0
26.59,0.002983,1.0101,0.00060282,0.0006258,0,0,0
27.59,0.003162,1.0517,0.00072474,0.00060282,0,0,0
28.59,0.003291,1.0909,0.00073773,0.00046689,0,0,0
29.59,0.003138,1.1329,0.00067877,0.00039092,0,0,0
30.59,0.003135,1.1757,0.00067477,0.00040392,0,0,0
31.59,0.003281,1.2163,0.00073473,0.00033394,0,0,0
32.59,0.003354,1.2571,0.00055585,0.00024497,0,0,0
33.59,0.00342,1.2987,0.00024797,0.00027096,0,0,0
34.59,0.003959,1.339,0.00040692,0.00029096,0,0,0
35.59,0.004413,1.3831,0.00050987,0.00038393,0,0,0
36.59,0.004436,1.423,0.00061181,0.00054985,0,0,0
37.59,0.004714,1.4647,0.00065179,0.00064879,0,0,0
38.59,0.004512,1.506,0.00085364,0.00060582,0,0,0
39.59,0.004463,1.5473,0.00087062,0.00048688,0,0,0
40.59,0.004386,1.5881,0.00064579,0.00033095,0,0,0
41.59,0.004357,1.6301,0.00056584,0.00031795,0,0,0
42.59,0.004509,1.6721,0.00055585,0.00026796,0,0,0
43.59,0.004678,1.7139,0.00046289,0.00020498,0,0,0
44.59,0.005078,1.7551,0.00051986,0.00042691,0,0,0
45.59,0.005608,1.7947,0.00078769,0.00034794,0,0,0
46.59,0.006121,1.8357,0.00061881,0.00065179,0,0,0
47.59,0.006257,1.877,0.00081367,0.00035794,0,0,0
48.59,0.006217,1.9169,0.0010624,0.00081767,0,0,0
49.59,0.005873,1.9564,0.0008996,0.00083365,0,0,0
50.59,0.005625,1.9981,0.00072774,0.00056884,0,0,0
51.59,0.005764,2.0394,0.00084764,0.00051287,0,0,0
52.59,0.005836,2.0787,0.00069176,0.00038393,0,0,0
53.59,0.006124,2.1219,0.0006258,0.00029796,0,0,0
54.59,0.006515,2.1607,0.0007777,0.00056884,0,0,0
55.59,0.006972,2.2017,0.00069176,0.00067177,0,0,0
56.59,0.007449,2.242,0.00086363,0.00069476,0,0,0
57.59,0.007955,2.2813,0.00087062,0.00082066,0,0,0
58.59,0.007925,2.3209,0.00092957,0.00072474,0,0,0
59.59,0.007551,2.3614,0.00098951,0.0009965,0,0,0
60.59,0.007147,2.4024,0.00085364,0.00073173,0,0,0
61.59,0.007114,2.4434,0.0010195,0.00067577,0,0,0
62.59,0.007247,2.4844,0.0011184,0.00070775,0,0,0
63.59,0.007277,2.5233,0.00084364,0.00068876,0,0,0
64.59,0.007356,2.5614,0.00084065,0.00080767,0,0,0
65.59,0.00818,2.5996,0.0008906,0.00076471,0,0,0
66.59,0.008885,2.6399,0.0007807,0.00084364,0,0,0
67.59,0.009382,2.6806,0.00088061,0.00093356,0,0,0
68.59,0.009276,2.7197,0.0011973,0.00084065,0,0,0
69.59,0.009289,2.759,0.0012372,0.00087362,0,0,0
70.59,0.008697,2.7997,0.0012742,0.00091958,0,0,0
71.59,0.008462,2.8403,0.0011543,0.00092657,0,0,0
72.59,0.008445,2.8796,0.0012113,0.00074772,0,0,0
73.59,0.008733,2.9206,0.00087662,0.00087362,0,0,0
74.59,0.009041,2.9616,0.00094655,0.0007777,0,0,0
75.59,0.009571,3.0019,0.00080767,0.00071774,0,0,0
76.59,0.010415,3.0419,0.00082066,0.0008966,0,0,0
77.59,0.010941,3.0826,0.0010025,0.00097253,0,0,0
78.59,0.011216,3.1214,0.001439,0.0012143,0,0,0
79.59,0.010961,3.161,0.0012902,0.00084764,0,0,0
80.59,0.010527,3.202,0.0013731,0.0012542,0,0,0
81.59,0.009998,3.2399,0.0012043,0.0010924,0,0,0
82.59,0.009902,3.2806,0.0012672,0.00096254,0,0,0
83.59,0.010173,3.3209,0.0009995,0.0010195,0,0,0
84.59,0.010269,3.3616,0.0011483,0.00098252,0,0,0
85.59,0.010911,3.4023,0.0011254,0.00079468,0,0,0
86.59,0.01155,3.4411,0.0010954,0.00090659,0,0,0
87.59,0.012249,3.48,0.0011743,0.0011154,0,0,0
88.59,0.01261,3.52,0.001379,0.0013531,0,0,0
89.59,0.012269,3.56,0.0016207,0.0013501,0,0,0
90.59,0.011875,3.5979,0.0013701,0.0012243,0,0,0
91.59,0.011415,3.6376,0.001429,0.0011483,0,0,0
92.59,0.011372,3.6769,0.0013501,0.0010425,0,0,0
93.59,0.011504,3.7166,0.0013531,0.0010225,0,0,0
94.59,0.01167,3.7559,0.0011713,0.0013071,0,0,0
95.59,0.012292,3.7947,0.0011713,0.0010055,0,0,0
96.59,0.013179,3.8333,0.0012342,0.0011583,0,0,0
97.59,0.013967,3.8726,0.0012932,0.0012372,0,0,0
98.59,0.014457,3.9126,0.0014989,0.0016936,0,0,0
99.59,0.01401,3.9501,0.0016706,0.0016337,0,0,0
100.59,0.013613,3.9891,0.0017495,0.0015248,0,0,0
101.59,0.013255,4.0289,0.0018623,0.0013561,0,0,0
102.59,0.01299,4.0681,0.0016337,0.001379,0,0,0
103.59,0.012868,4.1071,0.001406,0.0011613,0,0,0
104.59,0.013391,4.1454,0.0013231,0.0013101,0,0,0
105.59,0.013904,4.1833,0.0015847,0.0013561,0,0,0
106.59,0.014623,4.223,0.0016606,0.001393,0,0,0
107.59,0.015367,4.263,0.0016506,0.0016506,0,0,0
108.59,0.015698,4.3006,0.0018653,0.0017395,0,0,0
109.59,0.015788,4.3396,0.002017,0.0017864,0,0,0
110.59,0.015702,4.3786,0.0018523,0.0016866,0,0,0
111.59,0.015195,4.4179,0.0017195,0.0015877,0,0,0
112.59,0.014666,4.4576,0.0017864,0.0016866,0,0,0
113.59,0.014699,4.4954,0.0016536,0.0015548,0,0,0
114.59,0.014732,4.5333,0.0017535,0.0014559,0,0,0
115.59,0.015593,4.5723,0.0014889,0.0015877,0,0,0
116.59,0.016089,4.6113,0.0015877,0.0014889,0,0,0
117.59,0.01695,4.6486,0.0017195,0.0017535,0,0,0
118.59,0.017645,4.6876,0.0018852,0.0018193,0,0,0
119.59,0.017711,4.7261,0.0022485,0.001984,0,0,0
120.59,0.017546,4.7651,0.0022485,0.0019511,0,0,0
121.59,0.017115,4.8039,0.0020838,0.0018193,0,0,0
122.59,0.016586,4.8414,0.0020509,0.0016536,0,0,0
123.59,0.016387,4.8793,0.0018523,0.0017195,0,0,0
124.59,0.016553,4.9183,0.0018193,0.0016536,0,0,0
125.59,0.017281,4.9573,0.0017535,0.0018852,0,0,0
126.59,0.018042,4.9939,0.0018193,0.0016866,0,0,0
127.59,0.018771,5.0326,0.0018193,0.0018193,0,0,0
128.59,0.019267,5.0716,0.0020509,0.0020509,0,0,0
129.59,0.019499,5.1106,0.0021168,0.0022814,0,0,0
130.59,0.019598,5.1491,0.0023812,0.0022485,0,0,0
131.59,0.0193,5.1867,0.0021826,0.0021826,0,0,0
132.59,0.018737,5.2236,0.0020838,0.0020838,0,0,0
133.59,0.018539,5.2623,0.0020509,0.0019182,0,0,0
134.59,0.018572,5.3006,0.0018193,0.0020509,0,0,0
135.59,0.018903,5.3369,0.0018193,0.0018852,0,0,0
136.59,0.019664,5.3784,0.0019511,0.0019511,0,0,0
137.59,0.020227,5.4167,0.0018193,0.001984,0,0,0
138.59,0.020889,5.4529,0.0022155,0.0021826,0,0,0
139.59,0.021518,5.4943,0.0021826,0.0022155,0,0,0
140.59,0.021585,5.5333,0.0024141,0.0026445,0,0,0
141.59,0.021121,5.5706,0.0023143,0.0025458,0,0,0
142.59,0.020956,5.6091,0.0021826,0.0025458,0,0,0
143.59,0.020393,5.6471,0.0022814,0.0021168,0,0,0
144.59,0.020591,5.6861,0.0023143,0.002017,0,0,0
145.59,0.020856,5.7261,0.0021497,0.0021497,0,0,0
146.59,0.021684,5.7644,0.0021168,0.0021826,0,0,0
147.59,0.022379,5.8006,0.0021168,0.0025787,0,0,0
148.59,0.022909,5.8406,0.0024799,0.0025458,0,0,0
149.59,0.023405,5.88,0.0026784,0.0026445,0,0,0
150.59,0.02367,5.9176,0.0027771,0.0027771,0,0,0
151.59,0.02324,5.9559,0.0029417,0.0029746,0,0,0
152.59,0.023107,5.9934,0.0026116,0.0027771,0,0,0
153.59,0.022909,6.032,0.0027113,0.0025128,0,0,0
154.59,0.022909,6.0719,0.002447,0.002447,0,0,0
155.59,0.023008,6.1091,0.0026116,0.0025128,0,0,0
156.59,0.024067,6.1443,0.0027442,0.0026784,0,0,0
157.59,0.02463,6.1846,0.0027442,0.0027442,0,0,0
158.59,0.025193,6.2236,0.0029088,0.0030085,0,0,0
159.59,0.025656,6.2599,0.0032387,0.0032387,0,0,0
160.59,0.025988,6.2986,0.0032387,0.0035029,0,0,0
161.59,0.026087,6.3357,0.0034042,0.0035357,0,0,0
162.59,0.025756,6.3737,0.0032059,0.0034042,0,0,0
163.59,0.025855,6.4136,0.0032059,0.0033055,0,0,0
164.59,0.025756,6.4507,0.0030085,0.0030414,0,0,0
165.59,0.026087,6.4859,0.0030743,0.0030414,0,0,0
166.59,0.026782,6.5263,0.0030085,0.0032716,0,0,0
167.59,0.027279,6.5646,0.0031072,0.00347,0,0,0
168.59,0.028106,6.6016,0.0030414,0.0034371,0,0,0
169.59,0.028272,6.6399,0.0032387,0.0037011,0,0,0
170.59,0.028636,6.6771,0.0035357,0.0040309,0,0,0
171.59,0.028735,6.7151,0.0041295,0.0038655,0,0,0
172.59,0.028835,6.7541,0.0036015,0.0037998,0,0,0
173.59,0.02943,6.7917,0.0035357,0.0034371,0,0,0
174.59,0.029364,6.8269,0.0033713,0.0037011,0,0,0
175.59,0.029397,6.8666,0.0033384,0.0035686,0,0,0
176.59,0.029795,6.9046,0.0032387,0.00347,0,0,0
177.59,0.03049,6.9401,0.0032716,0.0034371,0,0,0
178.59,0.030953,6.9793,0.00347,0.0039651,0,0,0
179.59,0.031284,7.0153,0.0037669,0.0041952,0,0,0
180.59,0.031483,7.0521,0.0040637,0.0046571,0,0,0
181.59,0.031781,7.0899,0.0043276,0.00469,0,0,0
182.59,0.032046,7.1264,0.0040966,0.0045586,0,0,0
183.59,0.032542,7.1616,0.0041952,0.0043276,0,0,0
184.59,0.03284,7.201,0.0038326,0.0041295,0,0,0
185.59,0.033105,7.2369,0.003734,0.0041952,0,0,0
186.59,0.033701,7.2726,0.0039651,0.003998,0,0,0
187.59,0.0339,7.3109,0.0039651,0.0041962,0,0,0
188.59,0.034363,7.3461,0.0040637,0.004459,0,0,0
189.59,0.034661,7.3829,0.0047557,0.0048542,0,0,0
190.59,0.035058,7.4189,0.0048214,0.0050194,0,0,0
191.59,0.035356,7.4544,0.0052174,0.0054471,0,0,0
192.59,0.036018,7.4914,0.004888,0.0053815,0,0,0
193.59,0.036515,7.5277,0.0049865,0.0049865,0,0,0
194.59,0.036978,7.563,0.0047885,0.0051845,0,0,0
195.59,0.037939,7.5973,0.004459,0.0048214,0,0,0
196.59,0.038468,7.6346,0.0047557,0.0049537,0,0,0
197.59,0.038601,7.6696,0.0045576,0.005085,0,0,0
198.59,0.038965,7.7059,0.0050194,0.0056122,0,0,0
199.59,0.03913,7.7419,0.00548,0.0057435,0,0,0
200.59,0.039395,7.776,0.005645,0.0064352,0,0,0
201.59,0.039892,7.8107,0.0058429,0.0067641,0,0,0
202.59,0.040686,7.8457,0.0059413,0.0067968,0,0,0
203.59,0.04158,7.8806,0.0057107,0.0062375,0,0,0
204.59,0.042805,7.9146,0.0057435,0.0061391,0,0,0
205.59,0.043633,7.9513,0.0055466,0.0059741,0,0,0
206.59,0.04403,7.9846,0.0054471,0.0061063,0,0,0
207.59,0.044295,8.0191,0.0058429,0.0063359,0,0,0
208.59,0.044328,8.0546,0.0059741,0.0065992,0,0,0
209.59,0.044494,8.0884,0.0063687,0.0071256,0,0,0
210.59,0.044759,8.123,0.0066975,0.0078154,0,0,0
211.59,0.045619,8.1584,0.0073221,0.0080783,0,0,0
212.59,0.046281,8.1916,0.0072238,0.0079801,0,0,0
213.59,0.047572,8.2246,0.0072566,0.0079136,0,0,0
214.59,0.049062,8.2613,0.0069935,0.0076844,0,0,0
215.59,0.050122,8.2939,0.0070263,0.0075197,0,0,0
216.59,0.050717,8.3281,0.0066975,0.0073886,0,0,0
217.59,0.051379,8.3629,0.0068296,0.0077499,0,0,0
218.59,0.051578,8.3957,0.0073221,0.0081437,0,0,0
219.59,0.051644,8.4297,0.0077171,0.0086039,0,0,0
220.59,0.052273,8.4637,0.008111,0.0094561,0,0,0
221.59,0.052969,8.4959,0.0086693,0.009883,0,0,0
222.59,0.054392,8.5283,0.0088002,0.010145,0,0,0
223.59,0.056047,8.5631,0.0087347,0.0099157,0,0,0
224.59,0.057239,8.5956,0.0083738,0.0096206,0,0,0
225.59,0.058398,8.6286,0.0083738,0.0094571,0,0,0
226.59,0.059159,8.6619,0.0082092,0.0096206,0,0,0
227.59,0.059987,8.694,0.0083411,0.0097186,0,0,0
228.59,0.060649,8.7267,0.0089974,0.010113,0,0,0
229.59,0.061146,8.759,0.0094888,0.011128,0,0,0
230.59,0.06204,8.7909,0.010079,0.011684,0,0,0
231.59,0.063033,8.8214,0.010799,0.011913,0,0,0
232.59,0.064457,8.8556,0.010767,0.012176,0,0,0
233.59,0.065351,8.8859,0.010669,0.012109,0,0,0
234.59,0.066509,8.9174,0.010407,0.011717,0,0,0
235.59,0.067668,8.9499,0.010309,0.01175,0,0,0
236.59,0.068661,8.98,0.010407,0.01175,0,0,0
237.59,0.069522,9.011,0.010374,0.012012,0,0,0
238.59,0.071012,9.0423,0.010833,0.012404,0,0,0
239.59,0.0727,9.0721,0.011651,0.013286,0,0,0
240.59,0.074223,9.1016,0.01224,0.01394,0,0,0
241.59,0.075282,9.1339,0.012664,0.014364,0,0,0
242.59,0.076739,9.1629,0.012894,0.014853,0,0,0
243.59,0.077434,9.1931,0.01309,0.014822,0,0,0
244.59,0.07803,9.2227,0.012926,0.014723,0,0,0
245.59,0.079156,9.252,0.012861,0.014626,0,0,0
246.59,0.080314,9.2831,0.012731,0.014658,0,0,0
247.59,0.081705,9.3123,0.012796,0.014919,0,0,0
248.59,0.083559,9.3404,0.013417,0.015343,0,0,0
249.59,0.085578,9.3691,0.014102,0.016125,0,0,0
250.59,0.087465,9.4004,0.014592,0.016776,0,0,0
251.59,0.089154,9.4289,0.015244,0.017329,0,0,0
252.59,0.090048,9.4581,0.015603,0.017622,0,0,0
253.59,0.09081,9.486,0.015635,0.018175,0,0,0
254.59,0.0922,9.515,0.015733,0.018273,0,0,0
255.59,0.093392,9.5451,0.015603,0.018013,0,0,0
256.59,0.094948,9.5733,0.015374,0.018142,0,0,0
257.59,0.096769,9.6001,0.015831,0.018305,0,0,0
258.59,0.098425,9.6304,0.016352,0.018729,0,0,0
259.59,0.10001,9.6599,0.016547,0.019215,0,0,0
260.59,0.10134,9.6871,0.017426,0.019897,0,0,0
261.59,0.10303,9.7159,0.018012,0.020545,0,0,0
262.59,0.10465,9.743,0.018369,0.021097,0,0,0
263.59,0.10663,9.7706,0.018466,0.021,0,0,0
264.59,0.10865,9.7994,0.018597,0.021616,0,0,0
265.59,0.111,9.8263,0.018694,0.021551,0,0,0
266.59,0.11322,9.8507,0.018922,0.021811,0,0,0
267.59,0.11458,9.8801,0.018856,0.022134,0,0,0
268.59,0.11607,9.9074,0.019279,0.022524,0,0,0
269.59,0.11726,9.9334,0.020188,0.022782,0,0,0
270.59,0.11849,9.9607,0.02048,0.023204,0,0,0
271.59,0.11991,9.9866,0.021128,0.023559,0,0,0
272.59,0.12206,10.013,0.021388,0.024172,0,0,0
273.59,0.12451,10.04,0.021712,0.024496,0,0,0
274.59,0.1268,10.066,0.021808,0.025014,0,0,0
275.59,0.12852,10.091,0.021744,0.025304,0,0,0
276.59,0.13057,10.118,0.021906,0.025788,0,0,0
277.59,0.13216,10.144,0.022068,0.026111,0,0,0
278.59,0.13395,10.169,0.022715,0.026466,0,0,0
279.59,0.1359,10.194,0.023103,0.026788,0,0,0
280.59,0.13829,10.219,0.023394,0.026916,0,0,0
281.59,0.14064,10.244,0.02388,0.027496,0,0,0
282.59,0.14292,10.27,0.02459,0.027818,0,0,0
283.59,0.14451,10.294,0.024849,0.02843,0,0,0
284.59,0.14613,10.318,0.024881,0.02872,0,0,0
285.59,0.14726,10.343,0.025172,0.02917,0,0,0
286.59,0.14891,10.368,0.025753,0.029556,0,0,0
287.59,0.15107,10.392,0.026075,0.029974,0,0,0
288.59,0.15345,10.416,0.026397,0.030391,0,0,0
289.59,0.15676,10.44,0.026881,0.030648,0,0,0
290.59,0.15878,10.463,0.027332,0.030777,0,0,0
291.59,0.16106,10.487,0.02746,0.031194,0,0,0
292.59,0.16298,10.511,0.027976,0.031451,0,0,0
293.59,0.16481,10.533,0.028202,0.031965,0,0,0
294.59,0.16712,10.558,0.028845,0.03238,0,0,0
295.59,0.16967,10.58,0.028973,0.033149,0,0,0
296.59,0.17232,10.603,0.02952,0.033598,0,0,0
297.59,0.17467,10.626,0.029841,0.03395,0,0,0
298.59,0.17666,10.648,0.030034,0.034559,0,0,0
299.59,0.17818,10.671,0.030356,0.035038,0,0,0
300.59,0.18013,10.694,0.030741,0.035294,0,0,0
301.59,0.18172,10.717,0.030966,0.035678,0,0,0
302.59,0.18391,10.739,0.031318,0.035997,0,0,0
303.59,0.18639,10.762,0.031896,0.036539,0,0,0
304.59,0.1897,10.784,0.032153,0.037051,0,0,0
305.59,0.19215,10.806,0.032601,0.037657,0,0,0
306.59,0.1946,10.826,0.033241,0.038263,0,0,0
307.59,0.19666,10.849,0.033722,0.038231,0,0,0
308.59,0.19881,10.871,0.034042,0.038741,0,0,0
309.59,0.20093,10.891,0.034298,0.038964,0,0,0
310.59,0.20361,10.913,0.034489,0.039569,0,0,0
311.59,0.20639,10.934,0.034906,0.040141,0,0,0
312.59,0.20904,10.955,0.035321,0.04081,0,0,0
313.59,0.21136,10.976,0.035769,0.041255,0,0,0
314.59,0.21298,10.996,0.036311,0.041604,0,0,0
315.59,0.21483,11.015,0.036917,0.041795,0,0,0
316.59,0.21695,11.037,0.037172,0.042462,0,0,0
317.59,0.21871,11.057,0.037875,0.042779,0,0,0
318.59,0.22179,11.077,0.038161,0.042937,0,0,0
319.59,0.22473,11.098,0.038416,0.043444,0,0,0
320.59,0.22751,11.118,0.038575,0.044111,0,0,0
321.59,0.22967,11.138,0.038894,0.044712,0,0,0
322.59,0.23198,11.159,0.039594,0.045409,0,0,0
323.59,0.23437,11.178,0.039944,0.045789,0,0,0
324.59,0.23658,11.196,0.040739,0.046358,0,0,0
325.59,0.23953,11.217,0.041088,0.046894,0,0,0
326.59,0.24274,11.237,0.041406,0.047211,0,0,0
327.59,0.24536,11.255,0.041787,0.047401,0,0,0
328.59,0.24774,11.275,0.042137,0.047874,0,0,0
329.59,0.24986,11.294,0.042454,0.048378,0,0,0
330.59,0.25168,11.314,0.04312,0.04882,0,0,0
331.59,0.25377,11.333,0.043626,0.049482,0,0,0
332.59,0.25585,11.352,0.044356,0.05049,0,0,0
333.59,0.2593,11.37,0.044704,0.051057,0,0,0
334.59,0.26208,11.389,0.045368,0.051686,0,0,0
335.59,0.2645,11.408,0.045716,0.052251,0,0,0
336.59,0.26695,11.426,0.046096,0.052596,0,0,0
337.59,0.26917,11.445,0.046285,0.052942,0,0,0
338.59,0.27181,11.464,0.046665,0.05332,0,0,0
339.59,0.27463,11.483,0.04717,0.053792,0,0,0
340.59,0.27764,11.502,0.04777,0.054482,0,0,0
341.59,0.28102,11.52,0.048275,0.054889,0,0,0
342.59,0.2839,11.536,0.048874,0.055359,0,0,0
343.59,0.28648,11.556,0.049567,0.056361,0,0,0
344.59,0.28857,11.574,0.050008,0.056924,0,0,0
345.59,0.29089,11.592,0.050323,0.057455,0,0,0
346.59,0.29344,11.61,0.050512,0.057581,0,0,0
347.59,0.29608,11.628,0.050858,0.058111,0,0,0
348.59,0.29936,11.646,0.051267,0.058581,0,0,0
349.59,0.30178,11.664,0.051833,0.059174,0,0,0
350.59,0.30426,11.681,0.052399,0.059423,0,0,0
351.59,0.30655,11.697,0.052869,0.060109,0,0,0
352.59,0.309,11.715,0.053435,0.060764,0,0,0
353.59,0.31184,11.733,0.053842,0.061357,0,0,0
354.59,0.31496,11.749,0.054375,0.061947,0,0,0
355.59,0.31833,11.766,0.054909,0.062601,0,0,0
356.59,0.32165,11.783,0.055347,0.062974,0,0,0
357.59,0.32426,11.8,0.055942,0.063409,0,0,0
358.59,0.32714,11.817,0.056349,0.06403,0,0,0
359.59,0.32939,11.834,0.056818,0.064186,0,0,0
360.59,0.33201,11.849,0.057444,0.064901,0,0,0
361.59,0.33505,11.866,0.057975,0.065179,0,0,0
362.59,0.33837,11.883,0.058599,0.065984,0,0,0
363.59,0.34131,11.898,0.059192,0.066386,0,0,0
364.59,0.34383,11.915,0.059785,0.067347,0,0,0
365.59,0.34578,11.931,0.059941,0.067656,0,0,0
366.59,0.34826,11.947,0.060533,0.068337,0,0,0
367.59,0.35075,11.963,0.060876,0.068863,0,0,0
368.59,0.35336,11.979,0.061249,0.069389,0,0,0
369.59,0.35694,11.994,0.061748,0.069882,0,0,0
370.59,0.36028,12.011,0.06237,0.070654,0,0,0
371.59,0.36303,12.027,0.062899,0.071085,0,0,0
372.59,0.36588,12.042,0.063271,0.071763,0,0,0
373.59,0.36823,12.058,0.064017,0.072502,0,0,0
374.59,0.37128,12.072,0.064452,0.072902,0,0,0
375.59,0.37446,12.089,0.06501,0.073518,0,0,0
376.59,0.3781,12.104,0.065351,0.074349,0,0,0
377.59,0.38115,12.12,0.065692,0.075119,0,0,0
378.59,0.38406,12.134,0.066312,0.075578,0,0,0
379.59,0.38671,12.15,0.066715,0.076223,0,0,0
380.59,0.38916,12.165,0.067087,0.076868,0,0,0
381.59,0.39177,12.179,0.067644,0.077357,0,0,0
382.59,0.39489,12.194,0.068293,0.077941,0,0,0
383.59,0.3978,12.209,0.069004,0.078523,0,0,0
384.59,0.40068,12.224,0.069561,0.079286,0,0,0
385.59,0.4033,12.239,0.070209,0.079777,0,0,0
386.59,0.40601,12.254,0.070672,0.080358,0,0,0
387.59,0.40843,12.267,0.071319,0.080939,0,0,0
388.59,0.41161,12.283,0.07175,0.081275,0,0,0
389.59,0.41479,12.297,0.072181,0.082007,0,0,0
390.59,0.41836,12.311,0.072674,0.082617,0,0,0
391.59,0.42201,12.326,0.073136,0.083043,0,0,0
392.59,0.42485,12.339,0.073658,0.084018,0,0,0
393.59,0.4276,12.354,0.074458,0.084354,0,0,0
394.59,0.43032,12.368,0.07541,0.085297,0,0,0
395.59,0.43323,12.382,0.076024,0.085996,0,0,0
396.59,0.43677,12.395,0.076699,0.086482,0,0,0
397.59,0.44042,12.41,0.077281,0.087271,0,0,0
398.59,0.44316,12.424,0.077618,0.087908,0,0,0
399.59,0.44621,12.437,0.078139,0.088482,0,0,0
400.59,0.44853,12.451,0.078567,0.088786,0,0,0
401.59,0.45101,12.464,0.079179,0.089453,0,0,0
402.59,0.45379,12.478,0.079883,0.090271,0,0,0
403.59,0.45707,12.492,0.080615,0.090907,0,0,0
404.59,0.46042,12.506,0.080799,0.091661,0,0,0
405.59,0.46383,12.519,0.081531,0.092597,0,0,0
406.59,0.46644,12.532,0.082203,0.092719,0,0,0
407.59,0.46949,12.546,0.082203,0.093623,0,0,0
408.59,0.4723,12.559,0.083117,0.094467,0,0,0
409.59,0.47575,12.572,0.083391,0.094679,0,0,0
410.59,0.47919,12.585,0.084152,0.095252,0,0,0
411.59,0.48296,12.598,0.084669,0.095795,0,0,0
412.59,0.48611,12.612,0.085126,0.096637,0,0,0
413.59,0.48922,12.625,0.085855,0.097267,0,0,0
414.59,0.492,12.637,0.086462,0.097867,0,0,0
415.59,0.49525,12.651,0.08707,0.098526,0,0,0
416.59,0.49823,12.664,0.087646,0.099365,0,0,0
417.59,0.50187,12.676,0.088101,0.10018,0,0,0
418.59,0.50538,12.689,0.088586,0.10075,0,0,0
419.59,0.50839,12.701,0.089282,0.10164,0,0,0
420.59,0.51111,12.714,0.089645,0.1023,0,0,0
421.59,0.51362,12.726,0.090341,0.10281,0,0,0
422.59,0.51644,12.739,0.091006,0.10338,0,0,0
423.59,0.51962,12.752,0.091732,0.10395,0,0,0
424.59,0.52323,12.764,0.092124,0.10454,0,0,0
425.59,0.52687,12.776,0.092758,0.10567,0,0,0
426.59,0.53001,12.788,0.093392,0.10618,0,0,0
427.59,0.53286,12.8,0.094055,0.1071,0,0,0
428.59,0.53601,12.813,0.094838,0.10776,0,0,0
429.59,0.53912,12.825,0.09553,0.10832,0,0,0
430.59,0.54243,12.836,0.096342,0.10886,0,0,0
431.59,0.54657,12.849,0.096553,0.10948,0,0,0
432.59,0.55001,12.86,0.097184,0.11016,0,0,0
433.59,0.55322,12.872,0.098265,0.11076,0,0,0
434.59,0.55624,12.884,0.098835,0.11156,0,0,0
435.59,0.55919,12.896,0.099284,0.1123,0,0,0
436.59,0.56243,12.908,0.10027,0.11321,0,0,0
437.59,0.56587,12.92,0.10114,0.11401,0,0,0
438.59,0.56958,12.931,0.10165,0.11454,0,0,0
439.59,0.57309,12.943,0.10201,0.11525,0,0,0
440.59,0.57571,12.954,0.10246,0.11569,0,0,0
441.59,0.57836,12.965,0.10311,0.1162,0,0,0
442.59,0.5813,12.978,0.10386,0.11696,0,0,0
443.59,0.58475,12.988,0.10455,0.11782,0,0,0
444.59,0.58819,12.999,0.1055,0.11876,0,0,0
445.59,0.59167,13.011,0.1058,0.11947,0,0,0
446.59,0.59521,13.022,0.10636,0.12031,0,0,0
447.59,0.59819,13.034,0.10717,0.12076,0,0,0
448.59,0.6014,13.045,0.10782,0.12143,0,0,0
449.59,0.60462,13.056,0.10836,0.12195,0,0,0
450.59,0.60842,13.068,0.10889,0.12251,0,0,0
451.59,0.61203,13.079,0.10951,0.1233,0,0,0
452.59,0.61601,13.09,0.10996,0.12406,0,0,0
453.59,0.61935,13.101,0.11049,0.12488,0,0,0
454.59,0.62233,13.112,0.11141,0.1259,0,0,0
455.59,0.62557,13.123,0.11203,0.12695,0,0,0
456.59,0.62875,13.134,0.11283,0.12696,0,0,0
457.59,0.6324,13.144,0.11354,0.12765,0,0,0
458.59,0.63617,13.156,0.11425,0.12812,0,0,0
459.59,0.63968,13.166,0.11481,0.12873,0,0,0
460.59,0.64286,13.177,0.1157,0.12949,0,0,0
461.59,0.6458,13.187,0.11614,0.13013,0,0,0
462.59,0.64855,13.198,0.1167,0.13129,0,0,0
463.59,0.65183,13.208,0.11764,0.13164,0,0,0
464.59,0.6557,13.219,0.11811,0.13265,0,0,0
465.59,0.65955,13.23,0.11879,0.13326,0,0,0
466.59,0.66299,13.24,0.11958,0.1341,0,0,0
467.59,0.66627,13.25,0.12017,0.13491,0,0,0
468.59,0.66925,13.26,0.1209,0.1357,0,0,0
469.59,0.67259,13.271,0.12146,0.13645,0,0,0
470.59,0.6763,13.28,0.12248,0.13726,0,0,0
471.59,0.68037,13.291,0.12322,0.13783,0,0,0
472.59,0.68435,13.302,0.12398,0.13881,0,0,0
473.59,0.68776,13.312,0.12465,0.13933,0,0,0
474.59,0.69123,13.323,0.12523,0.13994,0,0,0
475.59,0.69428,13.332,0.12564,0.14103,0,0,0
476.59,0.69795,13.342,0.12643,0.14172,0,0,0
477.59,0.70183,13.352,0.12684,0.14276,0,0,0
478.59,0.70557,13.362,0.12792,0.14359,0,0,0
479.59,0.70924,13.372,0.1285,0.1445,0,0,0
480.59,0.71252,13.382,0.12934,0.14511,0,0,0
481.59,0.71583,13.392,0.13045,0.14597,0,0,0
482.59,0.71878,13.402,0.1308,0.14674,0,0,0
483.59,0.72232,13.412,0.13141,0.14777,0,0,0
484.59,0.72603,13.422,0.13219,0.14862,0,0,0
485.59,0.72977,13.431,0.13268,0.14948,0,0,0
486.59,0.73342,13.44,0.13326,0.15022,0,0,0
487.59,0.73653,13.45,0.13396,0.15133,0,0,0
488.59,0.73974,13.46,0.13488,0.15187,0,0,0
489.59,0.74322,13.469,0.13532,0.15266,0,0,0
490.59,0.74702,13.48,0.13656,0.15332,0,0,0
491.59,0.75123,13.49,0.13699,0.15386,0,0,0
492.59,0.75504,13.499,0.13795,0.15522,0,0,0
493.59,0.75874,13.508,0.13867,0.15615,0,0,0
494.59,0.76216,13.518,0.1393,0.15706,0,0,0
495.59,0.7656,13.527,0.14028,0.15842,0,0,0
496.59,0.76957,13.536,0.141,0.15907,0,0,0
497.59,0.77361,13.545,0.14183,0.15935,0,0,0
498.59,0.77771,13.554,0.14264,0.15991,0,0,0
499.59,0.78126,13.564,0.14312,0.1607,0,0,0
500.59,0.7845,13.573,0.1441,0.16118,0,0,0
501.59,0.78795,13.582,0.14484,0.16245,0,0,0
502.59,0.79129,13.59,0.14562,0.16372,0,0,0
503.59,0.79549,13.599,0.14662,0.16464,0,0,0
504.59,0.79907,13.609,0.14725,0.16551,0,0,0
505.59,0.80298,13.617,0.14796,0.1663,0,0,0
506.59,0.80639,13.626,0.14867,0.16678,0,0,0
507.59,0.80957,13.636,0.14959,0.16764,0,0,0
508.59,0.81301,13.644,0.15044,0.1689,0,0,0
509.59,0.81655,13.653,0.15115,0.16951,0,0,0
510.59,0.82036,13.663,0.15209,0.17058,0,0,0
511.59,0.82466,13.671,0.1528,0.1713,0,0,0
512.59,0.82811,13.679,0.1534,0.17269,0,0,0
513.59,0.83165,13.688,0.1538,0.17361,0,0,0
514.59,0.83513,13.696,0.15473,0.17431,0,0,0
515.59,0.83893,13.705,0.15538,0.17528,0,0,0
516.59,0.84291,13.714,0.15652,0.17661,0,0,0
517.59,0.84731,13.723,0.15723,0.17778,0,0,0
518.59,0.85122,13.731,0.1581,0.17919,0,0,0
519.59,0.85493,13.74,0.15906,0.17966,0,0,0
520.59,0.85833,13.749,0.16016,0.18107,0,0,0
521.59,0.86231,13.757,0.1609,0.18154,0,0,0
522.59,0.86598,13.766,0.16157,0.18237,0,0,0
523.59,0.87009,13.774,0.1625,0.18352,0,0,0
524.59,0.87409,13.782,0.16343,0.18399,0,0,0
525.59,0.87794,13.791,0.16422,0.18498,0,0,0
526.59,0.88135,13.8,0.16506,0.18644,0,0,0
527.59,0.88459,13.807,0.16601,0.18737,0,0,0
528.59,0.88823,13.815,0.16674,0.18795,0,0,0
529.59,0.89247,13.824,0.16747,0.18899,0,0,0
530.59,0.89671,13.832,0.16837,0.18934,0,0,0
531.59,0.90038,13.84,0.16898,0.19003,0,0,0
532.59,0.9038,13.848,0.17007,0.19109,0,0,0
533.59,0.9073,13.856,0.17088,0.19263,0,0,0
534.59,0.91091,13.865,0.17172,0.19353,0,0,0
535.59,0.91508,13.873,0.17278,0.19443,0,0,0
536.59,0.91939,13.881,0.17414,0.19508,0,0,0
537.59,0.92359,13.889,0.17522,0.19582,0,0,0
538.59,0.92747,13.897,0.176,0.19691,0,0,0
539.59,0.93111,13.905,0.17681,0.19748,0,0,0
540.59,0.93472,13.912,0.17753,0.19862,0,0,0
541.59,0.93919,13.92,0.17844,0.20005,0,0,0
542.59,0.94366,13.928,0.17911,0.20117,0,0,0
543.59,0.94809,13.936,0.18018,0.20254,0,0,0
544.59,0.95183,13.944,0.18157,0.20355,0,0,0
545.59,0.95554,13.951,0.18295,0.20465,0,0,0
546.59,0.95912,13.958,0.18385,0.20549,0,0,0
547.59,0.96336,13.967,0.18474,0.20608,0,0,0
548.59,0.96753,13.974,0.18592,0.20724,0,0,0
549.59,0.97196,13.981,0.18658,0.20764,0,0,0
550.59,0.97577,13.989,0.18732,0.20928,0,0,0
551.59,0.97955,13.996,0.18836,0.2103,0,0,0
552.59,0.98316,14.005,0.18905,0.21113,0,0,0
553.59,0.98696,14.012,0.19014,0.21242,0,0,0
554.59,0.991,14.019,0.1908,0.2129,0,0,0
555.59,0.99537,14.026,0.19184,0.21391,0,0,0
556.59,0.99928,14.033,0.19244,0.21408,0,0,0
557.59,1.003,14.041,0.19369,0.21552,0,0,0
558.59,1.0068,14.049,0.19479,0.21683,0,0,0
559.59,1.0104,14.055,0.19626,0.21842,0,0,0
560.59,1.0145,14.063,0.19704,0.21967,0,0,0
561.59,1.0192,14.07,0.19783,0.22057,0,0,0
562.59,1.0234,14.077,0.19881,0.22161,0,0,0
563.59,1.0273,14.084,0.19984,0.22286,0,0,0
564.59,1.031,14.092,0.20076,0.2236,0,0,0
565.59,1.0353,14.099,0.20166,0.22497,0,0,0
566.59,1.0395,14.106,0.20268,0.22613,0,0,0
567.59,1.0438,14.113,0.20411,0.22722,0,0,0
568.59,1.0485,14.121,0.2049,0.22814,0,0,0
569.59,1.0524,14.128,0.20587,0.22924,0,0,0
570.59,1.0564,14.135,0.2067,0.23032,0,0,0
571.59,1.0601,14.141,0.20762,0.23151,0,0,0
572.59,1.0645,14.148,0.20807,0.23269,0,0,0
573.59,1.069,14.154,0.20944,0.23421,0,0,0
574.59,1.0735,14.161,0.21084,0.23523,0,0,0
575.59,1.0777,14.167,0.21223,0.23672,0,0,0
576.59,1.0813,14.175,0.2137,0.23764,0,0,0
577.59,1.085,14.181,0.21469,0.23831,0,0,0
578.59,1.0893,14.188,0.21517,0.23957,0,0,0
579.59,1.0939,14.195,0.216,0.24061,0,0,0
580.59,1.0977,14.201,0.21624,0.24168,0,0,0
581.59,1.1022,14.207,0.21704,0.24368,0,0,0
582.59,1.1062,14.214,0.21851,0.24482,0,0,0
583.59,1.1098,14.22,0.21944,0.24634,0,0,0
584.59,1.1139,14.227,0.2209,0.24746,0,0,0
585.59,1.1182,14.233,0.22161,0.24808,0,0,0
586.59,1.123,14.24,0.22283,0.2487,0,0,0
587.59,1.1271,14.247,0.22376,0.25032,0,0,0
588.59,1.1312,14.252,0.22455,0.25207,0,0,0
589.59,1.1351,14.258,0.22548,0.25318,0,0,0
590.59,1.139,14.265,0.22696,0.25462,0,0,0
591.59,1.1439,14.271,0.22812,0.25521,0,0,0
592.59,1.1485,14.277,0.2293,0.25721,0,0,0
593.59,1.1532,14.283,0.23038,0.2578,0,0,0
594.59,1.1572,14.289,0.23104,0.259,0,0,0
595.59,1.1612,14.296,0.23219,0.26068,0,0,0
596.59,1.1656,14.302,0.23285,0.26234,0,0,0
597.59,1.1705,14.308,0.23403,0.26349,0,0,0
598.59,1.1751,14.314,0.23565,0.26483,0,0,0
599.59,1.1797,14.321,0.23693,0.26615,0,0,0
600.59,1.1839,14.327,0.23806,0.2675,0,0,0
601.59,1.1881,14.333,0.23959,0.2678,0,0,0
602.59,1.1922,14.339,0.241,0.26909,0,0,0
603.59,1.1969,14.345,0.24196,0.26967,0,0,0
604.59,1.2015,14.351,0.24331,0.27142,0,0,0
605.59,1.2059,14.356,0.24448,0.27301,0,0,0
606.59,1.2102,14.362,0.24562,0.27419,0,0,0
607.59,1.214,14.368,0.24666,0.2759,0,0,0
608.59,1.2186,14.373,0.24738,0.27711,0,0,0
609.59,1.2231,14.379,0.24859,0.27811,0,0,0
610.59,1.2278,14.385,0.2496,0.28012,0,0,0
611.59,1.2324,14.391,0.25089,0.28147,0,0,0
612.59,1.2363,14.396,0.25277,0.28207,0,0,0
613.59,1.2406,14.402,0.25421,0.28374,0,0,0
614.59,1.2449,14.407,0.25575,0.28538,0,0,0
615.59,1.2498,14.412,0.25674,0.28633,0,0,0
616.59,1.2542,14.417,0.25825,0.28819,0,0,0
617.59,1.2593,14.423,0.25953,0.28993,0,0,0
618.59,1.2636,14.429,0.26122,0.29117,0,0,0
619.59,1.2677,14.434,0.26267,0.29226,0,0,0
620.59,1.2721,14.439,0.26325,0.29357,0,0,0
621.59,1.277,14.444,0.2648,0.29509,0,0,0
622.59,1.282,14.45,0.26557,0.29598,0,0,0
623.59,1.2867,14.455,0.26691,0.29758,0,0,0
624.59,1.2911,14.46,0.2681,0.29962,0,0,0
625.59,1.2953,14.465,0.26937,0.30072,0,0,0
626.59,1.3,14.47,0.27091,0.30246,0,0,0
627.59,1.305,14.475,0.27245,0.30392,0,0,0
628.59,1.3101,14.48,0.27345,0.30541,0,0,0
629.59,1.3147,14.485,0.27501,0.30639,0,0,0
630.59,1.3191,14.49,0.27645,0.3078,0,0,0
631.59,1.3236,14.495,0.27835,0.30967,0,0,0
632.59,1.3282,14.499,0.27933,0.3115,0,0,0
633.59,1.3332,14.505,0.28096,0.31283,0,0,0
634.59,1.3382,14.509,0.28275,0.31419,0,0,0
635.59,1.3431,14.514,0.28472,0.31556,0,0,0
636.59,1.3476,14.519,0.28639,0.31716,0,0,0
637.59,1.3517,14.523,0.28763,0.31892,0,0,0
638.59,1.3566,14.529,0.28902,0.32063,0,0,0
639.59,1.3617,14.533,0.29024,0.32228,0,0,0
640.59,1.3664,14.537,0.29138,0.32355,0,0,0
641.59,1.3712,14.542,0.29298,0.32439,0,0,0
642.59,1.3757,14.546,0.29498,0.32649,0,0,0
643.59,1.3802,14.551,0.29675,0.32781,0,0,0
644.59,1.3851,14.555,0.2983,0.32955,0,0,0
645.59,1.3901,14.56,0.29963,0.33171,0,0,0
646.59,1.3953,14.565,0.30093,0.33368,0,0,0
647.59,1.4001,14.569,0.30252,0.33551,0,0,0
648.59,1.4045,14.573,0.30401,0.33707,0,0,0
649.59,1.4091,14.577,0.30616,0.33849,0,0,0
650.59,1.4142,14.581,0.30842,0.34002,0,0,0
651.59,1.4195,14.585,0.31029,0.3419,0,0,0
652.59,1.4246,14.589,0.31155,0.34341,0,0,0
653.59,1.4292,14.593,0.31274,0.3451,0,0,0
654.59,1.4341,14.597,0.31444,0.34651,0,0,0
655.59,1.439,14.6,0.31574,0.34857,0,0,0
656.59,1.4444,14.604,0.31769,0.35069,0,0,0
657.59,1.4495,14.608,0.31948,0.35181,0,0,0
658.59,1.4547,14.612,0.32106,0.35409,0,0,0
659.59,1.4594,14.616,0.32312,0.35574,0,0,0
660.59,1.4643,14.619,0.32442,0.35676,0,0,0
661.59,1.4696,14.623,0.32645,0.35864,0,0,0
662.59,1.475,14.626,0.32819,0.36007,0,0,0
663.59,1.4804,14.629,0.33022,0.36183,0,0,0
664.59,1.4854,14.632,0.33247,0.36372,0,0,0
665.59,1.4902,14.636,0.33409,0.36517,0,0,0
666.59,1.4951,14.639,0.33579,0.36599,0,0,0
667.59,1.5006,14.642,0.3365,0.36859,0,0,0
668.59,1.5061,14.645,0.33851,0.36994,0,0,0
669.59,1.5116,14.648,0.34061,0.37263,0,0,0
670.59,1.5164,14.652,0.34256,0.37493,0,0,0
671.59,1.5214,14.655,0.34439,0.3768,0,0,0
672.59,1.5266,14.657,0.34594,0.37887,0,0,0
673.59,1.5323,14.66,0.34713,0.38052,0,0,0
674.59,1.5375,14.663,0.34884,0.38321,0,0,0
675.59,1.5431,14.666,0.35157,0.38709,0,0,0
676.59,1.5482,14.669,0.35406,0.38873,0,0,0
677.59,1.5533,14.671,0.35631,0.39151,0,0,0
678.59,1.5588,14.673,0.35809,0.39406,0,0,0
679.59,1.5646,14.676,0.3598,0.3962,0,0,0
680.59,1.5702,14.678,0.36124,-Inf,0,0,0
681.59,1.5759,14.681,0.36347,-Inf,0,0,0
682.59,1.581,14.683,0.36529,-Inf,0,0,0
683.59,1.5861,14.685,0.36756,-Inf,0,0,0
684.59,1.5916,14.687,0.36939,-Inf,0,0,0
685.59,1.5978,14.688,0.37143,-Inf,0,0,0
686.59,1.6034,14.689,0.37262,-Inf,0,0,0
687.59,1.6086,14.69,0.37464,-Inf,0,0,0
688.59,1.6138,14.692,0.37683,-Inf,0,0,0
689.59,1.6196,14.693,0.37851,-Inf,0,0,0
690.59,1.6259,14.694,0.38005,-Inf,0,0,0
691.59,1.6315,14.695,0.38229,-Inf,0,0,0
692.59,1.6368,14.696,0.38419,-Inf,0,0,0
693.59,1.6424,14.696,0.38689,-Inf,0,0,0
694.59,1.648,14.696,0.38851,-Inf,0,0,0
695.59,1.6542,14.697,0.39057,-Inf,0,0,0
696.59,1.6602,14.697,0.39303,-Inf,0,0,0
697.59,1.666,14.697,0.39418,-Inf,0,0,0
698.59,1.6715,14.697,-Inf,-Inf,0,0,0
699.59,1.6774,14.696,-Inf,-Inf,0,0,0
700.59,1.6836,14.696,-Inf,-Inf,0,0,0
701.59,1.6896,14.695,-Inf,-Inf,0,0,0
702.59,1.6957,14.694,-Inf,-Inf,0,0,0
703.59,1.7013,14.693,-Inf,-Inf,0,0,0
704.59,1.7075,14.691,-Inf,-Inf,0,0,0
705.59,1.7138,14.689,-Inf,-Inf,0,0,0
706.59,1.7204,14.686,-Inf,-Inf,0,0,0
707.59,1.7268,14.683,-Inf,-Inf,0,0,0
708.59,1.7325,14.679,-Inf,-Inf,0,0,0
709.59,1.7392,14.674,-Inf,-Inf,0,0,0
710.59,1.7455,14.669,-Inf,-Inf,0,0,0
711.59,1.7527,14.663,-Inf,-Inf,0,0,0
712.59,1.7592,14.656,-Inf,-Inf,0,0,0
713.59,1.7659,14.65,-Inf,-Inf,0,0,0
714.59,1.7723,14.642,-Inf,-Inf,0,0,0
715.59,1.7792,14.633,-Inf,-Inf,0,0,0
716.59,1.7869,14.623,-Inf,-Inf,0,0,0
717.59,1.7941,14.61,-Inf,-Inf,0,0,0
718.59,1.8015,14.596,-Inf,-Inf,0,0,0
719.59,1.8091,14.577,-Inf,-Inf,0,0,0
720.59,1.8176,14.549,-Inf,-Inf,0,0,0
721.59,1.8269,14.517,-Inf,-Inf,0,0,0
722.59,1.8359,14.478,-Inf,-Inf,0,0,0
723.59,1.8456,14.431,-Inf,-Inf,0,0,0