File: lab_data/DP600_results/DATA/NT6_00_1.csv
Time[s],Displacement[mm],Force[kN],AxStrain_1,AxStrain_2,Thickness[mm],OuterWidth[mm],InnerWidth[mm]
0.67,0,-0.016022,0,0,1.5245,20,10.854
1.17,6e-06,-0.019642,0.00012199,0,0,0,0
1.67,0.000471,-0.022855,-3.6001e-05,0,0,0,0
2.17,0.000281,-0.010402,-3e-06,0,0,0,0
2.67,0.00056,0.015701,6.9998e-05,0,0,0,0
3.17,0.000634,0.050154,0.00024997,0,0,0,0
3.67,0.000715,0.079701,0.00021298,0,0,0,0
4.17,0.000955,0.10815,0.00013699,0,0,0,0
4.67,0.000817,0.13242,-9.8005e-05,0,0,0,0
5.17,0.000781,0.15657,0.00016899,0,0,0,0
5.67,0.001023,0.17671,-7.0002e-05,0,0,0,0
6.17,0.000997,0.19515,3e-05,0,0,0,0
6.67,0.001053,0.21185,1.4e-05,0,0,0,0
7.17,0.001012,0.22972,-6e-06,0,0,0,0
7.67,0.001078,0.24757,4.8999e-05,0,0,0,0
8.17,0.001018,0.26643,-0.00011601,0,0,0,0
8.67,0.001029,0.28457,4.2999e-05,0,0,0,0
9.17,0.001167,0.30372,-0.00011401,0,0,0,0
9.67,0.00124,0.32114,4.6999e-05,0,0,0,0
10.17,0.001317,0.33972,-0.00030205,0,0,0,0
10.67,0.001462,0.35756,-0.00013501,0,0,0,0
11.17,0.001379,0.37744,-0.00014201,0,0,0,0
11.67,0.001566,0.39528,-0.00012101,0,0,0,0
12.17,0.001893,0.41472,-0.00010001,0,0,0,0
12.67,0.001952,0.43256,2.9e-05,0,0,0,0
13.17,0.002004,0.45129,-3.5001e-05,0,0,0,0
13.67,0.002466,0.46857,0.00010799,0,0,0,0
14.17,0.002408,0.48715,0.00013199,0,0,0,0
14.67,0.002327,0.50514,3.2999e-05,0,0,0,0
15.17,0.002387,0.52386,0.00017898,0,0,0,0
15.67,0.002314,0.54185,7e-06,0,0,0,0
16.17,0.002211,0.56043,0.00032095,0,0,0,0
16.67,0.002317,0.57857,0.00033794,0,0,0,0
17.17,0.002377,0.59743,0.00021198,0,0,0,0
17.67,0.00236,0.61585,0.00021498,0,0,0,0
18.17,0.002374,0.63543,0.00018198,0,0,0,0
18.67,0.002437,0.65342,5.9998e-05,0,0,0,0
19.17,0.002576,0.67301,-2.3e-05,0,0,0,0
19.67,0.002542,0.69228,-5.6002e-05,0,0,0,0
20.17,0.002764,0.71372,-7e-06,0,0,0,0
20.67,0.00284,0.73299,-4.6001e-05,0,0,0,0
21.17,0.002827,0.75401,-0.00025503,0,0,0,0
21.67,0.00289,0.77328,-0.00010601,0,0,0,0
22.17,0.003023,0.79329,1.3e-05,0,0,0,0
22.67,0.00337,0.81214,-5.0001e-05,0,0,0,0
23.17,0.003287,0.83315,4.2999e-05,0,0,0,0
23.67,0.003585,0.85357,-4.3001e-05,0,0,0,0
24.17,0.003933,0.87558,2.3e-05,0,0,0,0
24.67,0.004155,0.89599,-1.7e-05,0,0,0,0
25.17,0.004271,0.91586,-3.3001e-05,0,0,0,0
25.67,0.004482,0.93485,0.00021898,0,0,0,0
26.17,0.004307,0.95586,8.5996e-05,0,0,0,0
26.67,0.004234,0.97585,0.00030495,0,0,0,0
27.17,0.004413,0.99643,0.00026796,0,0,0,0
27.67,0.004175,1.0154,0.00025197,0,0,0,0
28.17,0.004175,1.0357,0.00026496,0,0,0,0
28.67,0.004102,1.0553,-2.6e-05,0,0,0,0
29.17,0.004188,1.0767,6.5998e-05,0,0,0,0
29.67,0.00434,1.0963,0.00011299,0,0,0,0
30.17,0.004333,1.118,9.2996e-05,0,0,0,0
30.67,0.004234,1.138,0.00023497,0,0,0,0
31.17,0.00431,1.1589,0.00012899,0,0,0,0
31.67,0.004516,1.1783,5.9998e-05,0,0,0,0
32.17,0.004602,1.1997,9.8995e-05,0,0,0,0
32.67,0.00481,1.22,7.5997e-05,0,0,0,0
33.17,0.005092,1.241,0.00021498,0,0,0,0
33.67,0.005231,1.2613,9.2996e-05,0,0,0,0
34.17,0.005558,1.2824,0.00018898,0,0,0,0
34.67,0.005929,1.3029,0.00018198,0,0,0,0
35.17,0.006009,1.3241,0.00019498,0,0,0,0
35.67,0.005999,1.3446,0.00027796,0,0,0,0
36.17,0.006227,1.3657,0.00028496,0,0,0,0
36.67,0.00625,1.3849,0.00039092,0,0,0,0
37.17,0.006389,1.4053,0.00037093,0,0,0,0
37.67,0.006207,1.425,0.00049988,0,0,0,0
38.17,0.00622,1.447,0.0004569,0,0,0,0
38.67,0.005989,1.467,0.00036693,0,0,0,0
39.17,0.005903,1.4887,0.00037693,0,0,0,0
39.67,0.005883,1.5083,0.00019898,0,0,0,0
40.17,0.00585,1.5286,0.00027796,0,0,0,0
40.67,0.006028,1.5476,0.00033794,0,0,0,0
41.17,0.006168,1.5684,0.00025797,0,0,0,0
41.67,0.006144,1.5889,0.00034794,0,0,0,0
42.17,0.006462,1.6101,0.00025197,0,0,0,0
42.67,0.006452,1.6306,0.00021198,0,0,0,0
43.17,0.006548,1.6514,0.00032395,0,0,0,0
43.67,0.007012,1.6716,0.00016899,0,0,0,0
44.17,0.007287,1.6924,0.00039692,0,0,0,0
44.67,0.00774,1.7129,0.00032795,0,0,0,0
45.17,0.007985,1.7341,0.00025497,0,0,0,0
45.67,0.008223,1.7534,0.00038093,0,0,0,0
46.17,0.008343,1.7734,0.0004399,0,0,0,0
46.67,0.008449,1.7926,0.00046989,0,0,0,0
47.17,0.008488,1.814,0.00066178,0,0,0,0
47.67,0.008233,1.8351,0.00058583,0,0,0,0
48.17,0.008035,1.8571,0.00057583,0,0,0,0
48.67,0.008028,1.8757,0.00069876,0,0,0,0
49.17,0.008104,1.8946,0.00045989,0,0,0,0
49.67,0.007826,1.9136,0.00049688,0,0,0,0
50.17,0.00778,1.9344,0.00034094,0,0,0,0
50.67,0.00779,1.9546,0.00033794,0,0,0,0
51.17,0.007634,1.9754,0.00033794,0,0,0,0
51.67,0.007803,1.9956,0.00035094,0,0,0,0
52.17,0.007969,2.0161,0.00031495,0,0,0,0
52.67,0.00817,2.0361,0.00033394,0,0,0,0
53.17,0.008551,2.0569,0.00027096,0,0,0,0
53.67,0.008637,2.0771,0.00025497,0,0,0,0
54.17,0.009058,2.0979,0.00038693,0,0,0,0
54.67,0.009442,2.1167,0.00034094,0,0,0,0
55.17,0.009677,2.137,0.00058283,0,0,0,0
55.67,0.009806,2.1567,0.00040392,0,0,0,0
56.17,0.010259,2.1783,0.00049988,0,0,0,0
56.67,0.010266,2.1977,0.00042391,0,0,0,0
57.17,0.010494,2.219,0.00054285,0,0,0,0
57.67,0.010557,2.2383,0.00054585,0,0,0,0
58.17,0.010511,2.2583,0.00076771,0,0,0,0
58.67,0.009952,2.2769,0.00031495,0,0,0,0
59.17,0.010064,2.2971,0.00057284,0,0,0,0
59.67,0.010005,2.3169,0.00040392,0,0,0,0
60.17,0.009776,2.3386,0.0004499,0,0,0,0
60.67,0.009829,2.3593,0.00029096,0,0,0,0
61.17,0.009753,2.3796,0.00039092,0,0,0,0
61.67,0.009677,2.3986,0.00038093,0,0,0,0
62.17,0.009962,2.4191,0.00032095,0,0,0,0
62.67,0.009899,2.4389,0.00029496,0,0,0,0
63.17,0.01019,2.4597,0.00041391,0,0,0,0
63.67,0.010501,2.4789,0.00025197,0,0,0,0
64.17,0.010981,2.499,0.00018898,0,0,0,0
64.67,0.011064,2.5183,0.00033095,0,0,0,0
65.17,0.011633,2.5397,0.00028096,0,0,0,0
65.67,0.011955,2.5607,0.00035094,0,0,0,0
66.17,0.012246,2.5829,0.00040692,0,0,0,0
66.67,0.012531,2.6017,0.00037693,0,0,0,0
67.17,0.012709,2.6203,0.00059282,0,0,0,0
67.67,0.012822,2.6389,0.00060582,0,0,0,0
68.17,0.013004,2.6591,0.00048988,0,0,0,0
68.67,0.012838,2.6789,0.00065578,0,0,0,0
69.17,0.012395,2.7006,0.0004539,0,0,0,0
69.67,0.012233,2.7213,0.0004569,0,0,0,0
70.17,0.011921,2.7413,0.0004469,0,0,0,0
70.67,0.011941,2.7599,0.0004399,0,0,0,0
71.17,0.011733,2.7801,0.00041391,0,0,0,0
71.67,0.011842,2.8001,0.00024797,0,0,0,0
72.17,0.011839,2.8209,0.00031495,0,0,0,0
72.67,0.011931,2.8394,0.0004469,0,0,0,0
73.17,0.012157,2.859,0.00042991,0,0,0,0
73.67,0.012325,2.8783,0.00037093,0,0,0,0
74.17,0.012769,2.8997,0.00033394,0,0,0,0
74.67,0.013136,2.9204,0.00038393,0,0,0,0
75.17,0.013679,2.9421,0.00030795,0,0,0,0
75.67,0.01415,2.9607,0.00038693,0,0,0,0
76.17,0.014616,2.9793,0.00055585,0,0,0,0
76.67,0.014785,2.9981,0.00065179,0,0,0,0
77.17,0.015017,3.0189,0.00075472,0,0,0,0
77.67,0.014908,3.0389,0.00070775,0,0,0,0
78.17,0.015067,3.0606,0.0006318,0,0,0,0
78.67,0.015007,3.081,0.00057883,0,0,0,0
79.17,0.014858,3.1009,0.00061581,0,0,0,0
79.67,0.014798,3.1196,0.00062181,0,0,0,0
80.17,0.014587,3.1401,0.00052586,0,0,0,0
80.67,0.014269,3.1599,0.00058283,0,0,0,0
81.17,0.01402,3.1804,0.00046689,0,0,0,0
81.67,0.014054,3.1991,0.00053286,0,0,0,0
82.17,0.013951,3.2193,0.00045989,0,0,0,0
82.67,0.01404,3.2387,0.00052986,0,0,0,0
83.17,0.014146,3.2597,0.00029796,0,0,0,0
83.67,0.014663,3.2797,0.00042391,0,0,0,0
84.17,0.014855,3.3011,0.00040392,0,0,0,0
84.67,0.015355,3.3197,0.00042691,0,0,0,0
85.17,0.015626,3.3383,0.0004399,0,0,0,0
85.67,0.016523,3.3569,0.00047988,0,0,0,0
86.17,0.016556,3.3771,0.00060282,0,0,0,0
86.67,0.017185,3.3969,0.00040392,0,0,0,0
87.17,0.017367,3.4186,0.00060582,0,0,0,0
87.67,0.017553,3.439,0.00058883,0,0,0,0
88.17,0.017626,3.4586,0.00060282,0,0,0,0
88.67,0.017699,3.4769,0.00081767,0,0,0,0
89.17,0.017662,3.4974,0.00081067,0,0,0,0
89.67,0.017411,3.5173,0.00083765,0,0,0,0
90.17,0.017132,3.5374,0.00065179,0,0,0,0
90.67,0.016828,3.5554,0.00049288,0,0,0,0
91.17,0.016599,3.5747,0.0006388,0,0,0,0
91.67,0.016643,3.5947,0.00057583,0,0,0,0
92.17,0.016457,3.6161,0.00068876,0,0,0,0
92.67,0.016431,3.6359,0.00057583,0,0,0,0
93.17,0.016828,3.6561,0.0006288,0,0,0,0
93.67,0.017089,3.6744,0.00049288,0,0,0,0
94.17,0.017374,3.6926,0.00047289,0,0,0,0
94.67,0.017778,3.7106,0.00053586,0,0,0,0
95.17,0.018374,3.7319,0.00046289,0,0,0,0
95.67,0.018864,3.752,0.00051287,0,0,0,0
96.17,0.019066,3.773,0.00058583,0,0,0,0
96.67,0.019526,3.792,0.00072774,0,0,0,0
97.17,0.019768,3.8113,0.00088661,0,0,0,0
97.67,0.020062,3.8294,0.0007747,0,0,0,0
98.17,0.020244,3.8499,0.0011284,0,0,0,0
98.67,0.020208,3.8696,0.00078469,0,0,0,0
99.17,0.020297,3.8894,0.00085663,0,0,0,0
99.67,0.020191,3.9077,0.0008936,0,0,0,0
100.17,0.020009,3.9274,0.00087062,0,0,0,0
100.67,0.019771,3.9477,0.00083065,0,0,0,0
101.17,0.019566,3.9691,0.00080068,0,0,0,0
101.67,0.019579,3.9883,0.00072474,0,0,0,0
102.17,0.019205,4.0077,0.00085364,0,0,0,0
102.67,0.019331,4.0254,0.00065179,0,0,0,0
103.17,0.01943,4.0436,0.00066878,0,0,0,0
103.67,0.019691,4.0616,0.00087062,0,0,0,0
104.17,0.020039,4.0829,0.0006358,0,0,0,0
104.67,0.020291,4.103,0.00046989,0,0,0,0
105.17,0.020877,4.1237,0.00068876,0,0,0,0
105.67,0.021334,4.142,0.00061881,0,0,0,0
106.17,0.021711,4.1609,0.00081067,0,0,0,0
106.67,0.022155,4.1789,0.00070175,0,0,0,0
107.17,0.022439,4.1989,0.00061581,0,0,0,0
107.67,0.022575,4.2181,0.0008936,0,0,0,0
108.17,0.023005,4.2381,0.00091358,0,0,0,0
108.67,0.023078,4.2564,0.00098951,0,0,0,0
109.17,0.023065,4.2757,0.0011583,0,0,0,0
109.67,0.022979,4.2954,0.0010255,0,0,0,0
110.17,0.023078,4.3164,0.0010914,0,0,0,0
110.67,0.022926,4.3353,0.0011254,0,0,0,0
111.17,0.022711,4.3547,0.00086063,0,0,0,0
111.67,0.022893,4.3724,0.00082766,0,0,0,0
112.17,0.022678,4.3903,0.00092657,0,0,0,0
112.67,0.022678,4.4081,0.00069476,0,0,0,0
113.17,0.022711,4.429,0.00079468,0,0,0,0
113.67,0.022843,4.4486,0.00086063,0,0,0,0
114.17,0.023075,4.4687,0.00076071,0,0,0,0
114.67,0.023406,4.4873,0.00066178,0,0,0,0
115.17,0.024101,4.5063,0.0008936,0,0,0,0
115.67,0.024333,4.5241,0.00092657,0,0,0,0
116.17,0.024929,4.5439,0.0008936,0,0,0,0
116.67,0.025326,4.5629,0.00092657,0,0,0,0
117.17,0.025525,4.5824,0.00082766,0,0,0,0
117.67,0.025823,4.6001,0.0011254,0,0,0,0
118.17,0.026088,4.6187,0.0013561,0,0,0,0
118.67,0.026121,4.6377,0.0011913,0,0,0,0
119.17,0.026286,4.6581,0.0012902,0,0,0,0
119.67,0.026584,4.6771,0.0012243,0,0,0,0
120.17,0.026683,4.6971,0.0012243,0,0,0,0
120.67,0.026518,4.7154,0.0011913,0,0,0,0
121.17,0.026386,4.7333,0.00139,0,0,0,0
121.67,0.026551,4.7506,0.00099251,0,0,0,0
122.17,0.026319,4.7709,0.0011913,0,0,0,0
122.67,0.026551,4.7903,0.0010255,0,0,0,0
123.17,0.026584,4.8107,0.0010924,0,0,0,0
123.67,0.02665,4.829,0.0008936,0,0,0,0
124.17,0.027147,4.8479,0.0010584,0,0,0,0
124.67,0.027544,4.8656,0.0010584,0,0,0,0
125.17,0.027842,4.8851,0.00099251,0,0,0,0
125.67,0.028173,4.9039,0.0010255,0,0,0,0
126.17,0.028604,4.9231,0.00095954,0,0,0,0
126.67,0.028836,4.9407,0.0011254,0,0,0,0
127.17,0.029067,4.9591,0.0011254,0,0,0,0
127.67,0.029465,4.978,0.0011254,0,0,0,0
128.17,0.029895,4.9981,0.0012902,0,0,0,0
128.67,0.029961,5.0169,0.0015218,0,0,0,0
129.17,0.030292,5.0359,0.0015548,0,0,0,0
129.67,0.030259,5.0527,0.0016876,0,0,0,0
130.17,0.030557,5.0696,0.0015218,0,0,0,0
130.67,0.030888,5.0869,0.0017205,0,0,0,0
131.17,0.030789,5.107,0.0014889,0,0,0,0
131.67,0.031054,5.1259,0.001423,0,0,0,0
132.17,0.031253,5.1451,0.0015877,0,0,0,0
132.67,0.031286,5.1626,0.0015548,0,0,0,0
133.17,0.031782,5.1806,0.0013231,0,0,0,0
133.67,0.031849,5.1979,0.0014559,0,0,0,0
134.17,0.032279,5.2169,0.001423,0,0,0,0
134.67,0.032544,5.2349,0.0012902,0,0,0,0
135.17,0.032809,5.2531,0.0012902,0,0,0,0
135.67,0.033305,5.2697,0.0012902,0,0,0,0
136.17,0.033405,5.2874,0.0013561,0,0,0,0
136.67,0.033537,5.3057,0.0013231,0,0,0,0
137.17,0.033901,5.3254,0.0012902,0,0,0,0
137.67,0.034332,5.3436,0.0014889,0,0,0,0
138.17,0.034431,5.3621,0.0014889,0,0,0,0
138.67,0.034696,5.3787,0.0017205,0,0,0,0
139.17,0.034895,5.3953,0.0018852,0,0,0,0
139.67,0.035126,5.4119,0.0018852,0,0,0,0
140.17,0.035424,5.4313,0.001985,0,0,0,0
140.67,0.035822,5.4496,0.002018,0,0,0,0
141.17,0.036053,5.4684,0.0018852,0,0,0,0
141.67,0.036484,5.4859,0.0019511,0,0,0,0
142.17,0.037047,5.504,0.0019511,0,0,0,0
142.67,0.037411,5.5206,0.0017535,0,0,0,0
143.17,0.03794,5.5384,0.0018193,0,0,0,0
143.67,0.03857,5.5559,0.0017205,0,0,0,0
144.17,0.039,5.5741,0.0016536,0,0,0,0
144.67,0.039463,5.5907,0.0016876,0,0,0,0
145.17,0.039662,5.6084,0.0016536,0,0,0,0
145.67,0.039761,5.6264,0.0015877,0,0,0,0
146.17,0.039861,5.6454,0.0015877,0,0,0,0
146.67,0.040093,5.6629,0.0018523,0,0,0,0
147.17,0.040291,5.6811,0.0017205,0,0,0,0
147.67,0.04039,5.6974,0.0020838,0,0,0,0
148.17,0.040854,5.7136,0.0019182,0,0,0,0
148.67,0.041119,5.7296,0.0021826,0,0,0,0
149.17,0.041384,5.7486,0.0024141,0,0,0,0
149.67,0.041748,5.7666,0.0025787,0,0,0,0
150.17,0.042112,5.7851,0.0027113,0,0,0,0
150.67,0.042741,5.8016,0.0026784,0,0,0,0
151.17,0.043138,5.8183,0.0026126,0,0,0,0
151.67,0.043701,5.8341,0.0025458,0,0,0,0
152.17,0.044562,5.8519,0.0025458,0,0,0,0
152.67,0.045191,5.8689,0.0023812,0,0,0,0
153.17,0.045919,5.8861,0.0023812,0,0,0,0
153.67,0.047078,5.9017,0.0023482,0,0,0,0
154.17,0.047541,5.9181,0.0025128,0,0,0,0
154.67,0.048005,5.935,0.0023482,0,0,0,0
155.17,0.048435,5.9531,0.0023153,0,0,0,0
155.67,0.048799,5.9699,0.0025458,0,0,0,0
156.17,0.048932,5.9871,0.0025458,0,0,0,0
156.67,0.049362,6.0024,0.0026126,0,0,0,0
157.17,0.049329,6.0176,0.0026455,0,0,0,0
157.67,0.049627,6.0329,0.0029756,0,0,0,0
158.17,0.049892,6.051,0.0032726,0,0,0,0
158.67,0.050223,6.0679,0.0030414,0,0,0,0
159.17,0.050587,6.0851,0.0033713,0,0,0,0
159.67,0.050918,6.1009,0.0034371,0,0,0,0
160.17,0.051812,6.117,0.0035367,0,0,0,0
160.67,0.052342,6.1319,0.0035696,0,0,0,0
161.17,0.05307,6.1481,0.003734,0,0,0,0
161.67,0.05413,6.1639,0.0037998,0,0,0,0
162.17,0.055189,6.1799,0.0036354,0,0,0,0
162.67,0.05605,6.1946,0.00347,0,0,0,0
163.17,0.056844,6.2106,0.0036354,0,0,0,0
163.67,0.057539,6.227,0.0034371,0,0,0,0
164.17,0.058334,6.2441,0.0036025,0,0,0,0
164.67,0.058864,6.2599,0.0035029,0,0,0,0
165.17,0.059393,6.2759,0.0036025,0,0,0,0
165.67,0.05999,6.2903,0.003735,0,0,0,0
166.17,0.060619,6.3047,0.0037011,0,0,0,0
166.67,0.061314,6.3191,0.0037021,0,0,0,0
167.17,0.061777,6.336,0.0038665,0,0,0,0
167.67,0.062241,6.3519,0.0040637,0,0,0,0
168.17,0.06287,6.3681,0.0043605,0,0,0,0
168.67,0.063698,6.3829,0.0046243,0,0,0,0
169.17,0.064558,6.398,0.0046243,0,0,0,0
169.67,0.065287,6.4121,0.0050204,0,0,0,0
170.17,0.065916,6.4279,0.0052174,0,0,0,0
170.67,0.066777,6.4429,0.0053497,0,0,0,0
171.17,0.067571,6.4581,0.0051845,0,0,0,0
171.67,0.068333,6.472,0.005086,0,0,0,0
172.17,0.069194,6.4869,0.0051517,0,0,0,0
172.67,0.069757,6.502,0.005086,0,0,0,0
173.17,0.070551,6.5179,0.0049875,0,0,0,0
173.67,0.07118,6.5324,0.0049547,0,0,0,0
174.17,0.071644,6.5476,0.0049209,0,0,0,0
174.67,0.072604,6.5613,0.0047567,0,0,0,0
175.17,0.0732,6.5747,0.0049219,0,0,0,0
175.67,0.074193,6.5881,0.005086,0,0,0,0
176.17,0.074855,6.604,0.0051189,0,0,0,0
176.67,0.075948,6.6189,0.0053497,0,0,0,0
177.17,0.077041,6.6339,0.005646,0,0,0,0
177.67,0.078332,6.6474,0.0056788,0,0,0,0
178.17,0.079491,6.6617,0.0060735,0,0,0,0
178.67,0.080716,6.6751,0.0063369,0,0,0,0
179.17,0.081709,6.6899,0.006469,0,0,0,0
179.67,0.082801,6.7039,0.0069289,0,0,0,0
180.17,0.083761,6.7181,0.0069289,0,0,0,0
180.67,0.084622,6.731,0.007061,0,0,0,0
181.17,0.085351,6.7449,0.0073241,0,0,0,0
181.67,0.086145,6.7596,0.0069955,0,0,0,0
182.17,0.086642,6.7753,0.0070938,0,0,0,0
182.67,0.087304,6.7891,0.0068962,0,0,0,0
183.17,0.088099,6.8034,0.0068306,0,0,0,0
183.67,0.088629,6.8167,0.0068306,0,0,0,0
184.17,0.08939,6.83,0.0068316,0,0,0,0
184.67,0.090351,6.8431,0.0066667,0,0,0,0
185.17,0.091377,6.8584,0.0066667,0,0,0,0
185.67,0.092436,6.8724,0.0070282,0,0,0,0
186.17,0.093761,6.8869,0.0069299,0,0,0,0
186.67,0.094853,6.9001,0.0070282,0,0,0,0
187.17,0.09588,6.9137,0.0072586,0,0,0,0
187.67,0.09727,6.9264,0.0076526,0,0,0,0
188.17,0.098164,6.9406,0.0076199,0,0,0,0
188.67,0.099223,6.9541,0.0080803,0,0,0,0
189.17,0.10005,6.9679,0.0083094,0,0,0,0
189.67,0.10124,6.9806,0.0086713,0,0,0,0
190.17,0.10214,6.9943,0.0088021,0,0,0,0
190.67,0.103,7.0083,0.0089657,0,0,0,0
191.17,0.10399,7.0229,0.0090321,0,0,0,0
191.67,0.10505,7.0361,0.0090648,0,0,0,0
192.17,0.10637,7.0499,0.0088349,0,0,0,0
192.67,0.10757,7.0623,0.008934,0,0,0,0
193.17,0.10899,7.0744,0.0087367,0,0,0,0
193.67,0.11018,7.0864,0.0084085,0,0,0,0
194.17,0.1119,7.1007,0.0084413,0,0,0,0
194.67,0.11316,7.1144,0.0085722,0,0,0,0
195.17,0.11429,7.1286,0.0087694,0,0,0,0
195.67,0.11535,7.1411,0.008704,0,0,0,0
196.17,0.11657,7.154,0.008704,0,0,0,0
196.67,0.11743,7.1661,0.008703,0,0,0,0
197.17,0.11833,7.1796,0.0088676,0,0,0,0
197.67,0.11919,7.1921,0.0092937,0,0,0,0
198.17,0.11978,7.2049,0.0096552,0,0,0,0
198.67,0.12084,7.2163,0.0099493,0,0,0,0
199.17,0.12174,7.2289,0.010146,0,0,0,0
199.67,0.1228,7.242,0.01054,0,0,0,0
200.17,0.12389,7.2561,0.010736,0,0,0,0
200.67,0.12511,7.2691,0.010802,0,0,0,0
201.17,0.12654,7.2826,0.011096,0,0,0,0
201.67,0.12793,7.2943,0.010933,0,0,0,0
202.17,0.12945,7.3057,0.010868,0,0,0,0
202.67,0.13074,7.3171,0.010801,0,0,0,0
203.17,0.132,7.3307,0.010801,0,0,0,0
203.67,0.13309,7.3437,0.010606,0,0,0,0
204.17,0.13412,7.357,0.010573,0,0,0,0
204.67,0.13534,7.3687,0.010441,0,0,0,0
205.17,0.1364,7.3807,0.010573,0,0,0,0
205.67,0.1375,7.3921,0.01054,0,0,0,0
206.17,0.13846,7.4049,0.010802,0,0,0,0
206.67,0.13988,7.4171,0.010933,0,0,0,0
207.17,0.14097,7.4296,0.01113,0,0,0,0
207.67,0.14276,7.4406,0.011457,0,0,0,0
208.17,0.14428,7.4526,0.011784,0,0,0,0
208.67,0.14597,7.4653,0.012274,0,0,0,0
209.17,0.14736,7.4789,0.012307,0,0,0,0
209.67,0.14905,7.4911,0.012635,0,0,0,0
210.17,0.15047,7.5036,0.012896,0,0,0,0
210.67,0.15177,7.5146,0.012994,0,0,0,0
211.17,0.15289,7.5257,0.013157,0,0,0,0
211.67,0.15408,7.5369,0.013157,0,0,0,0
212.17,0.15494,7.5497,0.012962,0,0,0,0
212.67,0.1565,7.5617,0.013027,0,0,0,0
213.17,0.15733,7.5743,0.012667,0,0,0,0
213.67,0.15852,7.5857,0.012863,0,0,0,0
214.17,0.15981,7.5974,0.012635,0,0,0,0
214.67,0.16117,7.6081,0.0127,0,0,0,0
215.17,0.16246,7.6199,0.0127,0,0,0,0
215.67,0.16421,7.6311,0.012635,0,0,0,0
216.17,0.16551,7.6429,0.012896,0,0,0,0
216.67,0.16719,7.6539,0.013092,0,0,0,0
217.17,0.16845,7.6657,0.013256,0,0,0,0
217.67,0.16991,7.6776,0.013517,0,0,0,0
218.17,0.17103,7.6899,0.013745,0,0,0,0
218.67,0.17229,7.7011,0.01417,0,0,0,0
219.17,0.17345,7.7129,0.014561,0,0,0,0
219.67,0.17474,7.7236,0.014594,0,0,0,0
220.17,0.17593,7.7341,0.015116,0,0,0,0
220.67,0.17733,7.7447,0.015019,0,0,0,0
221.17,0.17835,7.7571,0.01541,0,0,0,0
221.67,0.18011,7.7687,0.01541,0,0,0,0
222.17,0.18166,7.7806,0.015149,0,0,0,0
222.67,0.18335,7.7911,0.015019,0,0,0,0
223.17,0.18517,7.802,0.015181,0,0,0,0
223.67,0.18676,7.8121,0.015116,0,0,0,0
224.17,0.18858,7.8236,0.014889,0,0,0,0
224.67,0.1903,7.8347,0.014823,0,0,0,0
225.17,0.19176,7.8463,0.015051,0,0,0,0
225.67,0.19318,7.8566,0.014986,0,0,0,0
226.17,0.19457,7.8673,0.015181,0,0,0,0
226.67,0.19577,7.8786,0.015313,0,0,0,0
227.17,0.19722,7.8906,0.015411,0,0,0,0
227.67,0.19848,7.9014,0.015834,0,0,0,0
228.17,0.2001,7.9126,0.01603,0,0,0,0
228.67,0.20169,7.9226,0.016485,0,0,0,0
229.17,0.20315,7.9327,0.016778,0,0,0,0
229.67,0.2052,7.9429,0.01717,0,0,0,0
230.17,0.20676,7.9547,0.017299,0,0,0,0
230.67,0.20858,7.9657,0.017332,0,0,0,0
231.17,0.21017,7.9767,0.017365,0,0,0,0
231.67,0.21159,7.9863,0.017495,0,0,0,0
232.17,0.21302,7.9964,0.017463,0,0,0,0
232.67,0.21447,8.0064,0.017494,0,0,0,0
233.17,0.2156,8.0176,0.017462,0,0,0,0
233.67,0.21686,8.0281,0.017332,0,0,0,0
234.17,0.21818,8.0389,0.017299,0,0,0,0
234.67,0.21944,8.0486,0.017333,0,0,0,0
235.17,0.2209,8.059,0.017463,0,0,0,0
235.67,0.22235,8.0696,0.017626,0,0,0,0
236.17,0.22424,8.0809,0.017723,0,0,0,0
236.67,0.22606,8.0911,0.017886,0,0,0,0
237.17,0.22808,8.1016,0.018179,0,0,0,0
237.67,0.22967,8.1109,0.018374,0,0,0,0
238.17,0.23119,8.1201,0.018634,0,0,0,0
238.67,0.23288,8.1294,0.018959,0,0,0,0
239.17,0.23424,8.1401,0.019251,0,0,0,0
239.67,0.23593,8.1503,0.019576,0,0,0,0
240.17,0.23735,8.1607,0.019706,0,0,0,0
240.67,0.23871,8.1703,0.019933,0,0,0,0
241.17,0.24007,8.1801,0.020127,0,0,0,0
241.67,0.24169,8.1894,0.020225,0,0,0,0
242.17,0.24341,8.1993,0.019998,0,0,0,0
242.67,0.24516,8.2087,0.02016,0,0,0,0
243.17,0.24732,8.2186,0.020063,0,0,0,0
243.67,0.24917,8.2279,0.020128,0,0,0,0
244.17,0.25116,8.2377,0.020031,0,0,0,0
244.67,0.25311,8.2476,0.019999,0,0,0,0
245.17,0.25473,8.2579,0.020193,0,0,0,0
245.67,0.25635,8.2674,0.020161,0,0,0,0
246.17,0.25794,8.2776,0.020323,0,0,0,0
246.67,0.25957,8.2866,0.020681,0,0,0,0
247.17,0.26099,8.2957,0.020745,0,0,0,0
247.67,0.26278,8.3046,0.021037,0,0,0,0
248.17,0.26407,8.3147,0.021328,0,0,0,0
248.67,0.26576,8.324,0.021458,0,0,0,0
249.17,0.26755,8.334,0.021653,0,0,0,0
249.67,0.2693,8.343,0.021911,0,0,0,0
250.17,0.27125,8.3521,0.022268,0,0,0,0
250.67,0.27324,8.3604,0.022495,0,0,0,0
251.17,0.27543,8.3696,0.022527,0,0,0,0
251.67,0.27698,8.379,0.022656,0,0,0,0
252.17,0.27844,8.389,0.02269,0,0,0,0
252.67,0.27996,8.3984,0.022624,0,0,0,0
253.17,0.28135,8.4079,0.022754,0,0,0,0
253.67,0.28274,8.4171,0.022723,0,0,0,0
254.17,0.28427,8.4269,0.022592,0,0,0,0
254.67,0.28586,8.4361,0.022723,0,0,0,0
255.17,0.28748,8.4453,0.022722,0,0,0,0
255.67,0.28936,8.4534,0.022916,0,0,0,0
256.17,0.29072,8.4624,0.023209,0,0,0,0
256.67,0.29304,8.4713,0.023273,0,0,0,0
257.17,0.29496,8.4807,0.023466,0,0,0,0
257.67,0.29714,8.4893,0.02392,0,0,0,0
258.17,0.2991,8.4981,0.024081,0,0,0,0
258.67,0.30066,8.5064,0.024275,0,0,0,0
259.17,0.30244,8.5156,0.024597,0,0,0,0
259.67,0.30403,8.5244,0.024823,0,0,0,0
260.17,0.30552,8.5336,0.025049,0,0,0,0
260.67,0.30724,8.5421,0.025244,0,0,0,0
261.17,0.30896,8.5509,0.025372,0,0,0,0
261.67,0.31049,8.5594,0.025372,0,0,0,0
262.17,0.31257,8.5686,0.025503,0,0,0,0
262.67,0.31443,8.5774,0.025406,0,0,0,0
263.17,0.31651,8.5863,0.025535,0,0,0,0
263.67,0.319,8.5941,0.02547,0,0,0,0
264.17,0.32092,8.6027,0.02547,0,0,0,0
264.67,0.32307,8.6113,0.025566,0,0,0,0
265.17,0.32489,8.6204,0.02576,0,0,0,0
265.67,0.32681,8.6286,0.026083,0,0,0,0
266.17,0.3283,8.6374,0.026277,0,0,0,0
266.67,0.33022,8.6456,0.026373,0,0,0,0
267.17,0.33174,8.6539,0.026534,0,0,0,0
267.67,0.33373,8.6617,0.026567,0,0,0,0
268.17,0.33535,8.6703,0.026953,0,0,0,0
268.67,0.33744,8.6784,0.027308,0,0,0,0
269.17,0.33939,8.6869,0.027468,0,0,0,0
269.67,0.34161,8.6951,0.027726,0,0,0,0
270.17,0.34386,8.7039,0.027822,0,0,0,0
270.67,0.34601,8.7124,0.027952,0,0,0,0
271.17,0.34813,8.721,0.028274,0,0,0,0
271.67,0.35002,8.729,0.028274,0,0,0,0
272.17,0.35181,8.7373,0.028306,0,0,0,0
272.67,0.3533,8.7451,0.028402,0,0,0,0
273.17,0.35499,8.7531,0.028498,0,0,0,0
273.67,0.35687,8.7606,0.028692,0,0,0,0
274.17,0.35853,8.7687,0.02866,0,0,0,0
274.67,0.36028,8.7766,0.028596,0,0,0,0
275.17,0.36237,8.7854,0.02895,0,0,0,0
275.67,0.36452,8.7933,0.028853,0,0,0,0
276.17,0.36654,8.8011,0.029174,0,0,0,0
276.67,0.36866,8.8084,0.029399,0,0,0,0
277.17,0.37045,8.8166,0.029753,0,0,0,0
277.67,0.37257,8.8244,0.029817,0,0,0,0
278.17,0.37442,8.8326,0.030138,0,0,0,0
278.67,0.37591,8.8404,0.030492,0,0,0,0
279.17,0.37786,8.8486,0.030651,0,0,0,0
279.67,0.37942,8.8564,0.030781,0,0,0,0
280.17,0.38131,8.8643,0.031036,0,0,0,0
280.67,0.38296,8.872,0.031133,0,0,0,0
281.17,0.38492,8.88,0.031229,0,0,0,0
281.67,0.38677,8.8871,0.031551,0,0,0,0
282.17,0.38935,8.8944,0.031518,0,0,0,0
282.67,0.39167,8.9019,0.031582,0,0,0,0
283.17,0.39386,8.9101,0.031711,0,0,0,0
283.67,0.39604,8.9176,0.031807,0,0,0,0
284.17,0.39783,8.9254,0.031904,0,0,0,0
284.67,0.39968,8.9326,0.031775,0,0,0,0
285.17,0.40157,8.9399,0.03216,0,0,0,0
285.67,0.40326,8.9467,0.032385,0,0,0,0
286.17,0.40525,8.9546,0.03264,0,0,0,0
286.67,0.4071,8.9621,0.0328,0,0,0,0
287.17,0.40896,8.9699,0.03312,0,0,0,0
287.67,0.41127,8.9771,0.033217,0,0,0,0
288.17,0.41369,8.9849,0.033537,0,0,0,0
288.67,0.41561,8.9921,0.033697,0,0,0,0
289.17,0.41823,8.9999,0.034082,0,0,0,0
289.67,0.42078,9.0071,0.034113,0,0,0,0
290.17,0.42269,9.0146,0.034337,0,0,0,0
290.67,0.42462,9.0211,0.034561,0,0,0,0
291.17,0.42667,9.0281,0.034305,0,0,0,0
291.67,0.42862,9.0349,0.034753,0,0,0,0
292.17,0.43034,9.0424,0.035136,0,0,0,0
292.67,0.43246,9.0496,0.035041,0,0,0,0
293.17,0.43432,9.0571,0.035105,0,0,0,0
293.67,0.43644,9.0639,0.035264,0,0,0,0
294.17,0.43859,9.0709,0.0352,0,0,0,0
294.67,0.44101,9.0777,0.03552,0,0,0,0
295.17,0.44349,9.0853,0.035552,0,0,0,0
295.67,0.44571,9.0924,0.036031,0,0,0,0
296.17,0.44779,9.0996,0.036158,0,0,0,0
296.67,0.45011,9.1064,0.036287,0,0,0,0
297.17,0.45206,9.1136,0.036542,0,0,0,0
297.67,0.45412,9.1207,0.036734,0,0,0,0
298.17,0.45594,9.128,0.036925,0,0,0,0
298.67,0.45776,9.1347,0.037148,0,0,0,0
299.17,0.46004,9.1416,0.037499,0,0,0,0
299.67,0.46196,9.1481,0.037626,0,0,0,0
300.17,0.46412,9.1551,0.03785,0,0,0,0
300.67,0.46676,9.1619,0.037913,0,0,0,0
301.17,0.46885,9.1691,0.038233,0,0,0,0
301.67,0.47117,9.1756,0.038295,0,0,0,0
302.17,0.47415,9.1827,0.038742,0,0,0,0
302.67,0.47597,9.1896,0.038583,0,0,0,0
303.17,0.47776,9.1966,0.038774,0,0,0,0
303.67,0.47951,9.2027,0.038838,0,0,0,0
304.17,0.48127,9.2093,0.038806,0,0,0,0
304.67,0.48322,9.2157,0.039029,0,0,0,0
305.17,0.48521,9.2226,0.039443,0,0,0,0
305.67,0.48706,9.2294,0.039443,0,0,0,0
306.17,0.48931,9.2363,0.039602,0,0,0,0
306.67,0.49167,9.2427,0.039888,0,0,0,0
307.17,0.49441,9.2493,0.04027,0,0,0,0
307.67,0.4966,9.2557,0.040461,0,0,0,0
308.17,0.49895,9.2626,0.040715,0,0,0,0
308.67,0.50094,9.2689,0.040938,0,0,0,0
309.17,0.50305,9.2751,0.041255,0,0,0,0
309.67,0.50521,9.2811,0.0417,0,0,0,0
310.17,0.50686,9.2879,0.041827,0,0,0,0
310.67,0.50895,9.2939,0.042017,0,0,0,0
311.17,0.5111,9.3004,0.042176,0,0,0,0
311.67,0.51315,9.3066,0.042209,0,0,0,0
312.17,0.51557,9.3129,0.042462,0,0,0,0
312.67,0.51779,9.3187,0.042557,0,0,0,0
313.17,0.52067,9.3253,0.042717,0,0,0,0
313.67,0.52305,9.3317,0.04281,0,0,0,0
314.17,0.5254,9.338,0.04297,0,0,0,0
314.67,0.52775,9.344,0.043224,0,0,0,0
315.17,0.52977,9.3503,0.043445,0,0,0,0
315.67,0.53186,9.3567,0.043509,0,0,0,0
316.17,0.53395,9.3633,0.043732,0,0,0,0
316.67,0.5361,9.3694,0.04408,0,0,0,0
317.17,0.53808,9.3753,0.044397,0,0,0,0
317.67,0.54024,9.3804,0.044555,0,0,0,0
318.17,0.54279,9.3861,0.044904,0,0,0,0
318.67,0.5452,9.3921,0.045157,0,0,0,0
319.17,0.54792,9.3989,0.045409,0,0,0,0
319.67,0.5505,9.4046,0.045599,0,0,0,0
320.17,0.55295,9.4107,0.045947,0,0,0,0
320.67,0.55497,9.4166,0.04601,0,0,0,0
321.17,0.55719,9.4226,0.046232,0,0,0,0
321.67,0.55924,9.428,0.046548,0,0,0,0
322.17,0.56133,9.434,0.046612,0,0,0,0
322.67,0.56341,9.44,0.046927,0,0,0,0
323.17,0.56563,9.446,0.04718,0,0,0,0
323.67,0.56808,9.452,0.047212,0,0,0,0
324.17,0.5706,9.458,0.047308,0,0,0,0
324.67,0.57272,9.4637,0.047402,0,0,0,0
325.17,0.57556,9.4696,0.047749,0,0,0,0
325.67,0.57801,9.4754,0.047844,0,0,0,0
326.17,0.5806,9.4813,0.048035,0,0,0,0
326.67,0.58272,9.4864,0.048506,0,0,0,0
327.17,0.58483,9.4919,0.048665,0,0,0,0
327.67,0.58682,9.4971,0.048854,0,0,0,0
328.17,0.58904,9.5031,0.049139,0,0,0,0
328.67,0.59106,9.5089,0.04939,0,0,0,0
329.17,0.59328,9.5151,0.049799,0,0,0,0
329.67,0.5956,9.5206,0.050051,0,0,0,0
330.17,0.59798,9.5259,0.050272,0,0,0,0
330.67,0.60053,9.5307,0.050493,0,0,0,0
331.17,0.60298,9.5363,0.050776,0,0,0,0
331.67,0.60566,9.5417,0.050996,0,0,0,0
332.17,0.60798,9.5476,0.051028,0,0,0,0
332.67,0.61026,9.5534,0.051312,0,0,0,0
333.17,0.61248,9.5593,0.051563,0,0,0,0
333.67,0.61447,9.5647,0.051909,0,0,0,0
334.17,0.61652,9.5703,0.051846,0,0,0,0
334.67,0.61857,9.5757,0.052097,0,0,0,0
335.17,0.62073,9.5816,0.052414,0,0,0,0
335.67,0.62328,9.5869,0.052852,0,0,0,0
336.17,0.62553,9.5921,0.052853,0,0,0,0
336.67,0.62831,9.5969,0.053199,0,0,0,0
337.17,0.63135,9.6024,0.053418,0,0,0,0
337.67,0.63374,9.6076,0.053763,0,0,0,0
338.17,0.63576,9.6131,0.053826,0,0,0,0
338.67,0.63794,9.6181,0.054202,0,0,0,0
339.17,0.64006,9.6236,0.054328,0,0,0,0
339.67,0.64215,9.6284,0.054923,0,0,0,0
340.17,0.64433,9.6339,0.055206,0,0,0,0
340.67,0.64655,9.6394,0.055456,0,0,0,0
341.17,0.64857,9.645,0.055456,0,0,0,0
341.67,0.65139,9.65,0.055802,0,0,0,0
342.17,0.6542,9.6553,0.05602,0,0,0,0
342.67,0.65705,9.6607,0.056177,0,0,0,0
343.17,0.65936,9.6663,0.056396,0,0,0,0
343.67,0.66198,9.6714,0.056773,0,0,0,0
344.17,0.6643,9.6763,0.05696,0,0,0,0
344.67,0.66678,9.6807,0.057148,0,0,0,0
345.17,0.669,9.6859,0.057492,0,0,0,0
345.67,0.67105,9.6909,0.057617,0,0,0,0
346.17,0.67357,9.6961,0.05796,0,0,0,0
346.67,0.67579,9.7009,0.058303,0,0,0,0
347.17,0.6784,9.7061,0.05871,0,0,0,0
347.67,0.68092,9.7111,0.058835,0,0,0,0
348.17,0.68377,9.7163,0.059117,0,0,0,0
348.67,0.68668,9.721,0.059428,0,0,0,0
349.17,0.68933,9.726,0.059553,0,0,0,0
349.67,0.69195,9.7307,0.060084,0,0,0,0
350.17,0.6941,9.7356,0.060209,0,0,0,0
350.67,0.69635,9.7404,0.060303,0,0,0,0
351.17,0.69854,9.7453,0.060863,0,0,0,0
351.67,0.70095,9.7497,0.061019,0,0,0,0
352.17,0.70347,9.7546,0.061237,0,0,0,0
352.67,0.70592,9.7594,0.061548,0,0,0,0
353.17,0.7084,9.7643,0.06186,0,0,0,0
353.67,0.71125,9.7687,0.062079,0,0,0,0
354.17,0.71413,9.7733,0.062265,0,0,0,0
354.67,0.71688,9.7777,0.062731,0,0,0,0
355.17,0.71956,9.7823,0.062825,0,0,0,0
355.67,0.72178,9.787,0.063353,0,0,0,0
356.17,0.7242,9.7917,0.063539,0,0,0,0
356.67,0.72658,9.7966,0.06388,0,0,0,0
357.17,0.72886,9.8011,0.063911,0,0,0,0
357.67,0.73112,9.8061,0.064501,0,0,0,0
358.17,0.73353,9.8109,0.064751,0,0,0,0
358.67,0.73625,9.8153,0.065124,0,0,0,0
359.17,0.7389,9.8193,0.065309,0,0,0,0
359.67,0.74174,9.8237,0.065465,0,0,0,0
360.17,0.74443,9.8283,0.065682,0,0,0,0
360.67,0.74721,9.8324,0.065961,0,0,0,0
361.17,0.74979,9.8369,0.066302,0,0,0,0
361.67,0.75224,9.8414,0.06655,0,0,0,0
362.17,0.75453,9.8463,0.066768,0,0,0,0
362.67,0.75687,9.8504,0.066922,0,0,0,0
363.17,0.75903,9.8549,0.067417,0,0,0,0
363.67,0.76181,9.8591,0.067726,0,0,0,0
364.17,0.76426,9.8636,0.067848,0,0,0,0
364.67,0.76687,9.8677,0.068406,0,0,0,0
365.17,0.76962,9.8723,0.068282,0,0,0,0
365.67,0.7725,9.8764,0.068715,0,0,0,0
366.17,0.77545,9.8806,0.069211,0,0,0,0
366.67,0.77784,9.8847,0.069363,0,0,0,0
367.17,0.78045,9.8893,0.069797,0,0,0,0
367.67,0.78297,9.8934,0.070105,0,0,0,0
368.17,0.78482,9.8976,0.070197,0,0,0,0
368.67,0.7874,9.9017,0.07063,0,0,0,0
369.17,0.78969,9.9063,0.070938,0,0,0,0
369.67,0.79201,9.9104,0.071186,0,0,0,0
370.17,0.79485,9.9146,0.071493,0,0,0,0
370.67,0.79767,9.9184,0.07177,0,0,0,0
371.17,0.80055,9.9226,0.072173,0,0,0,0
371.67,0.80316,9.9264,0.072295,0,0,0,0
372.17,0.80598,9.9306,0.072602,0,0,0,0
372.67,0.80846,9.9347,0.073065,0,0,0,0
373.17,0.81098,9.939,0.073279,0,0,0,0
373.67,0.81323,9.943,0.073373,0,0,0,0
374.17,0.81565,9.9473,0.073802,0,0,0,0
374.67,0.81793,9.9514,0.074171,0,0,0,0
375.17,0.82055,9.9553,0.074417,0,0,0,0
375.67,0.82303,9.959,0.07494,0,0,0,0
376.17,0.82594,9.9627,0.075003,0,0,0,0
376.67,0.82866,9.9663,0.075279,0,0,0,0
377.17,0.83171,9.97,0.075832,0,0,0,0
377.67,0.83435,9.974,0.075954,0,0,0,0
378.17,0.83694,9.978,0.076323,0,0,0,0
378.67,0.83955,9.9817,0.076629,0,0,0,0
379.17,0.84154,9.9853,0.076935,0,0,0,0
379.67,0.84386,9.989,0.077305,0,0,0,0
380.17,0.84647,9.993,0.077487,0,0,0,0
380.67,0.84896,9.9967,0.077793,0,0,0,0
381.17,0.85164,10.001,0.078316,0,0,0,0
381.67,0.85419,10.004,0.078465,0,0,0,0
382.17,0.8573,10.008,0.078711,0,0,0,0
382.67,0.86028,10.012,0.079294,0,0,0,0
383.17,0.86313,10.016,0.079385,0,0,0,0
383.67,0.86564,10.019,0.079537,0,0,0,0
384.17,0.86816,10.023,0.079935,0,0,0,0
384.67,0.87048,10.027,0.080059,0,0,0,0
385.17,0.87293,10.03,0.080516,0,0,0,0
385.67,0.87525,10.034,0.080823,0,0,0,0
386.17,0.87786,10.037,0.081157,0,0,0,0
386.67,0.88048,10.041,0.081493,0,0,0,0
387.17,0.88306,10.044,0.081859,0,0,0,0
387.67,0.88617,10.048,0.082348,0,0,0,0
388.17,0.88932,10.051,0.082468,0,0,0,0
388.67,0.89233,10.055,0.082927,0,0,0,0
389.17,0.89491,10.058,0.08317,0,0,0,0
389.67,0.89736,10.061,0.083718,0,0,0,0
390.17,0.89978,10.065,0.084082,0,0,0,0
390.67,0.90216,10.068,0.084176,0,0,0,0
391.17,0.90481,10.072,0.084785,0,0,0,0
391.67,0.9072,10.075,0.085149,0,0,0,0
392.17,0.90991,10.079,0.085391,0,0,0,0
392.67,0.91266,10.082,0.085604,0,0,0,0
393.17,0.916,10.085,0.085879,0,0,0,0
393.67,0.91915,10.088,0.086182,0,0,0,0
394.17,0.92203,10.092,0.086546,0,0,0,0
394.67,0.92471,10.095,0.086728,0,0,0,0
395.17,0.92729,10.099,0.087152,0,0,0,0
395.67,0.92961,10.101,0.087305,0,0,0,0
396.17,0.93229,10.105,0.08785,0,0,0,0
396.67,0.93468,10.108,0.088002,0,0,0,0
397.17,0.93729,10.111,0.088395,0,0,0,0
397.67,0.93994,10.114,0.088972,0,0,0,0
398.17,0.94299,10.117,0.089578,0,0,0,0
398.67,0.9459,10.12,0.08985,0,0,0,0
399.17,0.94895,10.123,0.090363,0,0,0,0
399.67,0.95206,10.127,0.090576,0,0,0,0
400.17,0.95471,10.13,0.091212,0,0,0,0
400.67,0.95746,10.133,0.091664,0,0,0,0
401.17,0.95987,10.136,0.092028,0,0,0,0
401.67,0.96245,10.138,0.092239,0,0,0,0
402.17,0.96484,10.142,0.09254,0,0,0,0
402.67,0.96752,10.144,0.092872,0,0,0,0
403.17,0.97033,10.147,0.093082,0,0,0,0
403.67,0.97325,10.15,0.093565,0,0,0,0
404.17,0.97646,10.153,0.093686,0,0,0,0
404.67,0.97931,10.156,0.094108,0,0,0,0
405.17,0.98225,10.159,0.094469,0,0,0,0
405.67,0.98504,10.162,0.094889,0,0,0,0
406.17,0.98785,10.164,0.095282,0,0,0,0
406.67,0.99037,10.168,0.095643,0,0,0,0
407.17,0.99292,10.17,0.096275,0,0,0,0
407.67,0.99543,10.173,0.096545,0,0,0,0
408.17,0.99818,10.176,0.096846,0,0,0,0
408.67,1.001,10.179,0.097568,0,0,0,0
409.17,1.0039,10.181,0.097838,0,0,0,0
409.67,1.0073,10.184,0.098318,0,0,0,0
410.17,1.0103,10.188,0.098708,0,0,0,0
410.67,1.0133,10.191,0.099158,0,0,0,0
411.17,1.016,10.193,0.099488,0,0,0,0
411.67,1.0187,10.195,0.099697,0,0,0,0
412.17,1.0212,10.198,0.10003,0,0,0,0
412.67,1.0239,10.2,0.1005,0,0,0,0
413.17,1.0265,10.203,0.10086,0,0,0,0
413.67,1.029,10.206,0.10119,0,0,0,0
414.17,1.032,10.208,0.10158,0,0,0,0
414.67,1.0351,10.211,0.10215,0,0,0,0
415.17,1.0384,10.213,0.10257,0,0,0,0
415.67,1.0414,10.216,0.10299,0,0,0,0
416.17,1.0444,10.218,0.1035,0,0,0,0
416.67,1.0472,10.221,0.10406,0,0,0,0
417.17,1.05,10.224,0.1043,0,0,0,0
417.67,1.0525,10.226,0.10475,0,0,0,0
418.17,1.0552,10.229,0.10517,0,0,0,0
418.67,1.0576,10.231,0.10541,0,0,0,0
419.17,1.0605,10.234,0.10594,0,0,0,0
419.67,1.0635,10.236,0.10648,0,0,0,0
420.17,1.0666,10.238,0.10692,0,0,0,0
420.67,1.07,10.24,0.10725,0,0,0,0
421.17,1.0728,10.243,0.10779,0,0,0,0
421.67,1.0759,10.245,0.10817,0,0,0,0
422.17,1.0786,10.248,0.10853,0,0,0,0
422.67,1.0813,10.25,0.10912,0,0,0,0
423.17,1.084,10.252,0.10948,0,0,0,0
423.67,1.0864,10.254,0.10992,0,0,0,0
424.17,1.0892,10.256,0.11046,0,0,0,0
424.67,1.0922,10.259,0.11117,0,0,0,0
425.17,1.095,10.261,0.11158,0,0,0,0
425.67,1.0984,10.263,0.11182,0,0,0,0
426.17,1.1019,10.265,0.11227,0,0,0,0
426.67,1.1046,10.268,0.11274,0,0,0,0
427.17,1.1075,10.269,0.1133,0,0,0,0
427.66,1.1104,10.271,0.11374,0,0,0,0
428.17,1.1132,10.273,0.11428,0,0,0,0
428.67,1.1156,10.275,0.11478,0,0,0,0
429.17,1.1182,10.278,0.1151,0,0,0,0
429.67,1.1211,10.28,0.11572,0,0,0,0
430.17,1.1237,10.282,0.11616,0,0,0,0
430.67,1.1267,10.284,0.11684,0,0,0,0
431.17,1.13,10.286,0.11705,0,0,0,0
431.67,1.1336,10.287,0.11764,0,0,0,0
432.17,1.1368,10.289,0.11805,0,0,0,0
432.67,1.1395,10.291,0.11867,0,0,0,0
433.17,1.1424,10.293,0.11923,0,0,0,0
433.67,1.1451,10.295,0.11958,0,0,0,0
434.17,1.1476,10.297,0.11996,0,0,0,0
434.66,1.1504,10.299,0.12061,0,0,0,0
435.17,1.1532,10.3,0.12108,0,0,0,0
435.67,1.1561,10.302,0.12166,0,0,0,0
436.17,1.1592,10.304,0.12199,0,0,0,0
436.67,1.1626,10.306,0.12266,0,0,0,0
437.16,1.166,10.307,0.12313,0,0,0,0
437.67,1.169,10.309,0.1238,0,0,0,0
438.17,1.1715,10.31,0.12433,0,0,0,0
438.66,1.1745,10.312,0.12471,0,0,0,0
439.17,1.1772,10.314,0.12532,0,0,0,0
439.67,1.1797,10.315,0.12567,0,0,0,0
440.17,1.1826,10.317,0.1262,0,0,0,0
440.67,1.1855,10.319,0.12675,0,0,0,0
441.16,1.1886,10.32,0.12722,0,0,0,0
441.67,1.1919,10.322,0.12772,0,0,0,0
442.16,1.1949,10.324,0.12818,0,0,0,0
442.66,1.1981,10.325,0.12871,0,0,0,0
443.17,1.2011,10.326,0.1292,0,0,0,0
443.67,1.204,10.327,0.12975,0,0,0,0
444.17,1.207,10.329,0.13031,0,0,0,0
444.67,1.2096,10.33,0.13074,0,0,0,0
445.17,1.2125,10.332,0.13135,0,0,0,0
445.66,1.2151,10.333,0.13208,0,0,0,0
446.17,1.2183,10.334,0.13243,0,0,0,0
446.66,1.2214,10.336,0.13298,0,0,0,0
447.17,1.2246,10.337,0.13358,0,0,0,0
447.66,1.2279,10.339,0.13434,0,0,0,0
448.17,1.2308,10.34,0.13471,0,0,0,0
448.67,1.2339,10.341,0.13521,0,0,0,0
449.16,1.2366,10.343,0.13601,0,0,0,0
449.66,1.2394,10.344,0.13619,0,0,0,0
450.16,1.2421,10.345,0.13682,0,0,0,0
450.66,1.2451,10.346,0.13723,0,0,0,0
451.17,1.2479,10.348,0.13783,0,0,0,0
451.66,1.2513,10.349,0.13847,0,0,0,0
452.16,1.2546,10.35,0.13922,0,0,0,0
452.66,1.258,10.351,0.13971,0,0,0,0
453.16,1.2612,10.353,0.14034,0,0,0,0
453.66,1.2642,10.354,0.14089,0,0,0,0
454.16,1.2672,10.355,0.14166,0,0,0,0
454.66,1.2701,10.356,0.1421,0,0,0,0
455.16,1.2729,10.357,0.1429,0,0,0,0
455.66,1.2759,10.358,0.14347,0,0,0,0
456.17,1.2788,10.358,0.1441,0,0,0,0
456.66,1.2818,10.359,0.14448,0,0,0,0
457.16,1.2853,10.36,0.14511,0,0,0,0
457.66,1.2885,10.361,0.14579,0,0,0,0
458.16,1.292,10.362,0.14645,0,0,0,0
458.66,1.295,10.363,0.14705,0,0,0,0
459.16,1.298,10.364,0.1478,0,0,0,0
459.66,1.3008,10.364,0.14834,0,0,0,0
460.16,1.3038,10.365,0.14902,0,0,0,0
460.66,1.3066,10.366,0.14991,0,0,0,0
461.16,1.3098,10.367,0.1503,0,0,0,0
461.66,1.3129,10.368,0.15105,0,0,0,0
462.16,1.3162,10.368,0.15161,0,0,0,0
462.67,1.3198,10.368,0.15227,0,0,0,0
463.17,1.3232,10.369,0.15298,0,0,0,0
463.67,1.3264,10.37,0.15369,0,0,0,0
464.16,1.3295,10.371,0.1542,0,0,0,0
464.66,1.3323,10.371,0.1548,0,0,0,0
465.16,1.3353,10.372,0.15565,0,0,0,0
465.66,1.338,10.372,0.1561,0,0,0,0
466.16,1.341,10.373,0.15698,0,0,0,0
466.66,1.3441,10.373,0.15757,0,0,0,0
467.16,1.3477,10.374,0.15828,0,0,0,0
467.66,1.351,10.374,0.15921,0,0,0,0
468.16,1.3548,10.375,0.15983,0,0,0,0
468.66,1.3578,10.375,0.1604,0,0,0,0
469.16,1.3608,10.376,0.16119,0,0,0,0
469.66,1.3641,10.376,0.16195,0,0,0,0
470.16,1.3669,10.376,0.16268,0,0,0,0
470.66,1.3697,10.376,0.16358,0,0,0,0
471.16,1.3727,10.376,0.16412,0,0,0,0
471.66,1.376,10.377,0.16479,0,0,0,0
472.16,1.3793,10.377,0.16558,0,0,0,0
472.66,1.3825,10.377,0.16636,0,0,0,0
473.16,1.3864,10.377,0.16726,0,0,0,0
473.66,1.3896,10.377,0.16784,0,0,0,0
474.16,1.3928,10.377,0.16877,0,0,0,0
474.66,1.3957,10.377,0.16936,0,0,0,0
475.16,1.3987,10.378,0.17022,0,0,0,0
475.66,1.4019,10.377,0.17086,0,0,0,0
476.16,1.4048,10.378,0.17176,0,0,0,0
476.66,1.4079,10.378,0.17254,0,0,0,0
477.16,1.4114,10.378,0.17318,0,0,0,0
477.66,1.4149,10.378,0.17404,0,0,0,0
478.16,1.4184,10.378,0.17474,0,0,0,0
478.66,1.4219,10.377,0.17563,0,0,0,0
479.16,1.425,10.377,0.17632,0,0,0,0
479.66,1.4282,10.377,0.17713,0,0,0,0
480.16,1.4313,10.377,0.17774,0,0,0,0
480.66,1.4343,10.376,0.17873,0,0,0,0
481.16,1.4374,10.376,0.1794,0,0,0,0
481.66,1.4405,10.375,0.18028,0,0,0,0
482.16,1.4439,10.375,0.18106,0,0,0,0
482.66,1.4473,10.375,0.18194,0,0,0,0
483.16,1.4509,10.374,0.18255,0,0,0,0
483.66,1.4545,10.374,0.18349,0,0,0,0
484.16,1.4578,10.374,0.18428,0,0,0,0
484.66,1.461,10.373,0.18519,0,0,0,0
485.16,1.464,10.373,0.1861,0,0,0,0
485.66,1.467,10.373,0.18684,0,0,0,0
486.16,1.4701,10.372,0.18775,0,0,0,0
486.66,1.4733,10.371,0.18849,0,0,0,0
487.16,1.4766,10.37,0.18956,0,0,0,0
487.66,1.4801,10.37,0.19022,0,0,0,0
488.16,1.4839,10.369,0.19112,0,0,0,0
488.66,1.4873,10.368,0.19199,0,0,0,0
489.16,1.4906,10.367,0.19278,0,0,0,0
489.66,1.4937,10.366,0.19385,0,0,0,0
490.16,1.4969,10.366,0.19453,0,0,0,0
490.66,1.4999,10.365,0.19548,0,0,0,0
491.16,1.503,10.364,0.19647,0,0,0,0
491.66,1.5063,10.363,0.19747,0,0,0,0
492.16,1.5094,10.362,0.19826,0,0,0,0
492.66,1.513,10.361,0.19921,0,0,0,0
493.16,1.517,10.361,0.20035,0,0,0,0
493.66,1.5207,10.36,0.20127,0,0,0,0
494.16,1.5239,10.359,0.202,0,0,0,0
494.66,1.5271,10.358,0.20297,0,0,0,0
495.16,1.5304,10.356,0.20403,0,0,0,0
495.66,1.5332,10.355,0.20473,0,0,0,0
496.16,1.5365,10.354,0.2057,0,0,0,0
496.66,1.5397,10.353,0.20675,0,0,0,0
497.16,1.5431,10.351,0.20769,0,0,0,0
497.66,1.5468,10.35,0.20874,0,0,0,0
498.16,1.5505,10.349,0.20963,0,0,0,0
498.66,1.554,10.347,0.21078,0,0,0,0
499.16,1.5576,10.346,0.21191,0,0,0,0
499.66,1.5609,10.345,0.21266,0,0,0,0
500.16,1.564,10.343,0.2136,0,0,0,0
500.66,1.567,10.342,0.21453,0,0,0,0
501.16,1.57,10.34,0.21565,0,0,0,0
501.66,1.5735,10.339,0.2165,0,0,0,0
502.16,1.577,10.337,0.21757,0,0,0,0
502.66,1.5806,10.335,0.2184,0,0,0,0
503.16,1.5844,10.333,0.21959,0,0,0,0
503.66,1.5881,10.332,0.22068,0,0,0,0
504.16,1.5913,10.33,0.22188,0,0,0,0
504.66,1.5944,10.328,0.22289,0,0,0,0
505.16,1.5977,10.326,0.22403,0,0,0,0
505.66,1.6008,10.324,0.22482,0,0,0,0
506.16,1.604,10.322,0.22596,0,0,0,0
506.66,1.6074,10.32,0.22691,0,0,0,0
507.16,1.6108,10.319,0.2282,0,0,0,0
507.66,1.6146,10.316,0.22907,0,0,0,0
508.16,1.6184,10.314,0.23009,0,0,0,0
508.66,1.6216,10.312,0.23117,0,0,0,0
509.16,1.6252,10.31,0.23225,0,0,0,0
509.66,1.6283,10.308,0.23311,0,0,0,0
510.16,1.6316,10.307,0.23435,0,0,0,0
510.66,1.6349,10.304,0.23555,0,0,0,0
511.16,1.6381,10.302,0.23691,0,0,0,0
511.66,1.6415,10.3,0.23803,0,0,0,0
512.16,1.6451,10.297,0.23915,0,0,0,0
512.66,1.6487,10.295,0.24038,0,0,0,0
513.16,1.6526,10.292,0.24147,0,0,0,0
513.66,1.6559,10.29,0.24262,0,0,0,0
514.16,1.6597,10.287,0.24376,0,0,0,0
514.66,1.6629,10.285,0.24495,0,0,0,0
515.16,1.6662,10.282,0.24617,0,0,0,0
515.66,1.669,10.28,0.24731,0,0,0,0
516.16,1.672,10.277,0.24842,0,0,0,0
516.66,1.6757,10.274,0.24961,0,0,0,0
517.16,1.6791,10.272,0.25069,0,0,0,0
517.66,1.683,10.269,0.25213,0,0,0,0
518.16,1.6869,10.266,0.25306,0,0,0,0
518.66,1.6904,10.263,0.25421,0,0,0,0
519.16,1.6937,10.261,0.25524,0,0,0,0
519.66,1.6969,10.258,0.25662,0,0,0,0
520.16,1.7,10.255,0.25773,0,0,0,0
520.66,1.7035,10.252,0.25898,0,0,0,0
521.16,1.7066,10.249,0.26003,0,0,0,0
521.66,1.71,10.245,0.26143,0,0,0,0
522.16,1.7139,10.243,0.26276,0,0,0,0
522.66,1.7176,10.239,0.26398,0,0,0,0
523.16,1.7215,10.237,0.26515,0,0,0,0
523.66,1.7253,10.233,0.26639,0,0,0,0
524.16,1.7284,10.23,0.26746,0,0,0,0
524.66,1.7319,10.226,0.26887,0,0,0,0
525.16,1.7351,10.223,0.26996,0,0,0,0
525.66,1.7383,10.219,0.27153,0,0,0,0
526.16,1.7418,10.216,0.27294,0,0,0,0
526.66,1.7452,10.212,0.27418,0,0,0,0
527.16,1.7493,10.209,0.27531,0,0,0,0
527.66,1.7528,10.205,0.27667,0,0,0,0
528.16,1.757,10.202,0.27797,0,0,0,0
528.66,1.7607,10.198,0.2793,0,0,0,0
529.16,1.7639,10.195,0.28065,0,0,0,0
529.66,1.7671,10.19,0.28157,0,0,0,0
530.16,1.7704,10.187,0.2832,0,0,0,0
530.66,1.7737,10.182,0.28462,0,0,0,0
531.16,1.7774,10.178,0.28596,0,0,0,0
531.66,1.7808,10.174,0.28736,0,0,0,0
532.16,1.785,10.17,0.28872,0,0,0,0
532.66,1.7889,10.166,0.29018,0,0,0,0
533.16,1.7925,10.162,0.2916,0,0,0,0
533.66,1.7962,10.158,0.29303,0,0,0,0
534.16,1.7993,10.153,0.29422,0,0,0,0
534.66,1.8029,10.149,0.29572,0,0,0,0
535.16,1.8061,10.145,0.297,0,0,0,0
535.66,1.8096,10.14,0.29831,0,0,0,0
536.16,1.8133,10.136,0.29985,0,0,0,0
536.66,1.8169,10.132,0.3014,0,0,0,0
537.16,1.8209,10.127,0.30267,0,0,0,0
537.66,1.8248,10.122,0.30424,0,0,0,0
538.16,1.8285,10.117,0.30556,0,0,0,0
538.66,1.8318,10.113,0.30704,0,0,0,0
539.16,1.8354,10.108,0.30833,0,0,0,0
539.66,1.8387,10.103,0.30986,0,0,0,0
540.16,1.842,10.098,0.31127,0,0,0,0
540.66,1.8456,10.093,0.3127,0,0,0,0
541.16,1.8492,10.087,0.31411,0,0,0,0
541.66,1.8532,10.082,0.31568,0,0,0,0
542.16,1.8571,10.077,0.31722,0,0,0,0
542.66,1.8611,10.072,0.31864,0,0,0,0
543.16,1.8649,10.067,0.32035,0,0,0,0
543.66,1.8683,10.061,0.32191,0,0,0,0
544.16,1.8716,10.056,0.32357,0,0,0,0
544.66,1.8751,10.05,0.32505,0,0,0,0
545.16,1.8786,10.045,0.32644,0,0,0,0
545.66,1.8823,10.039,0.32795,0,0,0,0
546.16,1.8863,10.033,0.32933,0,0,0,0
546.66,1.89,10.027,0.33078,0,0,0,0
547.16,1.8941,10.021,0.33247,0,0,0,0
547.66,1.8979,10.016,0.33429,0,0,0,0
548.16,1.9015,10.01,0.33586,0,0,0,0
548.66,1.9052,10.003,0.33751,0,0,0,0
549.16,1.9084,9.9961,0.33919,0,0,0,0
549.66,1.9118,9.9899,0.34061,0,0,0,0
550.16,1.9154,9.9843,0.34202,0,0,0,0
550.66,1.9192,9.9786,0.34357,0,0,0,0
551.16,1.9233,9.9719,0.3451,0,0,0,0
551.66,1.9274,9.9647,0.34676,0,0,0,0
552.16,1.9313,9.9586,0.34833,0,0,0,0
552.66,1.9349,9.9527,0.35022,0,0,0,0
553.16,1.9384,9.9461,0.35209,0,0,0,0
553.66,1.9417,9.9389,0.35372,0,0,0,0
554.16,1.9452,9.9314,0.35532,0,0,0,0
554.66,1.9487,9.9249,0.35685,0,0,0,0
555.16,1.9526,9.9181,0.35834,0,0,0,0
555.66,1.9564,9.9116,0.36005,0,0,0,0
556.16,1.9605,9.9041,0.36162,0,0,0,0
556.66,1.9648,9.8966,0.36311,0,0,0,0
557.16,1.9686,9.8881,0.36496,0,0,0,0
557.66,1.972,9.8804,0.36675,0,0,0,0
558.16,1.9755,9.8731,0.36826,0,0,0,0
558.66,1.979,9.8663,0.37025,0,0,0,0
559.16,1.9826,9.8584,0.37204,0,0,0,0
559.66,1.9863,9.8506,0.37359,0,0,0,0
560.16,1.9899,9.8424,0.37543,0,0,0,0
560.66,1.9941,9.8349,0.37716,0,0,0,0
561.16,1.9984,9.8266,0.37904,0,0,0,0
561.66,2.0023,9.8187,0.38088,0,0,0,0
562.16,2.0059,9.81,0.38264,0,0,0,0
562.66,2.0098,9.8011,0.38434,0,0,0,0
563.16,2.0131,9.7917,0.38605,0,0,0,0
563.66,2.0167,9.7839,0.38789,0,0,0,0
564.16,2.0205,9.7759,0.38962,0,0,0,0
564.66,2.0242,9.7673,0.3916,0,0,0,0
565.16,2.0287,9.7577,0.39314,0,0,0,0
565.66,2.0328,9.7486,0.39519,0,0,0,0
566.16,2.0367,9.7386,0.397,0,0,0,0
566.66,2.0406,9.729,0.39883,0,0,0,0
567.16,2.0442,9.7196,0.40065,0,0,0,0
567.66,2.0479,9.7106,0.40244,0,0,0,0
568.16,2.0515,9.7004,0.40384,0,0,0,0
568.66,2.0553,9.6906,0.40578,0,0,0,0
569.16,2.059,9.6801,0.40759,0,0,0,0
569.66,2.0634,9.6707,0.40935,0,0,0,0
570.16,2.0677,9.6604,0.41107,0,0,0,0
570.66,2.072,9.6503,0.41333,0,0,0,0
571.16,2.0759,9.639,0.41529,0,0,0,0
571.66,2.0795,9.6279,0.41748,0,0,0,0
572.16,2.0831,9.6154,0.41946,0,0,0,0
572.66,2.0868,9.6047,0.42138,0,0,0,0
573.16,2.0907,9.5943,0.42309,0,0,0,0
573.66,2.0946,9.5839,0.42509,0,0,0,0
574.16,2.0987,9.5721,0.42691,0,0,0,0
574.66,2.103,9.5606,0.4287,0,0,0,0
575.16,2.1074,9.5476,0.43062,0,0,0,0
575.66,2.1114,9.535,0.43264,0,0,0,0
576.16,2.1154,9.5229,0.43462,0,0,0,0
576.66,2.1188,9.5113,0.43689,0,0,0,0
577.16,2.1226,9.4984,0.43898,0,0,0,0
577.66,2.1263,9.4856,0.44073,0,0,0,0
578.16,2.1307,9.4724,0.44288,0,0,0,0
578.66,2.1347,9.4604,0.44467,0,0,0,0
579.16,2.1391,9.4474,0.44679,0,0,0,0
579.66,2.1435,9.4334,0.44857,0,0,0,0
580.16,2.1476,9.4184,0.45055,0,0,0,0
580.66,2.1516,9.4054,0.45245,0,0,0,0
581.16,2.1553,9.3914,0.45467,0,0,0,0
581.66,2.1591,9.3776,0.45698,0,0,0,0
582.16,2.1629,9.3621,0.45918,0,0,0,0
582.66,2.1673,9.3467,0.46146,0,0,0,0
583.16,2.1714,9.3319,0.46338,0,0,0,0
583.66,2.1763,9.3171,0.46564,0,0,0,0
584.16,2.1807,9.301,0.46805,0,0,0,0
584.66,2.1849,9.2836,0.46996,0,0,0,0
585.16,2.1889,9.2683,0.47205,0,0,0,0
585.66,2.1928,9.2519,0.4742,0,0,0,0
586.16,2.1966,9.235,0.47628,0,0,0,0
586.66,2.2006,9.2166,0.47805,0,0,0,0
587.16,2.2051,9.1994,0.48074,0,0,0,0
587.66,2.2099,9.1813,0.48334,0,0,0,0
588.16,2.2145,9.1646,0.48574,0,0,0,0
588.66,2.2192,9.1474,0.48804,0,0,0,0
589.16,2.2234,9.1299,0.48986,0,0,0,0
589.66,2.2276,9.1087,0.49232,0,0,0,0
590.16,2.2318,9.0887,0.49469,0,0,0,0
590.66,2.2361,9.0677,0.49681,0,0,0,0
591.16,2.2405,9.0477,0.49925,0,0,0,0
591.66,2.2455,9.0259,0.50186,0,0,0,0
592.16,2.2517,9.0039,0.5051,0,0,0,0
592.66,2.2589,8.9737,0.50913,0,0,0,0