File: LAB_DATA/DP600_results/DATA/NT6_45_2.csv
Time[s],Displacement[mm],Force[kN],AxStrain_1,AxStrain_2,Thickness[mm],OuterWidth[mm],InnerWidth[mm]
0.65,0,-0.019292,0,0,1.5295,20,10.008
1.15,9e-06,-0.022205,-1e-05,0,0,0,0
1.65,-6.6e-05,-0.02471,-3.6001e-05,0,0,0,0
2.15,-5.8e-05,-0.011116,-4e-06,0,0,0,0
2.65,0.000224,0.016842,7.6997e-05,0,0,0,0
3.15,0.00035,0.050436,-3.3001e-05,0,0,0,0
3.65,0.000315,0.079423,-0.00010201,0,0,0,0
4.15,0.000403,0.10915,9.7995e-05,0,0,0,0
4.65,0.00067,0.13628,3.7999e-05,0,0,0,0
5.15,0.000686,0.16343,3.8999e-05,0,0,0,0
5.65,0.000735,0.18756,-4.7001e-05,0,0,0,0
6.15,0.000689,0.21144,3.4999e-05,0,0,0,0
6.65,0.000805,0.23299,-0.00012801,0,0,0,0
7.15,0.000844,0.25257,3.8999e-05,0,0,0,0
7.65,0.000902,0.26843,5e-06,0,0,0,0
8.15,0.001006,0.28515,-8.3003e-05,0,0,0,0
8.65,0.000846,0.301,-6.5002e-05,0,0,0,0
9.15,0.001026,0.31758,-3.1e-05,0,0,0,0
9.65,0.00094,0.33485,-5.9002e-05,0,0,0,0
10.15,0.001117,0.35529,-3.8001e-05,0,0,0,0
10.65,0.001215,0.37428,0.00011299,0,0,0,0
11.15,0.001229,0.39401,-2.1e-05,0,0,0,0
11.65,0.001358,0.41199,4e-06,0,0,0,0
12.15,0.001395,0.43086,-1.4e-05,0,0,0,0
12.65,0.00153,0.44857,0.00010499,0,0,0,0
13.15,0.001613,0.46786,0.00016999,0,0,0,0
13.65,0.001574,0.48614,1.6e-05,0,0,0,0
14.15,0.001601,0.50486,2.1e-05,0,0,0,0
14.65,0.001785,0.522,5.9998e-05,0,0,0,0
15.15,0.001841,0.54015,0.00010899,0,0,0,0
15.65,0.001779,0.559,2.3e-05,0,0,0,0
16.15,0.001811,0.57915,0.00011599,0,0,0,0
16.65,0.001836,0.59814,-4.3001e-05,0,0,0,0
17.15,0.001784,0.61786,1.3e-05,0,0,0,0
17.65,0.00193,0.63571,-0.00010601,0,0,0,0
18.15,0.001867,0.65358,-1e-05,0,0,0,0
18.65,0.001982,0.67185,-2.3e-05,0,0,0,0
19.15,0.002004,0.69358,0,0,0,0,0
19.65,0.002017,0.71399,-9.3004e-05,0,0,0,0
20.15,0.002141,0.73529,-7.9003e-05,0,0,0,0
20.65,0.002276,0.75471,-0.00015601,0,0,0,0
21.15,0.002448,0.77486,-0.00019202,0,0,0,0
21.65,0.0025,0.79357,0.00013599,0,0,0,0
22.15,0.002589,0.81443,-1.7e-05,0,0,0,0
22.65,0.002498,0.83457,-0.00012601,0,0,0,0
23.15,0.002679,0.85515,-3e-05,0,0,0,0
23.65,0.002949,0.87371,3.5999e-05,0,0,0,0
24.15,0.002937,0.89401,0.00016599,0,0,0,0
24.65,0.003454,0.91514,0.00024797,0,0,0,0
25.15,0.003347,0.93772,0,0,0,0,0
25.65,0.003524,0.95828,3e-06,0,0,0,0
26.15,0.003584,0.97943,9.5995e-05,0,0,0,0
26.65,0.003542,0.99842,0.00017898,0,0,0,0
27.15,0.0037,1.0176,9.2996e-05,0,0,0,0
27.65,0.003468,1.0369,3e-06,0,0,0,0
28.15,0.003589,1.0596,1.3e-05,0,0,0,0
28.65,0.003538,1.081,-3.6001e-05,0,0,0,0
29.15,0.003601,1.103,-3.3001e-05,0,0,0,0
29.65,0.00352,1.123,-0.00012901,0,0,0,0
30.15,0.003589,1.1436,-0.00016901,0,0,0,0
30.65,0.00373,1.1629,-0.00016601,0,0,0,0
31.15,0.003822,1.1844,-7.3003e-05,0,0,0,0
31.65,0.003945,1.2053,-7.0002e-05,0,0,0,0
32.15,0.004047,1.2267,-2e-05,0,0,0,0
32.65,0.003908,1.2461,-5.3001e-05,0,0,0,0
33.15,0.004449,1.267,-0.00012601,0,0,0,0
33.65,0.004375,1.2884,0.00018198,0,0,0,0
34.15,0.004586,1.3111,7e-06,0,0,0,0
34.65,0.004818,1.3316,3e-05,0,0,0,0
35.15,0.005479,1.3527,2.6e-05,0,0,0,0
35.65,0.00557,1.3721,0.00014899,0,0,0,0
36.15,0.005633,1.3916,-7e-06,0,0,0,0
36.65,0.005722,1.4109,9.8995e-05,0,0,0,0
37.15,0.00579,1.4336,0.00017199,0,0,0,0
37.65,0.005991,1.455,3e-06,0,0,0,0
38.15,0.005697,1.477,-3e-05,0,0,0,0
38.65,0.005265,1.497,3.5999e-05,0,0,0,0
39.15,0.005492,1.5179,1.3e-05,0,0,0,0
39.65,0.005312,1.5373,-2.6e-05,0,0,0,0
40.15,0.005749,1.5584,7e-06,0,0,0,0
40.65,0.005434,1.5786,-1.3e-05,0,0,0,0
41.15,0.005573,1.5997,-0.00016901,0,0,0,0
41.65,0.005607,1.6191,0.00019898,0,0,0,0
42.15,0.005682,1.64,-7.3003e-05,0,0,0,0
42.65,0.005754,1.6614,-6.3002e-05,0,0,0,0
43.15,0.006248,1.6841,-4.6001e-05,0,0,0,0
43.65,0.005992,1.7049,-0.00028104,0,0,0,0
44.15,0.00597,1.7261,8.8996e-05,0,0,0,0
44.65,0.006789,1.7451,0.00014199,0,0,0,0
45.15,0.006903,1.7639,-7.6003e-05,0,0,0,0
45.65,0.007296,1.7826,7.2997e-05,0,0,0,0
46.15,0.007656,1.8049,0.00018898,0,0,0,0
46.65,0.007625,1.826,0.00020498,0,0,0,0
47.15,0.007821,1.848,-5.0001e-05,0,0,0,0
47.65,0.00791,1.868,0.00015199,0,0,0,0
48.15,0.00763,1.8889,0.00025797,0,0,0,0
48.65,0.007721,1.9083,0.00023197,0,0,0,0
49.15,0.007529,1.9294,1.7e-05,0,0,0,0
49.65,0.007286,1.9499,0.00010299,0,0,0,0
50.15,0.007128,1.9711,0.00013599,0,0,0,0
50.65,0.007227,1.9901,-0.00014201,0,0,0,0
51.15,0.007071,2.0103,2.6e-05,0,0,0,0
51.65,0.007188,2.0311,-0.00010301,0,0,0,0
52.15,0.007499,2.0534,0.00012899,0,0,0,0
52.65,0.007295,2.0736,1e-05,0,0,0,0
53.15,0.007729,2.0944,-5.0001e-05,0,0,0,0
53.65,0.007875,2.1134,-7.9003e-05,0,0,0,0
54.15,0.008085,2.1323,-3.6001e-05,0,0,0,0
54.65,0.008429,2.1511,5.5998e-05,0,0,0,0
55.15,0.008649,2.1733,6.5998e-05,0,0,0,0
55.65,0.008904,2.1943,2.6e-05,0,0,0,0
56.15,0.009399,2.2157,-1.3e-05,0,0,0,0
56.65,0.009504,2.2353,0.00026197,0,0,0,0
57.15,0.009676,2.2559,0.00012899,0,0,0,0
57.65,0.009892,2.2753,0.00024197,0,0,0,0
58.15,0.009759,2.2964,3.5999e-05,0,0,0,0
58.65,0.009838,2.3166,0,0,0,0,0
59.15,0.009782,2.3374,6.5998e-05,0,0,0,0
59.65,0.009402,2.3564,-2.6e-05,0,0,0,0
60.15,0.009157,2.377,0.00015199,0,0,0,0
60.65,0.00934,2.3981,-4.3001e-05,0,0,0,0
61.15,0.009045,2.4204,0.00016899,0,0,0,0
61.65,0.009154,2.4406,-0.00014601,0,0,0,0
62.15,0.009092,2.4614,2.3e-05,0,0,0,0
62.65,0.009091,2.4804,0.00012899,0,0,0,0
63.15,0.009321,2.4996,-3.6001e-05,0,0,0,0
63.65,0.009521,2.5186,-5.3001e-05,0,0,0,0
64.15,0.009817,2.5406,1.3e-05,0,0,0,0
64.65,0.010017,2.5613,0.00019198,0,0,0,0
65.15,0.010612,2.583,4.5999e-05,0,0,0,0
65.65,0.010772,2.603,-6.0002e-05,0,0,0,0
66.15,0.011215,2.6233,0.00012599,0,0,0,0
66.65,0.011648,2.6421,0.00023497,0,0,0,0
67.15,0.01187,2.6631,0.00030795,0,0,0,0
67.65,0.012113,2.6836,0.00022497,0,0,0,0
68.15,0.011866,2.7044,0.00016199,0,0,0,0
68.65,0.011515,2.7234,8.2997e-05,0,0,0,0
69.15,0.011603,2.7437,6.9998e-05,0,0,0,0
69.65,0.01164,2.7647,1e-05,0,0,0,0
70.15,0.011251,2.7871,5.9998e-05,0,0,0,0
70.65,0.011066,2.8076,0.00014199,0,0,0,0
71.15,0.010962,2.8287,0.00014599,0,0,0,0
71.65,0.010827,2.8479,0.00021798,0,0,0,0
72.15,0.010888,2.8669,0.00010599,0,0,0,0
72.65,0.010847,2.8856,-4.3001e-05,0,0,0,0
73.15,0.010979,2.9076,0.00013199,0,0,0,0
73.65,0.011166,2.9283,5.2999e-05,0,0,0,0
74.15,0.011479,2.95,0.00010299,0,0,0,0
74.65,0.011784,2.97,0.00024197,0,0,0,0
75.15,0.012051,2.9903,7e-06,0,0,0,0
75.65,0.012542,3.0091,0.00024497,0,0,0,0
76.15,0.012791,3.0299,0.00038093,0,0,0,0
76.65,0.013322,3.0501,0.00019198,0,0,0,0
77.15,0.013544,3.0709,0.00061581,0,0,0,0
77.65,0.013881,3.0897,0.00036693,0,0,0,0
78.15,0.01402,3.1097,0.00037693,0,0,0,0
78.65,0.01383,3.1304,0.00039392,0,0,0,0
79.15,0.013726,3.1524,0.00053985,0,0,0,0
79.65,0.013571,3.1726,0.00037393,0,0,0,0
80.15,0.013306,3.1931,0.00035094,0,0,0,0
80.65,0.013046,3.2117,0.00037093,0,0,0,0
81.15,0.012877,3.2306,0.00023497,0,0,0,0
81.65,0.012622,3.2496,0.00034094,0,0,0,0
82.15,0.012577,3.2716,8.5996e-05,0,0,0,0
82.65,0.012582,3.2923,0.00028096,0,0,0,0
83.15,0.012762,3.3137,0.00035094,0,0,0,0
83.65,0.012764,3.3333,0.00021498,0,0,0,0
84.15,0.013304,3.3533,0.00032395,0,0,0,0
84.65,0.013409,3.3719,0.00025497,0,0,0,0
85.15,0.013866,3.3921,0.00029096,0,0,0,0
85.65,0.01419,3.4119,0.00053286,0,0,0,0
86.15,0.014813,3.4324,0.00033794,0,0,0,0
86.65,0.014968,3.4511,0.00042991,0,0,0,0
87.15,0.015336,3.471,0.00046989,0,0,0,0
87.65,0.01568,3.4914,0.00054985,0,0,0,0
88.15,0.015767,3.5131,0.00070775,0,0,0,0
88.65,0.015826,3.5329,0.00082066,0,0,0,0
89.15,0.015618,3.5531,0.00070475,0,0,0,0
89.65,0.015402,3.5717,0.00054585,0,0,0,0
90.15,0.015572,3.5903,0.00057284,0,0,0,0
90.65,0.015035,3.6086,0.00058283,0,0,0,0
91.15,0.014947,3.6301,0.00040392,0,0,0,0
91.65,0.014539,3.6507,0.00046289,0,0,0,0
92.15,0.014477,3.672,0.00060282,0,0,0,0
92.65,0.014506,3.6913,0.00042391,0,0,0,0
93.15,0.014558,3.7113,0.00032395,0,0,0,0
93.65,0.014923,3.7299,0.00052586,0,0,0,0
94.15,0.01511,3.7501,0.00047289,0,0,0,0
94.65,0.015484,3.7699,0.00046689,0,0,0,0
95.15,0.015624,3.7901,0.00035394,0,0,0,0
95.65,0.016278,3.8084,0.00046289,0,0,0,0
96.15,0.016691,3.8277,0.00055585,0,0,0,0
96.65,0.017037,3.8477,0.0004499,0,0,0,0
97.15,0.017628,3.8691,0.00064179,0,0,0,0
97.65,0.017805,3.8889,0.00072474,0,0,0,0
98.15,0.018143,3.9091,0.00091658,0,0,0,0
98.65,0.018001,3.9274,0.00067877,0,0,0,0
99.15,0.018004,3.9459,0.0008936,0,0,0,0
99.65,0.018034,3.9643,0.00060881,0,0,0,0
100.15,0.017927,3.9859,0.00074172,0,0,0,0
100.65,0.017805,4.006,0.00074172,0,0,0,0
101.15,0.017447,4.027,0.00074172,0,0,0,0
101.65,0.017221,4.046,0.00050687,0,0,0,0
102.15,0.016959,4.0656,0.00049688,0,0,0,0
102.65,0.017198,4.0841,0.00046689,0,0,0,0
103.15,0.016986,4.1049,0.00048988,0,0,0,0
103.65,0.017288,4.1246,0.00046989,0,0,0,0
104.15,0.017519,4.1444,0.00060582,0,0,0,0
104.65,0.017911,4.1624,0.00058583,0,0,0,0
105.15,0.018268,4.1817,0.00046989,0,0,0,0
105.65,0.018781,4.2017,0.00048288,0,0,0,0
106.15,0.019198,4.2231,0.0006288,0,0,0,0
106.65,0.019656,4.2426,0.00051587,0,0,0,0
107.15,0.02009,4.2624,0.00047988,0,0,0,0
107.65,0.0204,4.2804,0.00069876,0,0,0,0
108.15,0.020655,4.2989,0.00067177,0,0,0,0
108.65,0.020836,4.3176,0.00083365,0,0,0,0
109.15,0.020966,4.3393,0.00072774,0,0,0,0
109.65,0.020978,4.3593,0.00079468,0,0,0,0
110.15,0.020715,4.38,0.00079468,0,0,0,0
110.65,0.020784,4.399,0.00056284,0,0,0,0
111.15,0.020406,4.4186,0.00052986,0,0,0,0
111.65,0.020285,4.4366,0.0006288,0,0,0,0
112.15,0.020061,4.4561,0.00069476,0,0,0,0
112.65,0.019994,4.4751,0.0006288,0,0,0,0
113.15,0.019894,4.4951,0.00042991,0,0,0,0
113.65,0.020026,4.5134,0.00046289,0,0,0,0
114.15,0.020324,4.533,0.00052986,0,0,0,0
114.65,0.020654,4.5531,0.00046289,0,0,0,0
115.15,0.020919,4.5744,0.00056284,0,0,0,0
115.65,0.021416,4.5936,0.00056284,0,0,0,0
116.15,0.022046,4.6134,0.0006288,0,0,0,0
116.65,0.022442,4.6314,0.00059582,0,0,0,0
117.15,0.022738,4.6496,0.00056284,0,0,0,0
117.65,0.023237,4.6676,0.00066178,0,0,0,0
118.15,0.023435,4.6886,0.0006288,0,0,0,0
118.65,0.023699,4.7083,0.0008936,0,0,0,0
119.15,0.023896,4.7287,0.00086063,0,0,0,0
119.65,0.023996,4.7473,0.00095954,0,0,0,0
120.15,0.023963,4.7663,0.0008936,0,0,0,0
120.65,0.023995,4.7839,0.00079468,0,0,0,0
121.15,0.023894,4.8034,0.00079468,0,0,0,0
121.65,0.023697,4.8226,0.00086063,0,0,0,0
122.15,0.023696,4.8421,0.00072774,0,0,0,0
122.65,0.023662,4.8597,0.00066178,0,0,0,0
123.15,0.023497,4.8787,0.0006288,0,0,0,0
123.65,0.023496,4.8984,0.00076071,0,0,0,0
124.15,0.02366,4.9191,0.00069476,0,0,0,0
124.65,0.024024,4.9379,0.00059582,0,0,0,0
125.15,0.024386,4.9574,0.00056284,0,0,0,0
125.65,0.024786,4.9751,0.0006288,0,0,0,0
126.15,0.025215,4.9926,0.00086063,0,0,0,0
126.65,0.025677,5.0099,0.00082766,0,0,0,0
127.15,0.025974,5.0306,0.00066178,0,0,0,0
127.65,0.026373,5.05,0.00079468,0,0,0,0
128.15,0.0268,5.07,0.00079468,0,0,0,0
128.65,0.026966,5.088,0.00099251,0,0,0,0
129.15,0.027198,5.1069,0.0010914,0,0,0,0
129.65,0.027296,5.1243,0.00086063,0,0,0,0
130.15,0.027429,5.1437,0.00095954,0,0,0,0
130.65,0.02743,5.1626,0.0011254,0,0,0,0
131.15,0.027627,5.1819,0.0011913,0,0,0,0
131.65,0.027758,5.199,0.00092657,0,0,0,0
132.15,0.027691,5.2174,0.00092657,0,0,0,0
132.65,0.027789,5.2367,0.00095954,0,0,0,0
133.15,0.027588,5.2571,0.0010255,0,0,0,0
133.65,0.027587,5.2759,0.0008936,0,0,0,0
134.15,0.027585,5.2951,0.00082766,0,0,0,0
134.65,0.027951,5.3127,0.00086063,0,0,0,0
135.15,0.02838,5.3303,0.00099251,0,0,0,0
135.65,0.028346,5.3479,0.00082766,0,0,0,0
136.15,0.028879,5.3683,0.00092657,0,0,0,0
136.65,0.029307,5.3873,0.00099251,0,0,0,0
137.15,0.029634,5.4067,0.0011254,0,0,0,0
137.65,0.030129,5.4243,0.0011254,0,0,0,0
138.15,0.030493,5.4426,0.0013231,0,0,0,0
138.65,0.030726,5.4599,0.0012243,0,0,0,0
139.15,0.030889,5.4789,0.0016207,0,0,0,0
139.65,0.031188,5.4971,0.0015218,0,0,0,0
140.15,0.031417,5.5159,0.0015877,0,0,0,0
140.65,0.031583,5.533,0.0018193,0,0,0,0
141.15,0.031616,5.5511,0.0015218,0,0,0,0
141.65,0.031879,5.5697,0.001423,0,0,0,0
142.15,0.03221,5.5894,0.0014559,0,0,0,0
142.65,0.032441,5.6079,0.001423,0,0,0,0
143.15,0.032574,5.6271,0.0013571,0,0,0,0
143.65,0.032772,5.6444,0.00139,0,0,0,0
144.15,0.033037,5.6613,0.00139,0,0,0,0
144.65,0.033234,5.6779,0.0013561,0,0,0,0
145.15,0.033532,5.6976,0.0012572,0,0,0,0
145.65,0.033929,5.7163,0.0013231,0,0,0,0
146.15,0.034194,5.7354,0.0014559,0,0,0,0
146.65,0.034591,5.7526,0.0014889,0,0,0,0
147.15,0.034889,5.7703,0.0014559,0,0,0,0
147.65,0.035353,5.7869,0.0016536,0,0,0,0
148.15,0.035453,5.8051,0.0017535,0,0,0,0
148.65,0.035683,5.8229,0.0016207,0,0,0,0
149.15,0.036148,5.8411,0.0018852,0,0,0,0
149.65,0.03651,5.8577,0.0021826,0,0,0,0
150.15,0.036611,5.8754,0.0020838,0,0,0,0
150.65,0.037109,5.894,0.0021826,0,0,0,0
151.15,0.037372,5.9139,0.0021168,0,0,0,0
151.65,0.038134,5.9319,0.0021168,0,0,0,0
152.15,0.038332,5.9501,0.0021168,0,0,0,0
152.65,0.03886,5.9667,0.001985,0,0,0,0
153.15,0.039555,5.9833,0.002018,0,0,0,0
153.65,0.040185,5.9999,0.0017535,0,0,0,0
154.15,0.040715,6.0193,0.0019182,0,0,0,0
154.65,0.041342,6.0376,0.0018523,0,0,0,0
155.15,0.042004,6.0561,0.0017864,0,0,0,0
155.65,0.042004,6.0726,0.001985,0,0,0,0
156.15,0.042567,6.0896,0.002018,0,0,0,0
156.65,0.042832,6.1056,0.0019511,0,0,0,0
157.15,0.043061,6.1237,0.0020838,0,0,0,0
157.65,0.043228,6.1413,0.0021497,0,0,0,0
158.15,0.043389,6.1591,0.0022814,0,0,0,0
158.65,0.043621,6.175,0.0025797,0,0,0,0
159.15,0.043954,6.1921,0.0026126,0,0,0,0
159.65,0.044151,6.2097,0.0029756,0,0,0,0
160.15,0.044515,6.2284,0.0030414,0,0,0,0
160.65,0.045473,6.2456,0.0028759,0,0,0,0
161.15,0.045903,6.2631,0.0031072,0,0,0,0
161.65,0.046564,6.2787,0.0028769,0,0,0,0
162.15,0.047326,6.2943,0.0029756,0,0,0,0
162.65,0.048384,6.3099,0.0029427,0,0,0,0
163.15,0.049078,6.3283,0.0026784,0,0,0,0
163.65,0.04997,6.3453,0.0027113,0,0,0,0
164.15,0.050733,6.3627,0.0026126,0,0,0,0
164.65,0.051624,6.3786,0.0027442,0,0,0,0
165.15,0.052285,6.3953,0.0026784,0,0,0,0
165.65,0.052848,6.4106,0.0027113,0,0,0,0
166.15,0.053276,6.4274,0.0030085,0,0,0,0
166.65,0.053872,6.4439,0.002844,0,0,0,0
167.15,0.054134,6.4609,0.0029098,0,0,0,0
167.65,0.054465,6.476,0.0030743,0,0,0,0
168.15,0.05486,6.4919,0.0033055,0,0,0,0
168.65,0.055156,6.508,0.003471,0,0,0,0
169.15,0.055519,6.5251,0.003735,0,0,0,0
169.65,0.055816,6.5411,0.0040319,0,0,0,0
170.15,0.056541,6.5579,0.004229,0,0,0,0
170.65,0.057136,6.573,0.0043943,0,0,0,0
171.15,0.058327,6.5877,0.0044272,0,0,0,0
171.65,0.058854,6.6021,0.0043615,0,0,0,0
172.15,0.05998,6.6193,0.0041643,0,0,0,0
172.65,0.060805,6.6356,0.0043615,0,0,0,0
173.15,0.061697,6.6521,0.0040986,0,0,0,0
173.65,0.062521,6.6669,0.0040329,0,0,0,0
174.15,0.063182,6.682,0.0040657,0,0,0,0
174.65,0.063943,6.6961,0.0040657,0,0,0,0
175.15,0.064668,6.7119,0.003999,0,0,0,0
175.65,0.06566,6.7271,0.0040657,0,0,0,0
176.15,0.066254,6.7429,0.0040329,0,0,0,0
176.65,0.066814,6.757,0.0043296,0,0,0,0
177.15,0.06764,6.7721,0.0042968,0,0,0,0
177.65,0.068269,6.788,0.0045596,0,0,0,0
178.15,0.069027,6.8049,0.0047577,0,0,0,0
178.65,0.069954,6.8199,0.0049229,0,0,0,0
179.15,0.071075,6.8349,0.0053178,0,0,0,0
179.65,0.072036,6.8486,0.0057455,0,0,0,0
180.15,0.073093,6.8627,0.0060427,0,0,0,0
180.65,0.074084,6.8769,0.0061083,0,0,0,0
181.15,0.07491,6.893,0.0062395,0,0,0,0
181.65,0.07567,6.9079,0.0063379,0,0,0,0
182.15,0.076229,6.9234,0.0065028,0,0,0,0
182.65,0.076989,6.9379,0.0063389,0,0,0,0
183.15,0.077682,6.9527,0.0062067,0,0,0,0
183.65,0.078143,6.9661,0.0061411,0,0,0,0
184.15,0.078771,6.9809,0.0058449,0,0,0,0
184.65,0.079466,6.9951,0.0059771,0,0,0,0
185.15,0.080126,7.0099,0.0057793,0,0,0,0
185.65,0.08092,7.0233,0.0058777,0,0,0,0
186.15,0.08191,7.0376,0.0058787,0,0,0,0
186.65,0.08297,7.0523,0.0059105,0,0,0,0
187.15,0.08416,7.0679,0.0061411,0,0,0,0
187.65,0.08565,7.0821,0.0061411,0,0,0,0
188.15,0.087071,7.0969,0.0066012,0,0,0,0
188.65,0.08803,7.11,0.0068644,0,0,0,0
189.15,0.089186,7.123,0.0071931,0,0,0,0
189.65,0.09051,7.1359,0.0076864,0,0,0,0
190.15,0.091469,7.151,0.0077856,0,0,0,0
190.65,0.092295,7.1651,0.0082776,0,0,0,0
191.15,0.093355,7.1796,0.0084423,0,0,0,0
191.65,0.094445,7.1924,0.0084423,0,0,0,0
192.15,0.095172,7.2057,0.0085741,0,0,0,0
192.65,0.096001,7.2184,0.0083768,0,0,0,0
193.15,0.096928,7.2326,0.0082776,0,0,0,0
193.65,0.097918,7.2464,0.0081795,0,0,0,0
194.15,0.098977,7.2609,0.0079493,0,0,0,0
194.65,0.10003,7.274,0.0078511,0,0,0,0
195.15,0.10129,7.2873,0.0076874,0,0,0,0
195.65,0.10272,7.3006,0.0076209,0,0,0,0
196.15,0.10377,7.3151,0.0075881,0,0,0,0
196.65,0.1048,7.3289,0.0078184,0,0,0,0
197.15,0.10569,7.3426,0.0080485,0,0,0,0
197.65,0.10665,7.3549,0.0079821,0,0,0,0
198.15,0.10767,7.3669,0.0083104,0,0,0,0
198.65,0.10854,7.3787,0.0086723,0,0,0,0
199.15,0.1094,7.3927,0.008935,0,0,0,0
199.65,0.11045,7.4064,0.0093937,0,0,0,0
200.15,0.11118,7.4206,0.0097879,0,0,0,0
200.65,0.11227,7.4331,0.0099513,0,0,0,0
201.15,0.11347,7.446,0.010279,0,0,0,0
201.65,0.11453,7.4581,0.010377,0,0,0,0
202.15,0.11575,7.4716,0.010541,0,0,0,0
202.65,0.11727,7.4844,0.010476,0,0,0,0
203.15,0.11859,7.4976,0.010541,0,0,0,0
203.65,0.12015,7.5093,0.010246,0,0,0,0
204.15,0.1216,7.5219,0.009984,0,0,0,0
204.65,0.12296,7.535,0.009984,0,0,0,0
205.15,0.12412,7.5491,0.0099513,0,0,0,0
205.65,0.12544,7.5619,0.0096899,0,0,0,0
206.15,0.1265,7.5749,0.0096245,0,0,0,0
206.65,0.12772,7.5863,0.0096899,0,0,0,0
207.15,0.12878,7.598,0.009887,0,0,0,0
207.65,0.13004,7.6099,0.010018,0,0,0,0
208.15,0.13096,7.6234,0.010246,0,0,0,0
208.65,0.13209,7.6357,0.010574,0,0,0,0
209.15,0.13357,7.6486,0.011066,0,0,0,0
209.65,0.13473,7.6604,0.011426,0,0,0,0
210.15,0.13628,7.6727,0.011819,0,0,0,0
210.65,0.13787,7.6841,0.012146,0,0,0,0
211.15,0.13893,7.6969,0.012342,0,0,0,0
211.65,0.14029,7.7089,0.012702,0,0,0,0
212.15,0.14197,7.7211,0.012669,0,0,0,0
212.65,0.14267,7.7326,0.012735,0,0,0,0
213.15,0.14373,7.745,0.012604,0,0,0,0
213.65,0.14476,7.7576,0.012473,0,0,0,0
214.15,0.14561,7.7706,0.012277,0,0,0,0
214.65,0.14694,7.7824,0.012277,0,0,0,0
215.15,0.1477,7.7946,0.011984,0,0,0,0
215.65,0.14882,7.8056,0.01195,0,0,0,0
216.15,0.15018,7.8164,0.011722,0,0,0,0
216.65,0.15157,7.8271,0.011885,0,0,0,0
217.15,0.15302,7.8397,0.012017,0,0,0,0
217.65,0.15441,7.852,0.01218,0,0,0,0
218.15,0.15616,7.865,0.012376,0,0,0,0
218.65,0.15805,7.8767,0.012736,0,0,0,0
219.15,0.15944,7.8881,0.013095,0,0,0,0
219.65,0.16089,7.8987,0.013618,0,0,0,0
220.15,0.16228,7.9106,0.013847,0,0,0,0
220.65,0.16361,7.9224,0.014108,0,0,0,0
221.15,0.1649,7.9346,0.014402,0,0,0,0
221.65,0.16609,7.9453,0.014663,0,0,0,0
222.15,0.16741,7.9563,0.014827,0,0,0,0
222.65,0.16877,7.9676,0.014858,0,0,0,0
223.15,0.16995,7.9801,0.014893,0,0,0,0
223.65,0.17141,7.9919,0.014665,0,0,0,0
224.15,0.17316,8.0036,0.014501,0,0,0,0
224.65,0.17465,8.0136,0.014436,0,0,0,0
225.15,0.17637,8.0237,0.014568,0,0,0,0
225.65,0.17802,8.0341,0.014112,0,0,0,0
226.15,0.17981,8.0464,0.014242,0,0,0,0
226.65,0.18113,8.058,0.014275,0,0,0,0
227.15,0.18268,8.0697,0.01434,0,0,0,0
227.65,0.18361,8.0803,0.014601,0,0,0,0
228.15,0.1848,8.0911,0.014634,0,0,0,0
228.65,0.18586,8.1014,0.015222,0,0,0,0
229.15,0.18718,8.1129,0.01545,0,0,0,0
229.65,0.1884,8.1239,0.015939,0,0,0,0
230.15,0.18989,8.1349,0.016134,0,0,0,0
230.65,0.19085,8.1446,0.016591,0,0,0,0
231.15,0.19237,8.1553,0.016916,0,0,0,0
231.65,0.19429,8.1666,0.017078,0,0,0,0
232.15,0.19604,8.1783,0.017306,0,0,0,0
232.65,0.1979,8.1887,0.017404,0,0,0,0
233.15,0.19932,8.1993,0.017273,0,0,0,0
233.65,0.20078,8.2091,0.017111,0,0,0,0
234.15,0.2024,8.2189,0.017242,0,0,0,0
234.65,0.20359,8.2287,0.017177,0,0,0,0
235.15,0.20507,8.2399,0.016916,0,0,0,0
235.65,0.20643,8.2503,0.017013,0,0,0,0
236.15,0.20765,8.261,0.017046,0,0,0,0
236.65,0.20917,8.271,0.01698,0,0,0,0
237.15,0.21066,8.2814,0.017111,0,0,0,0
237.65,0.21222,8.2911,0.017242,0,0,0,0
238.15,0.21411,8.3016,0.017436,0,0,0,0
238.65,0.21609,8.3114,0.017795,0,0,0,0
239.15,0.21811,8.3219,0.018054,0,0,0,0
239.65,0.22003,8.3316,0.018477,0,0,0,0
240.15,0.22171,8.342,0.018736,0,0,0,0
240.65,0.2234,8.3526,0.018931,0,0,0,0
241.15,0.22486,8.3636,0.019321,0,0,0,0
241.65,0.22645,8.3734,0.019548,0,0,0,0
242.15,0.22774,8.3836,0.01971,0,0,0,0
242.65,0.22926,8.3929,0.01971,0,0,0,0
243.15,0.23078,8.4021,0.019809,0,0,0,0
243.65,0.2322,8.4114,0.019743,0,0,0,0
244.15,0.23406,8.4219,0.019809,0,0,0,0
244.65,0.23554,8.4316,0.019775,0,0,0,0
245.15,0.23743,8.442,0.01971,0,0,0,0
245.65,0.23925,8.4517,0.019646,0,0,0,0
246.15,0.24137,8.4614,0.019841,0,0,0,0
246.65,0.24299,8.4704,0.019905,0,0,0,0
247.15,0.24481,8.4806,0.020003,0,0,0,0
247.65,0.24656,8.4904,0.020198,0,0,0,0
248.15,0.24785,8.5006,0.020359,0,0,0,0
248.65,0.2493,8.5099,0.020652,0,0,0,0
249.15,0.25076,8.5194,0.020782,0,0,0,0
249.65,0.25205,8.5289,0.02117,0,0,0,0
250.15,0.25327,8.5389,0.021301,0,0,0,0
250.65,0.25476,8.5484,0.021721,0,0,0,0
251.15,0.25658,8.5583,0.021915,0,0,0,0
251.65,0.25824,8.5671,0.021883,0,0,0,0
252.15,0.26009,8.5759,0.022109,0,0,0,0
252.65,0.26207,8.5844,0.022304,0,0,0,0
253.15,0.26409,8.5944,0.022303,0,0,0,0
253.65,0.26594,8.604,0.022368,0,0,0,0
254.15,0.2675,8.614,0.022498,0,0,0,0
254.65,0.26915,8.623,0.022563,0,0,0,0
255.15,0.27071,8.6324,0.022693,0,0,0,0
255.65,0.27216,8.6411,0.022627,0,0,0,0
256.15,0.27385,8.6506,0.022756,0,0,0,0
256.65,0.2757,8.6594,0.022725,0,0,0,0
257.15,0.27706,8.6689,0.023146,0,0,0,0
257.65,0.27891,8.6776,0.023113,0,0,0,0
258.15,0.28106,8.687,0.023339,0,0,0,0
258.65,0.28308,8.6966,0.023696,0,0,0,0
259.15,0.28523,8.7063,0.023727,0,0,0,0
259.65,0.28728,8.7147,0.024084,0,0,0,0
260.15,0.28927,8.7236,0.024148,0,0,0,0
260.65,0.29102,8.7319,0.024342,0,0,0,0
261.15,0.29268,8.7401,0.024471,0,0,0,0
261.65,0.29463,8.7484,0.024891,0,0,0,0
262.15,0.29608,8.7579,0.024858,0,0,0,0
262.65,0.2979,8.7666,0.025085,0,0,0,0
263.15,0.29939,8.776,0.025246,0,0,0,0
263.65,0.30121,8.785,0.025085,0,0,0,0
264.15,0.30303,8.7941,0.025181,0,0,0,0
264.65,0.30518,8.8024,0.025536,0,0,0,0
265.15,0.30726,8.8113,0.025473,0,0,0,0
265.65,0.30948,8.8194,0.025666,0,0,0,0
266.15,0.31146,8.8279,0.026085,0,0,0,0
266.65,0.31332,8.8359,0.026311,0,0,0,0
267.15,0.3152,8.8447,0.026343,0,0,0,0
267.65,0.31699,8.8536,0.026505,0,0,0,0
268.15,0.31854,8.8626,0.026795,0,0,0,0
268.65,0.32006,8.8707,0.026795,0,0,0,0
269.15,0.32185,8.8796,0.026892,0,0,0,0
269.65,0.3233,8.8879,0.027182,0,0,0,0
270.15,0.32499,8.8959,0.027376,0,0,0,0
270.65,0.32671,8.9034,0.027472,0,0,0,0
271.15,0.32869,8.9121,0.027666,0,0,0,0
271.65,0.33084,8.9209,0.027698,0,0,0,0
272.15,0.33283,8.9301,0.027923,0,0,0,0
272.65,0.33498,8.9383,0.028149,0,0,0,0
273.15,0.33696,8.9461,0.028052,0,0,0,0
273.65,0.33865,8.9534,0.028245,0,0,0,0
274.15,0.34034,8.9619,0.028502,0,0,0,0
274.65,0.34186,8.9701,0.028535,0,0,0,0
275.15,0.34358,8.9786,0.028728,0,0,0,0
275.65,0.3451,8.9861,0.029018,0,0,0,0
276.15,0.34685,8.9941,0.029178,0,0,0,0
276.65,0.34867,9.0021,0.029468,0,0,0,0
277.15,0.35079,9.0109,0.029727,0,0,0,0
277.65,0.35287,9.0191,0.029759,0,0,0,0
278.15,0.35522,9.0273,0.03008,0,0,0,0
278.65,0.35744,9.0341,0.030176,0,0,0,0
279.15,0.35949,9.0411,0.030337,0,0,0,0
279.65,0.36157,9.0484,0.030561,0,0,0,0
280.15,0.36346,9.0574,0.030689,0,0,0,0
280.65,0.36512,9.066,0.030657,0,0,0,0
281.15,0.3674,9.0747,0.030978,0,0,0,0
281.65,0.36935,9.0823,0.031171,0,0,0,0
282.15,0.37147,9.0899,0.031203,0,0,0,0
282.65,0.3723,9.0967,0.031363,0,0,0,0
283.15,0.37451,9.1046,0.031525,0,0,0,0
283.65,0.37709,9.1124,0.031621,0,0,0,0
284.15,0.37928,9.1203,0.031781,0,0,0,0
284.65,0.38139,9.1271,0.032134,0,0,0,0
285.15,0.38394,9.1347,0.032166,0,0,0,0
285.65,0.38602,9.1426,0.032615,0,0,0,0
286.15,0.38817,9.1509,0.032488,0,0,0,0
286.65,0.38956,9.1581,0.032872,0,0,0,0
287.15,0.39148,9.1659,0.033128,0,0,0,0
287.65,0.3936,9.1729,0.033321,0,0,0,0
288.15,0.39591,9.1801,0.033353,0,0,0,0
288.65,0.39658,9.1871,0.033578,0,0,0,0
289.15,0.39966,9.1951,0.033769,0,0,0,0
289.65,0.40128,9.2026,0.033928,0,0,0,0
290.15,0.40436,9.2104,0.034344,0,0,0,0
290.65,0.4065,9.2179,0.034344,0,0,0,0
291.15,0.40869,9.2256,0.034319,0,0,0,0
291.65,0.41081,9.2327,0.034769,0,0,0,0
292.15,0.4119,9.2403,0.034862,0,0,0,0
292.65,0.41491,9.2471,0.035023,0,0,0,0
293.15,0.41673,9.2541,0.035055,0,0,0,0
293.65,0.41796,9.2609,0.035535,0,0,0,0
294.15,0.41991,9.2684,0.03544,0,0,0,0
294.65,0.42206,9.2759,0.035727,0,0,0,0
295.15,0.42335,9.2836,0.03595,0,0,0,0
295.65,0.42573,9.2904,0.036174,0,0,0,0
296.15,0.42931,9.2979,0.036398,0,0,0,0
296.65,0.43023,9.3046,0.036492,0,0,0,0
297.15,0.43321,9.3111,0.036685,0,0,0,0
297.65,0.43517,9.3174,0.036813,0,0,0,0
298.15,0.43682,9.3249,0.036939,0,0,0,0
298.65,0.43884,9.3319,0.037386,0,0,0,0
299.15,0.44122,9.3394,0.037578,0,0,0,0
299.65,0.44158,9.3466,0.037579,0,0,0,0
300.15,0.4442,9.3536,0.038088,0,0,0,0
300.65,0.44562,9.3597,0.038184,0,0,0,0
301.15,0.44718,9.3666,0.038371,0,0,0,0
301.65,0.44979,9.3737,0.038501,0,0,0,0
302.15,0.45211,9.381,0.038821,0,0,0,0
302.65,0.45538,9.3871,0.039011,0,0,0,0
303.15,0.45767,9.3934,0.039167,0,0,0,0
303.65,0.45889,9.4001,0.03923,0,0,0,0
304.15,0.46157,9.4076,0.039708,0,0,0,0
304.65,0.46435,9.4144,0.03974,0,0,0,0
305.15,0.46621,9.4213,0.039899,0,0,0,0
305.65,0.46813,9.4274,0.039962,0,0,0,0
306.15,0.47011,9.4336,0.040121,0,0,0,0
306.65,0.47233,9.44,0.040376,0,0,0,0
307.15,0.47464,9.4473,0.04044,0,0,0,0
307.65,0.47653,9.4541,0.040725,0,0,0,0
308.15,0.47911,9.4609,0.041042,0,0,0,0
308.65,0.48162,9.4669,0.041362,0,0,0,0
309.15,0.48424,9.4731,0.041584,0,0,0,0
309.65,0.48655,9.4794,0.041743,0,0,0,0
310.15,0.489,9.4863,0.042059,0,0,0,0
310.65,0.49119,9.4924,0.04222,0,0,0,0
311.15,0.49307,9.4986,0.042505,0,0,0,0
311.65,0.49469,9.5044,0.042789,0,0,0,0
312.15,0.49698,9.5111,0.043076,0,0,0,0
312.65,0.49906,9.5179,0.043297,0,0,0,0
313.15,0.50121,9.5246,0.043361,0,0,0,0
313.65,0.50343,9.5304,0.04374,0,0,0,0
314.15,0.50624,9.5366,0.043772,0,0,0,0
314.65,0.50902,9.5424,0.043803,0,0,0,0
315.15,0.51084,9.5486,0.043963,0,0,0,0
315.65,0.51345,9.5547,0.04412,0,0,0,0
316.15,0.51567,9.5616,0.044374,0,0,0,0
316.65,0.51782,9.5679,0.044533,0,0,0,0
317.15,0.51983,9.5744,0.044817,0,0,0,0
317.65,0.52189,9.5806,0.045101,0,0,0,0
318.15,0.52394,9.5866,0.045197,0,0,0,0
318.65,0.52606,9.5917,0.045515,0,0,0,0
319.15,0.52811,9.5976,0.045704,0,0,0,0
319.65,0.53022,9.6034,0.046083,0,0,0,0
320.15,0.53271,9.6096,0.0464,0,0,0,0
320.65,0.53538,9.6151,0.046685,0,0,0,0
321.15,0.5376,9.6211,0.047127,0,0,0,0
321.65,0.54022,9.6274,0.047094,0,0,0,0
322.15,0.5422,9.634,0.047316,0,0,0,0
322.65,0.54409,9.64,0.047474,0,0,0,0
323.15,0.54607,9.6463,0.047695,0,0,0,0
323.65,0.54832,9.6519,0.047632,0,0,0,0
324.15,0.55034,9.6571,0.047947,0,0,0,0
324.65,0.55242,9.6624,0.048264,0,0,0,0
325.15,0.55464,9.6689,0.048388,0,0,0,0
325.65,0.55696,9.6749,0.048484,0,0,0,0
326.15,0.55967,9.6811,0.048799,0,0,0,0
326.65,0.56215,9.6869,0.049021,0,0,0,0
327.15,0.5643,9.6926,0.04924,0,0,0,0
327.65,0.56669,9.6977,0.049367,0,0,0,0
328.15,0.569,9.7036,0.049747,0,0,0,0
328.65,0.57105,9.7097,0.05025,0,0,0,0
329.15,0.57317,9.716,0.050533,0,0,0,0
329.65,0.57535,9.7214,0.050848,0,0,0,0
330.15,0.57767,9.7269,0.051163,0,0,0,0
330.65,0.57969,9.7324,0.051259,0,0,0,0
331.15,0.5823,9.7386,0.051446,0,0,0,0
331.65,0.58472,9.7441,0.051855,0,0,0,0
332.15,0.58704,9.7499,0.052138,0,0,0,0
332.65,0.58981,9.7549,0.052232,0,0,0,0
333.15,0.59306,9.7601,0.052364,0,0,0,0
333.65,0.59551,9.7654,0.052611,0,0,0,0
334.15,0.59783,9.7719,0.052768,0,0,0,0
334.65,0.59994,9.7776,0.052956,0,0,0,0
335.15,0.60179,9.7834,0.053238,0,0,0,0
335.65,0.60405,9.7886,0.053426,0,0,0,0
336.15,0.60613,9.7941,0.05355,0,0,0,0
336.65,0.60841,9.7994,0.053864,0,0,0,0
337.15,0.61089,9.805,0.054116,0,0,0,0
337.65,0.61347,9.81,0.054336,0,0,0,0
338.15,0.61616,9.8153,0.054743,0,0,0,0
338.65,0.61913,9.8204,0.055088,0,0,0,0
339.15,0.62178,9.8259,0.055558,0,0,0,0
339.65,0.62426,9.8311,0.055748,0,0,0,0
340.15,0.62648,9.8369,0.05603,0,0,0,0
340.65,0.62876,9.8419,0.056216,0,0,0,0
341.15,0.63071,9.8471,0.056404,0,0,0,0
341.65,0.63243,9.8521,0.056624,0,0,0,0
342.15,0.63598,9.8579,0.056936,0,0,0,0
342.65,0.63803,9.8629,0.05703,0,0,0,0
343.15,0.64054,9.8681,0.057217,0,0,0,0
343.65,0.64322,9.8729,0.057592,0,0,0,0
344.15,0.64627,9.8779,0.057561,0,0,0,0
344.65,0.64901,9.8827,0.057811,0,0,0,0
345.15,0.6515,9.888,0.058124,0,0,0,0
345.65,0.65381,9.8927,0.058498,0,0,0,0
346.15,0.65626,9.8976,0.058718,0,0,0,0
346.65,0.65865,9.9024,0.059091,0,0,0,0
347.15,0.66086,9.9079,0.059466,0,0,0,0
347.65,0.66311,9.9131,0.059654,0,0,0,0
348.15,0.66533,9.9183,0.060091,0,0,0,0
348.65,0.66781,9.9227,0.060371,0,0,0,0
349.15,0.67069,9.9276,0.060776,0,0,0,0
349.65,0.67357,9.9321,0.061057,0,0,0,0
350.15,0.67628,9.9371,0.061245,0,0,0,0
350.65,0.67903,9.9421,0.061462,0,0,0,0
351.15,0.68158,9.9473,0.06168,0,0,0,0
351.65,0.68399,9.952,0.061773,0,0,0,0
352.15,0.68621,9.957,0.061991,0,0,0,0
352.65,0.68849,9.9617,0.06221,0,0,0,0
353.15,0.69058,9.966,0.062459,0,0,0,0
353.65,0.69286,9.97,0.062739,0,0,0,0
354.15,0.69521,9.9749,0.062926,0,0,0,0
354.65,0.69816,9.9799,0.063298,0,0,0,0
355.15,0.70133,9.9851,0.063578,0,0,0,0
355.65,0.70338,9.9899,0.063702,0,0,0,0
356.15,0.7061,9.9946,0.064323,0,0,0,0
356.65,0.70944,9.9987,0.064573,0,0,0,0
357.15,0.71133,10.003,0.064697,0,0,0,0
357.65,0.71381,10.008,0.06507,0,0,0,0
358.15,0.71603,10.013,0.06541,0,0,0,0
358.65,0.71831,10.017,0.065814,0,0,0,0
359.15,0.72056,10.021,0.066063,0,0,0,0
359.65,0.72314,10.025,0.066372,0,0,0,0
360.15,0.72566,10.031,0.066496,0,0,0,0
360.65,0.72821,10.035,0.066899,0,0,0,0
361.15,0.73112,10.04,0.067054,0,0,0,0
361.65,0.7337,10.044,0.067395,0,0,0,0
362.15,0.73658,10.048,0.067549,0,0,0,0
362.65,0.73866,10.052,0.067735,0,0,0,0
363.15,0.74144,10.057,0.067952,0,0,0,0
363.65,0.74386,10.061,0.068231,0,0,0,0
364.15,0.74601,10.066,0.068569,0,0,0,0
364.65,0.74819,10.069,0.068973,0,0,0,0
365.15,0.75067,10.074,0.069222,0,0,0,0
365.65,0.75312,10.078,0.069561,0,0,0,0
366.15,0.75574,10.083,0.0699,0,0,0,0
366.65,0.75862,10.087,0.070209,0,0,0,0
367.15,0.76166,10.092,0.070455,0,0,0,0
367.65,0.76434,10.095,0.070674,0,0,0,0
368.15,0.76709,10.1,0.071135,0,0,0,0
368.65,0.76944,10.104,0.071443,0,0,0,0
369.15,0.77192,10.109,0.071566,0,0,0,0
369.65,0.77368,10.113,0.071997,0,0,0,0
370.15,0.77662,10.117,0.072397,0,0,0,0
370.65,0.779,10.12,0.072552,0,0,0,0
371.15,0.78172,10.124,0.073077,0,0,0,0
371.65,0.78403,10.128,0.073414,0,0,0,0
372.15,0.78714,10.133,0.073723,0,0,0,0
372.65,0.79012,10.137,0.074061,0,0,0,0
373.15,0.79287,10.141,0.074277,0,0,0,0
373.65,0.79592,10.144,0.074585,0,0,0,0
374.15,0.79836,10.149,0.074739,0,0,0,0
374.65,0.80061,10.152,0.0752,0,0,0,0
375.15,0.80303,10.157,0.075385,0,0,0,0
375.65,0.80551,10.16,0.075874,0,0,0,0
376.15,0.80789,10.165,0.076183,0,0,0,0
376.65,0.81068,10.168,0.07649,0,0,0,0
377.15,0.81345,10.173,0.076642,0,0,0,0
377.65,0.81637,10.176,0.07698,0,0,0,0
378.15,0.81868,10.18,0.077318,0,0,0,0
378.65,0.82305,10.184,0.077626,0,0,0,0
379.15,0.8255,10.188,0.0779,0,0,0,0
379.65,0.82812,10.191,0.078299,0,0,0,0
380.15,0.83037,10.195,0.078667,0,0,0,0
380.65,0.83272,10.198,0.079064,0,0,0,0
381.15,0.83513,10.202,0.0794,0,0,0,0
381.65,0.83741,10.206,0.079738,0,0,0,0
382.15,0.8403,10.21,0.080074,0,0,0,0
382.65,0.84284,10.213,0.080564,0,0,0,0
383.15,0.84609,10.217,0.08099,0,0,0,0
383.65,0.84896,10.22,0.081174,0,0,0,0
384.15,0.85188,10.224,0.081509,0,0,0,0
384.65,0.85499,10.227,0.081906,0,0,0,0
385.15,0.85724,10.232,0.082302,0,0,0,0
385.65,0.86025,10.235,0.082728,0,0,0,0
386.15,0.86243,10.239,0.082938,0,0,0,0
386.65,0.86501,10.242,0.083365,0,0,0,0
387.15,0.86733,10.245,0.083436,0,0,0,0
387.65,0.86918,10.249,0.08377,0,0,0,0
388.15,0.87146,10.252,0.084229,0,0,0,0
388.65,0.87653,10.255,0.084501,0,0,0,0
389.15,0.87954,10.259,0.084925,0,0,0,0
389.65,0.88192,10.262,0.085322,0,0,0,0
390.15,0.88528,10.266,0.085804,0,0,0,0
390.65,0.88773,10.269,0.086045,0,0,0,0
391.15,0.88976,10.272,0.086357,0,0,0,0
391.65,0.89255,10.275,0.086684,0,0,0,0
392.15,0.89509,10.279,0.087054,0,0,0,0
392.65,0.89864,10.282,0.087388,0,0,0,0
393.15,0.90068,10.285,0.087783,0,0,0,0
393.65,0.90386,10.288,0.088209,0,0,0,0
394.15,0.90594,10.292,0.088451,0,0,0,0
394.65,0.91006,10.295,0.088873,0,0,0,0
395.15,0.9131,10.298,0.089506,0,0,0,0
395.64,0.91531,10.301,0.089449,0,0,0,0
396.15,0.91793,10.304,0.089932,0,0,0,0
396.65,0.92088,10.307,0.090507,0,0,0,0
397.15,0.92333,10.311,0.090689,0,0,0,0
397.65,0.92548,10.313,0.091202,0,0,0,0
398.15,0.92836,10.317,0.091475,0,0,0,0
398.65,0.9312,10.32,0.091747,0,0,0,0
399.15,0.93385,10.323,0.092232,0,0,0,0
399.65,0.93732,10.326,0.092716,0,0,0,0
400.15,0.9406,10.329,0.093079,0,0,0,0
400.65,0.94338,10.332,0.093379,0,0,0,0
401.15,0.94596,10.336,0.093742,0,0,0,0
401.64,0.94903,10.338,0.094284,0,0,0,0
402.15,0.9508,10.341,0.094554,0,0,0,0
402.65,0.95298,10.344,0.094826,0,0,0,0
403.15,0.9558,10.347,0.095337,0,0,0,0
403.65,0.95922,10.35,0.095637,0,0,0,0
404.15,0.96201,10.353,0.096271,0,0,0,0
404.65,0.96509,10.356,0.096659,0,0,0,0
405.15,0.96833,10.358,0.097081,0,0,0,0
405.64,0.97095,10.361,0.097653,0,0,0,0
406.15,0.97433,10.363,0.097803,0,0,0,0
406.65,0.9775,10.366,0.098283,0,0,0,0
407.15,0.97979,10.369,0.098822,0,0,0,0
407.65,0.98253,10.372,0.099151,0,0,0,0
408.15,0.98465,10.374,0.09954,0,0,0,0
408.65,0.98753,10.377,0.099872,0,0,0,0
409.15,0.99018,10.38,0.10032,0,0,0,0
409.64,0.99319,10.383,0.10068,0,0,0,0
410.15,0.99643,10.386,0.10131,0,0,0,0
410.65,0.99954,10.388,0.10161,0,0,0,0
411.15,1.0026,10.39,0.10206,0,0,0,0
411.65,1.0061,10.393,0.10236,0,0,0,0
412.15,1.0085,10.396,0.1029,0,0,0,0
412.64,1.0115,10.398,0.10361,0,0,0,0
413.14,1.0135,10.401,0.104,0,0,0,0
413.64,1.0163,10.403,0.10436,0,0,0,0
414.15,1.0188,10.405,0.10478,0,0,0,0
414.65,1.0221,10.408,0.10517,0,0,0,0
415.14,1.025,10.411,0.10567,0,0,0,0
415.65,1.0279,10.413,0.10615,0,0,0,0
416.15,1.0309,10.415,0.10669,0,0,0,0
416.64,1.034,10.417,0.10719,0,0,0,0
417.15,1.0368,10.42,0.10746,0,0,0,0
417.64,1.0401,10.422,0.10776,0,0,0,0
418.14,1.0424,10.425,0.10841,0,0,0,0
418.65,1.0454,10.427,0.10898,0,0,0,0
419.15,1.0482,10.429,0.1093,0,0,0,0
419.64,1.0511,10.431,0.10989,0,0,0,0
420.14,1.0542,10.434,0.11031,0,0,0,0
420.65,1.0571,10.436,0.11069,0,0,0,0
421.15,1.0601,10.439,0.11129,0,0,0,0
421.64,1.0635,10.44,0.11182,0,0,0,0
422.15,1.0664,10.443,0.11244,0,0,0,0
422.64,1.0693,10.445,0.11268,0,0,0,0
423.15,1.072,10.447,0.11327,0,0,0,0
423.64,1.0751,10.449,0.1138,0,0,0,0
424.14,1.0772,10.451,0.11419,0,0,0,0
424.64,1.0803,10.453,0.11448,0,0,0,0
425.15,1.083,10.455,0.11513,0,0,0,0
425.64,1.0862,10.456,0.11543,0,0,0,0
426.14,1.0893,10.458,0.11599,0,0,0,0
426.64,1.0931,10.46,0.11652,0,0,0,0
427.14,1.096,10.462,0.11696,0,0,0,0
427.64,1.0989,10.464,0.11746,0,0,0,0
428.15,1.1016,10.466,0.11814,0,0,0,0
428.64,1.1046,10.468,0.11861,0,0,0,0
429.15,1.1069,10.469,0.11896,0,0,0,0
429.64,1.11,10.471,0.1196,0,0,0,0
430.15,1.1131,10.473,0.12019,0,0,0,0
430.64,1.116,10.475,0.12069,0,0,0,0
431.14,1.119,10.476,0.12113,0,0,0,0
431.64,1.1222,10.478,0.12169,0,0,0,0
432.15,1.1256,10.48,0.12213,0,0,0,0
432.64,1.1286,10.482,0.12257,0,0,0,0
433.14,1.1317,10.484,0.1231,0,0,0,0
433.64,1.1343,10.485,0.12351,0,0,0,0
434.15,1.1373,10.487,0.12409,0,0,0,0
434.64,1.1397,10.489,0.12459,0,0,0,0
435.14,1.1425,10.49,0.12517,0,0,0,0
435.64,1.1456,10.492,0.12555,0,0,0,0
436.14,1.1487,10.494,0.12622,0,0,0,0
436.64,1.1518,10.495,0.12655,0,0,0,0
437.14,1.1555,10.497,0.12733,0,0,0,0
437.64,1.1586,10.498,0.12783,0,0,0,0
438.14,1.1621,10.499,0.12838,0,0,0,0
438.64,1.1652,10.501,0.1289,0,0,0,0
439.15,1.1675,10.502,0.1296,0,0,0,0
439.64,1.1703,10.503,0.13016,0,0,0,0
440.14,1.1727,10.505,0.13065,0,0,0,0
440.64,1.1758,10.506,0.1312,0,0,0,0
441.15,1.1792,10.508,0.13181,0,0,0,0
441.64,1.182,10.509,0.13239,0,0,0,0
442.15,1.1853,10.51,0.13283,0,0,0,0
442.64,1.1888,10.511,0.13347,0,0,0,0
443.15,1.1919,10.513,0.13407,0,0,0,0
443.64,1.195,10.514,0.13477,0,0,0,0
444.15,1.1981,10.515,0.13532,0,0,0,0
444.64,1.2009,10.517,0.1359,0,0,0,0
445.14,1.2038,10.518,0.13644,0,0,0,0
445.64,1.2066,10.519,0.13702,0,0,0,0
446.15,1.2093,10.52,0.13777,0,0,0,0
446.65,1.2126,10.521,0.13815,0,0,0,0
447.15,1.216,10.522,0.13884,0,0,0,0
447.64,1.2195,10.523,0.13953,0,0,0,0
448.14,1.2228,10.524,0.14011,0,0,0,0
448.64,1.2259,10.525,0.14066,0,0,0,0
449.14,1.229,10.526,0.14137,0,0,0,0
449.64,1.2317,10.527,0.14201,0,0,0,0
450.15,1.2346,10.527,0.14238,0,0,0,0
450.64,1.2375,10.528,0.14327,0,0,0,0
451.14,1.2406,10.529,0.14402,0,0,0,0
451.64,1.2435,10.531,0.14459,0,0,0,0
452.14,1.2471,10.532,0.14522,0,0,0,0
452.64,1.25,10.533,0.14576,0,0,0,0
453.14,1.2538,10.533,0.14659,0,0,0,0
453.64,1.2573,10.534,0.14711,0,0,0,0
454.14,1.2603,10.535,0.14785,0,0,0,0
454.64,1.2631,10.535,0.14854,0,0,0,0
455.14,1.2662,10.536,0.14911,0,0,0,0
455.64,1.2691,10.536,0.14974,0,0,0,0
456.14,1.2717,10.537,0.15053,0,0,0,0
456.64,1.2754,10.538,0.15122,0,0,0,0
457.14,1.2785,10.538,0.15179,0,0,0,0
457.64,1.2817,10.539,0.15258,0,0,0,0
458.14,1.2852,10.539,0.15335,0,0,0,0
458.64,1.2886,10.54,0.15409,0,0,0,0
459.14,1.2922,10.54,0.15483,0,0,0,0
459.64,1.2951,10.541,0.15522,0,0,0,0
460.14,1.2978,10.541,0.15622,0,0,0,0
460.64,1.3007,10.541,0.15695,0,0,0,0
461.14,1.3037,10.541,0.15743,0,0,0,0
461.64,1.3069,10.542,0.1582,0,0,0,0
462.14,1.31,10.542,0.15882,0,0,0,0
462.64,1.3134,10.543,0.1595,0,0,0,0
463.14,1.3174,10.543,0.16015,0,0,0,0
463.64,1.3207,10.543,0.16079,0,0,0,0
464.14,1.3238,10.543,0.16158,0,0,0,0
464.64,1.3271,10.543,0.16232,0,0,0,0
465.14,1.33,10.543,0.16308,0,0,0,0
465.64,1.3331,10.544,0.16378,0,0,0,0
466.14,1.3359,10.544,0.16454,0,0,0,0
466.64,1.3388,10.543,0.16521,0,0,0,0
467.14,1.342,10.543,0.16608,0,0,0,0
467.64,1.3455,10.543,0.16684,0,0,0,0
468.14,1.3495,10.543,0.16754,0,0,0,0
468.64,1.3526,10.543,0.1684,0,0,0,0
469.14,1.3561,10.543,0.16933,0,0,0,0
469.64,1.3596,10.543,0.16991,0,0,0,0
470.14,1.362,10.543,0.1707,0,0,0,0
470.64,1.3653,10.543,0.17159,0,0,0,0
471.14,1.3684,10.543,0.17229,0,0,0,0
471.64,1.3716,10.543,0.17323,0,0,0,0
472.14,1.3747,10.542,0.17387,0,0,0,0
472.64,1.3781,10.542,0.17479,0,0,0,0
473.14,1.3818,10.542,0.17563,0,0,0,0
473.64,1.3854,10.541,0.17637,0,0,0,0
474.14,1.3887,10.541,0.17737,0,0,0,0
474.64,1.3921,10.54,0.17832,0,0,0,0
475.14,1.3951,10.54,0.17892,0,0,0,0
475.64,1.3982,10.54,0.17989,0,0,0,0
476.14,1.401,10.539,0.18092,0,0,0,0
476.64,1.4043,10.538,0.18155,0,0,0,0
477.14,1.4074,10.537,0.18241,0,0,0,0
477.64,1.411,10.537,0.18338,0,0,0,0
478.14,1.4146,10.536,0.18417,0,0,0,0
478.64,1.4185,10.536,0.18508,0,0,0,0
479.14,1.4219,10.535,0.18588,0,0,0,0
479.64,1.425,10.535,0.1867,0,0,0,0
480.14,1.4281,10.534,0.18758,0,0,0,0
480.64,1.4314,10.533,0.18865,0,0,0,0
481.14,1.4343,10.532,0.18958,0,0,0,0
481.64,1.4376,10.531,0.19032,0,0,0,0
482.14,1.4409,10.53,0.19128,0,0,0,0
482.64,1.4445,10.529,0.19207,0,0,0,0
483.14,1.4481,10.528,0.19314,0,0,0,0
483.64,1.4517,10.527,0.19409,0,0,0,0
484.14,1.4552,10.526,0.19499,0,0,0,0
484.64,1.4584,10.525,0.19592,0,0,0,0
485.14,1.4616,10.524,0.19671,0,0,0,0
485.64,1.4645,10.522,0.1979,0,0,0,0
486.14,1.4677,10.521,0.19883,0,0,0,0
486.64,1.471,10.52,0.19967,0,0,0,0
487.14,1.4745,10.519,0.20075,0,0,0,0
487.64,1.4781,10.518,0.2017,0,0,0,0
488.14,1.4817,10.516,0.20235,0,0,0,0
488.64,1.4855,10.515,0.20343,0,0,0,0
489.14,1.489,10.513,0.20459,0,0,0,0
489.64,1.4923,10.511,0.20529,0,0,0,0
490.14,1.4954,10.51,0.2064,0,0,0,0
490.64,1.4986,10.508,0.20745,0,0,0,0
491.14,1.5016,10.506,0.20836,0,0,0,0
491.64,1.5049,10.505,0.2093,0,0,0,0
492.14,1.5084,10.503,0.21038,0,0,0,0
492.64,1.5121,10.502,0.21142,0,0,0,0
493.14,1.5157,10.5,0.21247,0,0,0,0
493.64,1.5195,10.498,0.21348,0,0,0,0
494.14,1.5228,10.496,0.21469,0,0,0,0
494.64,1.5262,10.494,0.21568,0,0,0,0
495.14,1.5294,10.493,0.21666,0,0,0,0
495.64,1.5325,10.491,0.21797,0,0,0,0
496.14,1.5356,10.489,0.21914,0,0,0,0
496.64,1.5388,10.486,0.22018,0,0,0,0
497.14,1.5426,10.484,0.22126,0,0,0,0
497.64,1.546,10.482,0.2223,0,0,0,0
498.14,1.55,10.48,0.22354,0,0,0,0
498.64,1.5538,10.477,0.22452,0,0,0,0
499.14,1.5572,10.475,0.22566,0,0,0,0
499.64,1.5605,10.472,0.22677,0,0,0,0
500.14,1.5635,10.47,0.22772,0,0,0,0
500.64,1.5667,10.468,0.2289,0,0,0,0
501.14,1.57,10.466,0.22996,0,0,0,0
501.64,1.5731,10.463,0.23101,0,0,0,0
502.14,1.5767,10.461,0.23209,0,0,0,0
502.64,1.5807,10.458,0.23314,0,0,0,0
503.14,1.5842,10.456,0.23434,0,0,0,0
503.64,1.5883,10.453,0.23547,0,0,0,0
504.14,1.5916,10.45,0.23667,0,0,0,0
504.64,1.5947,10.448,0.23787,0,0,0,0
505.14,1.5978,10.445,0.23899,0,0,0,0
505.64,1.6009,10.442,0.23998,0,0,0,0
506.14,1.6042,10.44,0.2416,0,0,0,0
506.64,1.6079,10.437,0.24266,0,0,0,0
507.14,1.6114,10.433,0.24383,0,0,0,0
507.64,1.615,10.43,0.24502,0,0,0,0
508.14,1.6189,10.426,0.24632,0,0,0,0
508.64,1.6228,10.424,0.24759,0,0,0,0
509.14,1.6261,10.421,0.24841,0,0,0,0
509.64,1.6291,10.418,0.2497,0,0,0,0
510.14,1.6324,10.415,0.25097,0,0,0,0
510.64,1.6355,10.411,0.25205,0,0,0,0
511.14,1.6388,10.408,0.25346,0,0,0,0
511.64,1.6423,10.405,0.25449,0,0,0,0
512.14,1.6461,10.402,0.2558,0,0,0,0
512.64,1.6501,10.399,0.25703,0,0,0,0
513.14,1.6538,10.395,0.25821,0,0,0,0
513.64,1.6577,10.391,0.25964,0,0,0,0
514.14,1.6613,10.388,0.26089,0,0,0,0
514.64,1.6644,10.384,0.26239,0,0,0,0
515.14,1.6675,10.381,0.26377,0,0,0,0
515.64,1.6708,10.377,0.26504,0,0,0,0
516.14,1.6743,10.373,0.26651,0,0,0,0
516.64,1.6778,10.369,0.26778,0,0,0,0
517.14,1.6816,10.364,0.26925,0,0,0,0
517.64,1.6853,10.361,0.27036,0,0,0,0
518.14,1.6892,10.356,0.27182,0,0,0,0
518.64,1.693,10.353,0.27309,0,0,0,0
519.14,1.6963,10.348,0.27432,0,0,0,0
519.64,1.6996,10.344,0.27568,0,0,0,0
520.14,1.7027,10.34,0.27698,0,0,0,0
520.64,1.7062,10.336,0.27836,0,0,0,0
521.14,1.7095,10.332,0.27974,0,0,0,0
521.64,1.7134,10.328,0.28124,0,0,0,0
522.14,1.7173,10.323,0.28259,0,0,0,0
522.64,1.7214,10.318,0.28416,0,0,0,0
523.14,1.7249,10.313,0.28553,0,0,0,0
523.64,1.7286,10.309,0.28688,0,0,0,0
524.14,1.732,10.304,0.28832,0,0,0,0
524.64,1.7354,10.3,0.28975,0,0,0,0
525.14,1.7387,10.295,0.29112,0,0,0,0
525.64,1.7422,10.29,0.29258,0,0,0,0
526.14,1.7457,10.285,0.29393,0,0,0,0
526.64,1.7495,10.279,0.29561,0,0,0,0
527.14,1.7535,10.274,0.29706,0,0,0,0
527.64,1.7573,10.27,0.29832,0,0,0,0
528.14,1.7615,10.265,0.29974,0,0,0,0
528.64,1.7647,10.259,0.30114,0,0,0,0
529.14,1.768,10.254,0.30263,0,0,0,0
529.64,1.7713,10.249,0.3042,0,0,0,0
530.14,1.7748,10.243,0.30576,0,0,0,0
530.64,1.7785,10.238,0.30703,0,0,0,0
531.14,1.7824,10.231,0.30868,0,0,0,0
531.64,1.7864,10.226,0.31012,0,0,0,0
532.14,1.7905,10.22,0.31199,0,0,0,0
532.64,1.7942,10.215,0.31356,0,0,0,0
533.14,1.798,10.209,0.31513,0,0,0,0
533.64,1.8015,10.203,0.31704,0,0,0,0
534.14,1.8048,10.196,0.3186,0,0,0,0
534.64,1.8082,10.19,0.32031,0,0,0,0
535.14,1.8118,10.184,0.32213,0,0,0,0
535.64,1.8156,10.177,0.32383,0,0,0,0
536.14,1.8194,10.171,0.3252,0,0,0,0
536.64,1.8236,10.165,0.32647,0,0,0,0
537.14,1.8274,10.158,0.32816,0,0,0,0
537.64,1.8312,10.152,0.32959,0,0,0,0
538.14,1.8349,10.145,0.33121,0,0,0,0
538.64,1.8385,10.14,0.33268,0,0,0,0
539.14,1.8421,10.133,0.33442,0,0,0,0
539.64,1.8456,10.125,0.33595,0,0,0,0
540.14,1.8492,10.117,0.33778,0,0,0,0
540.64,1.8533,10.111,0.33957,0,0,0,0
541.14,1.8574,10.103,0.34105,0,0,0,0
541.64,1.8614,10.096,0.34282,0,0,0,0
542.14,1.8652,10.089,0.34456,0,0,0,0
542.64,1.869,10.082,0.34627,0,0,0,0
543.14,1.8724,10.073,0.34807,0,0,0,0
543.64,1.876,10.065,0.34961,0,0,0,0
544.14,1.8794,10.058,0.35124,0,0,0,0
544.64,1.8827,10.05,0.35287,0,0,0,0
545.14,1.8861,10.042,0.35434,0,0,0,0
545.64,1.8906,10.035,0.35624,0,0,0,0
546.14,1.8954,10.026,0.35775,0,0,0,0
546.64,1.8989,10.018,0.35944,0,0,0,0
547.14,1.9032,10.009,0.36129,0,0,0,0
547.64,1.9068,10.001,0.36295,0,0,0,0
548.14,1.9101,9.993,0.36465,0,0,0,0
548.64,1.9138,9.9841,0.36633,0,0,0,0
549.14,1.9175,9.9747,0.36816,0,0,0,0
549.64,1.921,9.9663,0.36992,0,0,0,0
550.14,1.9253,9.9571,0.37175,0,0,0,0
550.64,1.9296,9.9484,0.37312,0,0,0,0
551.14,1.9336,9.939,0.37492,0,0,0,0
551.64,1.9372,9.9294,0.37653,0,0,0,0
552.14,1.9411,9.9191,0.37839,0,0,0,0
552.64,1.9447,9.9101,0.38007,0,0,0,0
553.14,1.9483,9.9003,0.3817,0,0,0,0
553.64,1.9519,9.891,0.38355,0,0,0,0
554.14,1.9556,9.8816,0.38529,0,0,0,0
554.64,1.9596,9.8726,0.38695,0,0,0,0
555.14,1.9638,9.8616,0.38891,0,0,0,0
555.64,1.9681,9.851,0.39093,0,0,0,0
556.14,1.9723,9.8406,0.39276,0,0,0,0
556.64,1.9758,9.8314,0.3943,0,0,0,0
557.14,1.9799,9.821,0.39635,0,0,0,0
557.64,1.9835,9.8101,0.39822,0,0,0,0
558.14,1.987,9.7981,0.4002,0,0,0,0
558.64,1.9911,9.7869,0.40199,0,0,0,0
559.14,1.9951,9.7749,0.40394,0,0,0,0
559.64,1.9993,9.764,0.40597,0,0,0,0
560.14,2.0037,9.753,0.40778,0,0,0,0
560.64,2.0078,9.7419,0.40969,0,0,0,0
561.14,2.0121,9.7286,0.41156,0,0,0,0
561.64,2.0155,9.7163,0.41351,0,0,0,0
562.14,2.0192,9.7034,0.4155,0,0,0,0
562.64,2.0228,9.6916,0.41755,0,0,0,0
563.14,2.0268,9.679,0.41986,0,0,0,0
563.64,2.0309,9.6669,0.4221,0,0,0,0
564.14,2.0351,9.6531,0.42418,0,0,0,0
564.64,2.0398,9.6399,0.42613,0,0,0,0
565.14,2.044,9.6261,0.42814,0,0,0,0
565.64,2.0481,9.6134,0.43005,0,0,0,0
566.14,2.0516,9.5994,0.43227,0,0,0,0
566.64,2.0554,9.5847,0.43422,0,0,0,0
567.14,2.0592,9.5683,0.43622,0,0,0,0
567.64,2.0631,9.5536,0.43829,0,0,0,0
568.14,2.0675,9.5399,0.44023,0,0,0,0
568.64,2.0719,9.5261,0.44249,0,0,0,0
569.14,2.0766,9.5109,0.44447,0,0,0,0
569.64,2.0808,9.4951,0.44661,0,0,0,0
570.14,2.0848,9.4796,0.44885,0,0,0,0
570.64,2.0886,9.464,0.45119,0,0,0,0
571.14,2.0924,9.447,0.45347,0,0,0,0
571.64,2.0965,9.4301,0.45525,0,0,0,0
572.14,2.1007,9.4137,0.45729,0,0,0,0
572.64,2.1051,9.3979,0.45978,0,0,0,0
573.14,2.11,9.3801,0.46201,0,0,0,0
573.64,2.1147,9.3626,0.4641,0,0,0,0
574.14,2.1192,9.3441,0.46642,0,0,0,0
574.64,2.1233,9.327,0.46872,0,0,0,0
575.14,2.1274,9.3086,0.47121,0,0,0,0
575.64,2.1315,9.289,0.4736,0,0,0,0
576.14,2.1357,9.2679,0.47564,0,0,0,0
576.64,2.1402,9.2479,0.47801,0,0,0,0
577.14,2.1451,9.2269,0.48,0,0,0,0
577.64,2.1499,9.2076,0.48219,0,0,0,0
578.14,2.1547,9.1881,0.48439,0,0,0,0
578.64,2.1593,9.1684,0.48702,0,0,0,0
579.14,2.1634,9.1446,0.48962,0,0,0,0
579.64,2.1679,9.1216,0.49201,0,0,0,0
580.14,2.1725,9.0974,0.49409,0,0,0,0
580.64,2.177,9.075,0.49645,0,0,0,0
581.14,2.1819,9.0511,0.49877,0,0,0,0
581.64,2.1874,9.0281,0.50158,0,0,0,0
582.14,2.1926,9.002,0.5039,0,0,0,0
582.64,2.1976,8.9757,0.50626,0,0,0,0
583.14,2.2023,8.9477,0.50889,0,0,0,0
583.64,2.2075,8.9214,0.51161,0,0,0,0