File: LAB_DATA/DP600_results/DATA/NT6_90_1.csv
Time[s],Displacement[mm],Force[kN],AxStrain_1,AxStrain_2,Thickness[mm],OuterWidth[mm],InnerWidth[mm]
0.6,0,-0.020007,0,0,1.5202,20,10
1.1,3e-05,-0.020556,-0.00018902,0,0,0,0
1.6,0.00024,-0.019701,-0.00013101,0,0,0,0
2.1,0.000202,-0.0062821,-5.9002e-05,0,0,0,0
2.6,0.00053,0.020008,-3.2001e-05,0,0,0,0
3.1,0.000682,0.050564,-3.5001e-05,0,0,0,0
3.6,0.000735,0.081432,-0.00014301,0,0,0,0
4.1,0.000773,0.109,-7.2003e-05,0,0,0,0
4.6,0.000882,0.13643,9.1996e-05,0,0,0,0
5.1,0.000814,0.15913,-1.5e-05,0,0,0,0
5.6,0.000827,0.17743,3.3999e-05,0,0,0,0
6.1,0.000924,0.19243,-5.7002e-05,0,0,0,0
6.6,0.001079,0.20943,-0.00013401,0,0,0,0
7.1,0.001111,0.22685,-0.00010601,0,0,0,0
7.6,0.001339,0.24543,-0.00016901,0,0,0,0
8.1,0.001282,0.26271,-4.8001e-05,0,0,0,0
8.6,0.001264,0.28144,-0.00021302,0,0,0,0
9.1,0.001441,0.30071,7.6997e-05,0,0,0,0
9.6,0.001563,0.32086,-3.9001e-05,0,0,0,0
10.1,0.001469,0.33885,1.2e-05,0,0,0,0
10.6,0.001618,0.35743,0.00015199,0,0,0,0
11.1,0.001739,0.37442,-0.00010101,0,0,0,0
11.6,0.001729,0.39158,-3.9001e-05,0,0,0,0
12.1,0.001753,0.40857,0.00013099,0,0,0,0
12.6,0.002104,0.42858,8.9996e-05,0,0,0,0
13.1,0.002207,0.44756,5.3999e-05,0,0,0,0
13.6,0.002072,0.46744,-8.7004e-05,0,0,0,0
14.1,0.002421,0.48556,5.5998e-05,0,0,0,0
14.6,0.00248,0.504,0.00024197,0,0,0,0
15.1,0.002288,0.52085,0,0,0,0,0
15.6,0.002281,0.53943,-4.0001e-05,0,0,0,0
16.1,0.002638,0.55757,0.00010299,0,0,0,0
16.6,0.002602,0.57615,4.5999e-05,0,0,0,0
17.1,0.002463,0.593,-0.00012901,0,0,0,0
17.6,0.002509,0.61144,1.7e-05,0,0,0,0
18.1,0.002542,0.62956,3.2999e-05,0,0,0,0
18.6,0.002542,0.65001,-5.0001e-05,0,0,0,0
19.1,0.002655,0.66871,3e-06,0,0,0,0
19.6,0.002619,0.68929,-1e-05,0,0,0,0
20.1,0.00286,0.70799,9.2996e-05,0,0,0,0
20.6,0.00285,0.72786,0.00015599,0,0,0,0
21.1,0.002983,0.74628,-0.00011901,0,0,0,0
21.6,0.003162,0.76643,0.00011899,0,0,0,0
22.1,0.003311,0.78585,6.2998e-05,0,0,0,0
22.6,0.003195,0.80643,8.8996e-05,0,0,0,0
23.1,0.003622,0.82657,0.00030095,0,0,0,0
23.6,0.00386,0.84715,0.00014599,0,0,0,0
24.1,0.003847,0.86685,0.00026796,0,0,0,0
24.6,0.004234,0.88743,0.00031795,0,0,0,0
25.1,0.004069,0.90785,0.00025197,0,0,0,0
25.6,0.004519,0.92886,0.00018198,0,0,0,0
26.1,0.004191,0.94771,0.00041092,0,0,0,0
26.6,0.004383,0.96801,4.9999e-05,0,0,0,0
27.1,0.00432,0.98771,6.5998e-05,0,0,0,0
27.6,0.004138,1.0093,9.8995e-05,0,0,0,0
28.1,0.004307,1.029,0.00012599,0,0,0,0
28.6,0.004188,1.0507,9.5995e-05,0,0,0,0
29.1,0.00428,1.0703,0.00021198,0,0,0,0
29.6,0.004416,1.0906,0.00021498,0,0,0,0
30.1,0.004416,1.1096,0.00026496,0,0,0,0
30.6,0.004433,1.1304,6.2998e-05,0,0,0,0
31.1,0.00438,1.1509,5.2999e-05,0,0,0,0
31.6,0.004741,1.1721,0.00017898,0,0,0,0
32.1,0.004827,1.1926,0.00014899,0,0,0,0
32.6,0.004823,1.2137,0.00022497,0,0,0,0
33.1,0.005111,1.2343,0.00011299,0,0,0,0
33.6,0.005247,1.2554,9.5995e-05,0,0,0,0
34.1,0.005505,1.2756,0.00029496,0,0,0,0
34.6,0.005664,1.2961,0.00025497,0,0,0,0
35.1,0.005942,1.3147,0.00040392,0,0,0,0
35.6,0.006409,1.335,0.00039092,0,0,0,0
36.1,0.006601,1.355,0.00047289,0,0,0,0
36.6,0.006115,1.3767,0.00031495,0,0,0,0
37.1,0.006227,1.3966,0.00024497,0,0,0,0
37.6,0.006167,1.4184,0.00030795,0,0,0,0
38.1,0.005966,1.438,0.00023197,0,0,0,0
38.6,0.005863,1.4579,0.00021898,0,0,0,0
39.1,0.006075,1.4769,2.3e-05,0,0,0,0
39.6,0.005989,1.4981,0.00020498,0,0,0,0
40.1,0.006058,1.5186,0.00021498,0,0,0,0
40.6,0.006075,1.5394,0.00012599,0,0,0,0
41.1,0.006138,1.5599,0.0004399,0,0,0,0
41.6,0.006472,1.5809,0.00038693,0,0,0,0
42.1,0.006502,1.6011,0.00014599,0,0,0,0
42.6,0.006512,1.6221,0.0004499,0,0,0,0
43.1,0.006734,1.6426,0.00029096,0,0,0,0
43.6,0.006879,1.6634,0.00016199,0,0,0,0
44.1,0.007088,1.6824,0.00031095,0,0,0,0
44.6,0.007551,1.7027,0.00020898,0,0,0,0
45.1,0.007634,1.7223,0.00039392,0,0,0,0
45.6,0.008021,1.7434,0.00031095,0,0,0,0
46.1,0.008048,1.7626,0.00034094,0,0,0,0
46.6,0.008303,1.784,0.00041691,0,0,0,0
47.1,0.008157,1.8037,0.00048688,0,0,0,0
47.6,0.008041,1.8239,0.0004399,0,0,0,0
48.1,0.008061,1.8426,0.00041092,0,0,0,0
48.6,0.007939,1.8634,0.0004499,0,0,0,0
49.1,0.007813,1.8836,0.00030495,0,0,0,0
49.6,0.00776,1.9044,0.00020498,0,0,0,0
50.1,0.007535,1.9246,0.00025497,0,0,0,0
50.6,0.007687,1.9451,0.00036393,0,0,0,0
51.1,0.007803,1.9649,0.00026197,0,0,0,0
51.6,0.0078,1.9854,0.00033794,0,0,0,0
52.1,0.007879,2.0056,0.00026197,0,0,0,0
52.6,0.007899,2.0259,0.0004539,0,0,0,0
53.1,0.008227,2.044,0.00015199,0,0,0,0
53.6,0.008366,2.0637,0.00033394,0,0,0,0
54.1,0.008677,2.083,0.00039692,0,0,0,0
54.6,0.00875,2.1043,0.00036093,0,0,0,0
55.1,0.009134,2.1237,0.00035794,0,0,0,0
55.6,0.009617,2.1447,0.00037393,0,0,0,0
56.1,0.00973,2.1636,0.00027796,0,0,0,0
56.6,0.01009,2.1833,0.00041092,0,0,0,0
57.1,0.01011,2.2021,0.00058583,0,0,0,0
57.6,0.010196,2.2229,0.00045989,0,0,0,0
58.1,0.009981,2.2429,0.00017199,0,0,0,0
58.59,0.010087,2.2634,0.00033794,0,0,0,0
59.1,0.009918,2.2836,0.00019898,0,0,0,0
59.6,0.00973,2.3041,0.00037093,0,0,0,0
60.09,0.009564,2.3239,0.00017498,0,0,0,0
60.6,0.00961,2.343,0.00038693,0,0,0,0
61.1,0.009915,2.3624,0.00031095,0,0,0,0
61.6,0.009587,2.3811,0.00031795,0,0,0,0
62.1,0.009756,2.3996,0.00020198,0,0,0,0
62.6,0.009749,2.4179,0.00025797,0,0,0,0
63.1,0.009928,2.4396,0.00037093,0,0,0,0
63.6,0.009869,2.46,0.00039692,0,0,0,0
64.1,0.010286,2.481,0.00032395,0,0,0,0
64.6,0.010504,2.5,0.00055585,0,0,0,0
65.1,0.010723,2.5199,0.00041391,0,0,0,0
65.6,0.010988,2.5383,0.0006288,0,0,0,0
66.1,0.011491,2.5587,0.00039392,0,0,0,0
66.6,0.011878,2.5786,0.00021198,0,0,0,0
67.1,0.012176,2.5991,0.00034794,0,0,0,0
67.59,0.012143,2.6177,0.00074172,0,0,0,0
68.1,0.012302,2.6377,0.00026496,0,0,0,0
68.6,0.012309,2.6584,0.00037693,0,0,0,0
69.1,0.012375,2.6804,0.00039392,0,0,0,0
69.59,0.012001,2.7006,0.00032395,0,0,0,0
70.1,0.011848,2.7211,0.00041391,0,0,0,0
70.6,0.011683,2.7397,0.00021798,0,0,0,0
71.1,0.0116,2.7583,0.00035394,0,0,0,0
71.6,0.011514,2.7769,0.00037093,0,0,0,0
72.1,0.011474,2.7986,0.00032095,0,0,0,0
72.59,0.011421,2.8193,0.00036093,0,0,0,0
73.1,0.011693,2.8404,0.00033095,0,0,0,0
73.59,0.011858,2.8621,0.00027496,0,0,0,0
74.1,0.011898,2.8831,0.00027096,0,0,0,0
74.59,0.012236,2.9019,0.00040692,0,0,0,0
75.1,0.012471,2.9206,0.00048688,0,0,0,0
75.59,0.012865,2.94,0.00052586,0,0,0,0
76.1,0.013411,2.9594,0.00042691,0,0,0,0
76.6,0.013702,2.9781,0.00033394,0,0,0,0
77.1,0.014037,2.998,0.00049288,0,0,0,0
77.59,0.013735,3.0184,0.00049688,0,0,0,0
78.1,0.014477,3.0399,0.00034794,0,0,0,0
78.59,0.014189,3.0591,0.00046289,0,0,0,0
79.1,0.014282,3.0794,0.00047988,0,0,0,0
79.59,0.014268,3.0981,0.00037393,0,0,0,0
80.09,0.013792,3.1166,0.00041391,0,0,0,0
80.59,0.013815,3.1349,0.00056284,0,0,0,0
81.1,0.013477,3.1566,0.00029096,0,0,0,0
81.59,0.013527,3.1773,0.00030495,0,0,0,0
82.1,0.0135,3.1987,0.00027096,0,0,0,0
82.59,0.013242,3.218,0.00030495,0,0,0,0
83.1,0.013431,3.2379,0.00018898,0,0,0,0
83.59,0.013663,3.2566,0.00030795,0,0,0,0
84.1,0.013663,3.2771,0.00035394,0,0,0,0
84.59,0.01406,3.2969,0.00030495,0,0,0,0
85.1,0.014139,3.3171,0.00039092,0,0,0,0
85.6,0.014821,3.3357,0.00034394,0,0,0,0
86.09,0.01503,3.3557,0.00041092,0,0,0,0
86.59,0.01543,3.3764,0.00045989,0,0,0,0
87.1,0.015556,3.3981,0.00042391,0,0,0,0
87.59,0.01596,3.4179,0.00046289,0,0,0,0
88.1,0.016612,3.4381,0.00042391,0,0,0,0
88.59,0.016367,3.4564,0.00056884,0,0,0,0
89.1,0.016483,3.4746,0.00076471,0,0,0,0
89.59,0.016212,3.4929,0.00058883,0,0,0,0
90.1,0.016185,3.5146,0.0004439,0,0,0,0
90.59,0.015963,3.535,0.00057284,0,0,0,0
91.09,0.015874,3.5557,0.00028496,0,0,0,0
91.59,0.015599,3.5746,0.0004569,0,0,0,0
92.09,0.01554,3.5946,0.00041391,0,0,0,0
92.59,0.01545,3.6133,0.00039092,0,0,0,0
93.09,0.015368,3.6334,0.00028796,0,0,0,0
93.59,0.015411,3.6529,0.00051287,0,0,0,0
94.1,0.015705,3.6731,0.00049288,0,0,0,0
94.6,0.015818,3.6917,0.00041991,0,0,0,0
95.1,0.01641,3.7114,0.00032795,0,0,0,0
95.59,0.016725,3.7317,0.0004399,0,0,0,0
96.09,0.017145,3.7529,0.00054985,0,0,0,0
96.59,0.017678,3.7719,0.00069476,0,0,0,0
97.09,0.018019,3.7917,0.00052586,0,0,0,0
97.59,0.018277,3.8101,0.00062181,0,0,0,0
98.09,0.018645,3.8286,0.00071774,0,0,0,0
98.59,0.018787,3.8469,0.00060282,0,0,0,0
99.09,0.018807,3.8683,0.00072174,0,0,0,0
99.59,0.018675,3.8883,0.00068477,0,0,0,0
100.09,0.018705,3.909,0.00064579,0,0,0,0
100.59,0.018731,3.928,0.00069176,0,0,0,0
101.09,0.018575,3.9476,0.00040092,0,0,0,0
101.59,0.018317,3.9659,0.00065179,0,0,0,0
102.09,0.018162,3.9861,0.00051986,0,0,0,0
102.59,0.018129,4.0059,0.00050287,0,0,0,0
103.09,0.018066,4.0264,0.00064179,0,0,0,0
103.59,0.018062,4.0451,0.00057883,0,0,0,0
104.09,0.018258,4.065,0.00056884,0,0,0,0
104.59,0.018473,4.0851,0.00058283,0,0,0,0
105.09,0.018705,4.1064,0.00068876,0,0,0,0
105.59,0.019191,4.1259,0.00059882,0,0,0,0
106.09,0.019675,4.1461,0.00060282,0,0,0,0
106.59,0.019946,4.1644,0.00070475,0,0,0,0
107.09,0.02036,4.1823,0.00076771,0,0,0,0
107.59,0.020787,4.2001,0.0008906,0,0,0,0
108.09,0.021065,4.2216,0.00085663,0,0,0,0
108.59,0.02131,4.242,0.00071774,0,0,0,0
109.1,0.02129,4.263,0.00091358,0,0,0,0
109.59,0.021542,4.282,0.0010584,0,0,0,0
110.09,0.021426,4.3016,0.00086063,0,0,0,0
110.59,0.021518,4.3196,0.0008936,0,0,0,0
111.1,0.021346,4.3394,0.00066178,0,0,0,0
111.59,0.021293,4.3589,0.00076071,0,0,0,0
112.09,0.021297,4.3789,0.00099251,0,0,0,0
112.59,0.02089,4.3967,0.00086063,0,0,0,0
113.1,0.021088,4.4157,0.00066178,0,0,0,0
113.59,0.020956,4.4357,0.00072774,0,0,0,0
114.1,0.021121,4.4571,0.0008936,0,0,0,0
114.59,0.021386,4.4766,0.00072774,0,0,0,0
115.1,0.021651,4.4961,0.00072774,0,0,0,0
115.59,0.022015,4.5134,0.00079468,0,0,0,0
116.09,0.022644,4.5309,0.00069476,0,0,0,0
116.59,0.022909,4.5489,0.00079468,0,0,0,0
117.09,0.023207,4.5703,0.0010584,0,0,0,0
117.59,0.023737,4.5903,0.0010255,0,0,0,0
118.1,0.024001,4.6107,0.0010914,0,0,0,0
118.59,0.024035,4.6293,0.0011583,0,0,0,0
119.09,0.024299,4.6486,0.0011913,0,0,0,0
119.59,0.024432,4.6666,0.0010584,0,0,0,0
120.09,0.024664,4.6864,0.00099251,0,0,0,0
120.59,0.024664,4.7053,0.0010584,0,0,0,0
121.09,0.024796,4.7244,0.00079468,0,0,0,0
121.59,0.02463,4.7417,0.0008936,0,0,0,0
122.09,0.024796,4.7607,0.00079468,0,0,0,0
122.59,0.024664,4.7804,0.0008936,0,0,0,0
123.09,0.02463,4.8011,0.00086063,0,0,0,0
123.59,0.024763,4.8199,0.00079468,0,0,0,0
124.09,0.024796,4.8391,0.00086063,0,0,0,0
124.59,0.024796,4.8567,0.0008936,0,0,0,0
125.09,0.02516,4.8746,0.00092657,0,0,0,0
125.59,0.025259,4.8926,0.00099251,0,0,0,0
126.09,0.02569,4.9136,0.00092657,0,0,0,0
126.59,0.026186,4.9333,0.0010584,0,0,0,0
127.09,0.026484,4.9537,0.00092657,0,0,0,0
127.59,0.026716,4.9723,0.0010584,0,0,0,0
128.09,0.02718,4.9913,0.0010914,0,0,0,0
128.59,0.027378,5.0089,0.0011913,0,0,0,0
129.1,0.027676,5.0281,0.0012902,0,0,0,0
129.59,0.027809,5.0469,0.0011583,0,0,0,0
130.09,0.028007,5.0664,0.0013561,0,0,0,0
130.59,0.028338,5.0841,0.0010584,0,0,0,0
131.09,0.02857,5.103,0.00099251,0,0,0,0
131.59,0.028702,5.1221,0.00099251,0,0,0,0
132.09,0.028669,5.1424,0.0012243,0,0,0,0
132.59,0.028769,5.1609,0.0010584,0,0,0,0
133.09,0.028736,5.1801,0.00086063,0,0,0,0
133.59,0.028934,5.1977,0.0010584,0,0,0,0
134.09,0.028967,5.2153,0.0010584,0,0,0,0
134.59,0.029133,5.2329,0.0011254,0,0,0,0
135.09,0.029431,5.2533,0.00086063,0,0,0,0
135.59,0.029596,5.2726,0.0011254,0,0,0,0
136.09,0.029928,5.2924,0.0010914,0,0,0,0
136.59,0.030192,5.3106,0.0010914,0,0,0,0
137.09,0.030424,5.329,0.0011254,0,0,0,0
137.59,0.030821,5.3461,0.0011913,0,0,0,0
138.09,0.031186,5.3651,0.0011913,0,0,0,0
138.59,0.031517,5.3836,0.001389,0,0,0,0
139.09,0.031881,5.4024,0.001389,0,0,0,0
139.59,0.032146,5.4197,0.001423,0,0,0,0
140.09,0.032444,5.4384,0.001389,0,0,0,0
140.59,0.032775,5.4577,0.0013561,0,0,0,0
141.09,0.032907,5.4781,0.0012902,0,0,0,0
141.59,0.033172,5.4966,0.0014559,0,0,0,0
142.09,0.033503,5.5154,0.0014559,0,0,0,0
142.59,0.033569,5.5324,0.0014559,0,0,0,0
143.09,0.034,5.5499,0.0014559,0,0,0,0
143.59,0.034066,5.5676,0.0012902,0,0,0,0
144.09,0.034231,5.5883,0.001423,0,0,0,0
144.59,0.034529,5.6073,0.0013231,0,0,0,0
145.09,0.034927,5.6267,0.0013561,0,0,0,0
145.59,0.035456,5.6446,0.0012243,0,0,0,0
146.09,0.035589,5.663,0.0013231,0,0,0,0
146.59,0.035854,5.6801,0.0015877,0,0,0,0
147.09,0.036251,5.6989,0.0014559,0,0,0,0
147.59,0.036416,5.7171,0.0016207,0,0,0,0
148.09,0.036747,5.7359,0.0015548,0,0,0,0
148.59,0.036946,5.7527,0.0017535,0,0,0,0
149.09,0.037343,5.7707,0.0017864,0,0,0,0
149.59,0.037906,5.7894,0.0017535,0,0,0,0
150.09,0.038138,5.8094,0.0018193,0,0,0,0
150.59,0.03837,5.8273,0.001984,0,0,0,0
151.09,0.038866,5.8457,0.0020838,0,0,0,0
151.59,0.039131,5.8627,0.0019182,0,0,0,0
152.09,0.039661,5.88,0.0020838,0,0,0,0
152.59,0.040124,5.8969,0.0018852,0,0,0,0
153.09,0.040687,5.9163,0.0018523,0,0,0,0
153.59,0.041217,5.9346,0.0018193,0,0,0,0
154.09,0.042044,5.9534,0.0019182,0,0,0,0
154.59,0.042739,5.9706,0.001984,0,0,0,0
155.09,0.043269,5.9883,0.0018852,0,0,0,0
155.59,0.043567,6.0046,0.0019511,0,0,0,0
156.09,0.044295,6.0221,0.0020509,0,0,0,0
156.59,0.044395,6.0394,0.0021497,0,0,0,0
157.09,0.04509,6.0579,0.0021497,0,0,0,0
157.59,0.045189,6.0744,0.0021826,0,0,0,0
158.09,0.045421,6.0914,0.0023482,0,0,0,0
158.59,0.045686,6.1087,0.0024799,0,0,0,0
159.09,0.045818,6.1271,0.0025128,0,0,0,0
159.59,0.046216,6.1441,0.0027771,0,0,0,0
160.09,0.046547,6.1619,0.0029417,0,0,0,0
160.59,0.046977,6.178,0.00281,0,0,0,0
161.09,0.047672,6.194,0.0030743,0,0,0,0
161.59,0.048036,6.2099,0.0030743,0,0,0,0
162.09,0.048963,6.2283,0.002843,0,0,0,0
162.59,0.049758,6.2459,0.0027442,0,0,0,0
163.09,0.050718,6.2639,0.0029417,0,0,0,0
163.59,0.051546,6.2801,0.0027771,0,0,0,0
164.09,0.052572,6.2967,0.0027113,0,0,0,0
164.59,0.053333,6.3124,0.0026116,0,0,0,0
165.09,0.053863,6.3296,0.00281,0,0,0,0
165.59,0.054426,6.3461,0.0027771,0,0,0,0
166.09,0.055121,6.3629,0.00281,0,0,0,0
166.59,0.055684,6.378,0.0030085,0,0,0,0
167.09,0.056048,6.3944,0.0029756,0,0,0,0
167.59,0.056545,6.4114,0.003173,0,0,0,0
168.09,0.056942,6.4291,0.0030743,0,0,0,0
168.59,0.057306,6.4451,0.0033055,0,0,0,0
169.09,0.057869,6.4621,0.003734,0,0,0,0
169.59,0.058266,6.4777,0.0036354,0,0,0,0
170.09,0.058862,6.493,0.0039323,0,0,0,0
170.59,0.059359,6.5079,0.0040966,0,0,0,0
171.09,0.060087,6.5253,0.0042619,0,0,0,0
171.59,0.060882,6.5419,0.004229,0,0,0,0
172.09,0.061842,6.5591,0.004229,0,0,0,0
172.59,0.062703,6.5749,0.0040637,0,0,0,0
173.09,0.06363,6.5907,0.0041633,0,0,0,0
173.59,0.064292,6.6051,0.0038994,0,0,0,0
174.09,0.065053,6.6209,0.0037998,0,0,0,0
174.59,0.065781,6.6361,0.0038336,0,0,0,0
175.09,0.066543,6.6521,0.0039323,0,0,0,0
175.59,0.067238,6.667,0.0038994,0,0,0,0
176.09,0.068,6.6826,0.0040637,0,0,0,0
176.59,0.068695,6.6983,0.0040309,0,0,0,0
177.09,0.069655,6.7151,0.0042619,0,0,0,0
177.59,0.070218,6.7306,0.0042619,0,0,0,0
178.09,0.071343,6.7464,0.00446,0,0,0,0
178.59,0.072171,6.7607,0.0047238,0,0,0,0
179.09,0.073032,6.775,0.0049865,0,0,0,0
179.59,0.074091,6.7889,0.0051517,0,0,0,0
180.09,0.075184,6.805,0.0053497,0,0,0,0
180.59,0.075945,6.8201,0.0054481,0,0,0,0
181.09,0.077402,6.8359,0.0056122,0,0,0,0
181.59,0.077899,6.8501,0.0058101,0,0,0,0
182.09,0.078561,6.865,0.0057773,0,0,0,0
182.59,0.079455,6.8789,0.0060735,0,0,0,0
183.09,0.079852,6.8939,0.0056122,0,0,0,0
183.59,0.080746,6.9084,0.0055466,0,0,0,0
184.09,0.081375,6.9236,0.0055794,0,0,0,0
184.59,0.082037,6.9373,0.0055138,0,0,0,0
185.09,0.082865,6.9516,0.0055466,0,0,0,0
185.59,0.083593,6.9663,0.0054481,0,0,0,0
186.09,0.084355,6.9819,0.0054481,0,0,0,0
186.59,0.085414,6.9961,0.0055804,0,0,0,0
187.09,0.086474,7.0109,0.0057117,0,0,0,0
187.59,0.087633,7.0243,0.0058429,0,0,0,0
188.09,0.089155,7.0377,0.0060407,0,0,0,0
188.59,0.090182,7.0511,0.0062385,0,0,0,0
189.09,0.09134,7.0667,0.0064352,0,0,0,0
189.59,0.092532,7.0811,0.0067968,0,0,0,0
190.09,0.093592,7.0959,0.0070273,0,0,0,0
190.59,0.094585,7.1091,0.0073559,0,0,0,0
191.09,0.095744,7.123,0.0076844,0,0,0,0
191.59,0.096704,7.1359,0.0079146,0,0,0,0
192.09,0.097399,7.1501,0.0077826,0,0,0,0
192.59,0.098193,7.1639,0.0079473,0,0,0,0
193.09,0.099451,7.1779,0.0077171,0,0,0,0
193.59,0.10035,7.1906,0.0076189,0,0,0,0
194.09,0.10137,7.2043,0.0073559,0,0,0,0
194.59,0.10243,7.2186,0.0073559,0,0,0,0
195.09,0.10389,7.2336,0.0073231,0,0,0,0
195.59,0.10495,7.2471,0.0072904,0,0,0,0
196.09,0.10627,7.2609,0.0073231,0,0,0,0
196.59,0.10736,7.2733,0.0073559,0,0,0,0
197.09,0.10872,7.286,0.0074214,0,0,0,0
197.59,0.10955,7.2986,0.0075862,0,0,0,0
198.09,0.11051,7.313,0.0076844,0,0,0,0
198.59,0.11137,7.3261,0.0080465,0,0,0,0
199.09,0.11243,7.3399,0.0081775,0,0,0,0
199.59,0.11319,7.3524,0.0086366,0,0,0,0
200.09,0.11405,7.3657,0.0089647,0,0,0,0
200.59,0.11518,7.3779,0.0091619,0,0,0,0
201.09,0.11594,7.3911,0.0094898,0,0,0,0
201.59,0.11686,7.4039,0.0099157,0,0,0,0
202.09,0.11832,7.4169,0.009785,0,0,0,0
202.59,0.11961,7.4286,0.0097523,0,0,0,0
203.09,0.12094,7.4413,0.009785,0,0,0,0
203.59,0.12246,7.4543,0.0095225,0,0,0,0
204.09,0.12408,7.4681,0.0094245,0,0,0,0
204.59,0.12501,7.4809,0.0092937,0,0,0,0
205.09,0.12657,7.4941,0.00926,0,0,0,0
205.59,0.12772,7.506,0.0092273,0,0,0,0
206.09,0.12911,7.5177,0.0091292,0,0,0,0
206.59,0.13017,7.5294,0.0091946,0,0,0,0
207.09,0.1313,7.5434,0.009261,0,0,0,0
207.59,0.13246,7.5564,0.0094245,0,0,0,0
208.09,0.13352,7.5696,0.0096216,0,0,0,0
208.59,0.13454,7.5811,0.0098503,0,0,0,0
209.09,0.13584,7.5933,0.010178,0,0,0,0
209.59,0.13716,7.6046,0.010572,0,0,0,0
210.09,0.13865,7.6171,0.010867,0,0,0,0
210.59,0.13997,7.6294,0.011129,0,0,0,0
211.09,0.14159,7.6423,0.011717,0,0,0,0
211.59,0.14262,7.6539,0.011652,0,0,0,0
212.09,0.14431,7.666,0.011849,0,0,0,0
212.59,0.1454,7.6786,0.011914,0,0,0,0
213.09,0.14653,7.6919,0.011946,0,0,0,0
213.59,0.14772,7.7041,0.011717,0,0,0,0
214.09,0.14855,7.7166,0.011619,0,0,0,0
214.59,0.14971,7.7276,0.011489,0,0,0,0
215.09,0.15096,7.7387,0.011292,0,0,0,0
215.59,0.15189,7.7501,0.011096,0,0,0,0
216.09,0.15315,7.7634,0.011129,0,0,0,0
216.59,0.15424,7.7757,0.011161,0,0,0,0
217.09,0.15573,7.7883,0.011358,0,0,0,0
217.59,0.15739,7.7997,0.011554,0,0,0,0
218.09,0.15908,7.8114,0.011685,0,0,0,0
218.59,0.16063,7.8224,0.012013,0,0,0,0
219.09,0.16212,7.8346,0.012274,0,0,0,0
219.59,0.16358,7.8461,0.012601,0,0,0,0
220.09,0.1651,7.8581,0.012961,0,0,0,0
220.59,0.16649,7.8693,0.013418,0,0,0,0
221.09,0.16762,7.8813,0.013646,0,0,0,0
221.59,0.16894,7.8933,0.013973,0,0,0,0
222.09,0.17033,7.9056,0.01394,0,0,0,0
222.59,0.17149,7.9164,0.014103,0,0,0,0
223.09,0.17315,7.9279,0.014005,0,0,0,0
223.59,0.17464,7.9386,0.013875,0,0,0,0
224.09,0.17626,7.9494,0.014039,0,0,0,0
224.59,0.17772,7.9599,0.013646,0,0,0,0
225.09,0.17957,7.9717,0.013352,0,0,0,0
225.59,0.18136,7.983,0.013451,0,0,0,0
226.09,0.18281,7.995,0.013353,0,0,0,0
226.59,0.18437,8.006,0.013353,0,0,0,0
227.09,0.18589,8.0171,0.013419,0,0,0,0
227.59,0.18702,8.0274,0.013615,0,0,0,0
228.09,0.18834,8.0386,0.013909,0,0,0,0
228.59,0.18973,8.0494,0.014267,0,0,0,0
229.09,0.19096,8.0609,0.014496,0,0,0,0
229.59,0.19212,8.0716,0.014822,0,0,0,0
230.09,0.19357,8.0827,0.015214,0,0,0,0
230.59,0.1951,8.0936,0.015605,0,0,0,0
231.09,0.19655,8.1049,0.016126,0,0,0,0
231.59,0.19804,8.1154,0.016159,0,0,0,0
232.09,0.2,8.1269,0.016191,0,0,0,0
232.59,0.20142,8.1373,0.016256,0,0,0,0
233.09,0.20304,8.1471,0.016322,0,0,0,0
233.59,0.20447,8.1564,0.016224,0,0,0,0
234.09,0.20602,8.1677,0.016322,0,0,0,0
234.59,0.20728,8.1787,0.015995,0,0,0,0
235.09,0.2085,8.19,0.015866,0,0,0,0
235.59,0.20973,8.2,0.015638,0,0,0,0
236.09,0.21112,8.2104,0.015768,0,0,0,0
236.59,0.21264,8.2201,0.015638,0,0,0,0
237.09,0.2141,8.2309,0.015834,0,0,0,0
237.59,0.21569,8.2411,0.016029,0,0,0,0
238.09,0.21725,8.2516,0.016355,0,0,0,0
238.59,0.2194,8.2609,0.016518,0,0,0,0
239.09,0.22112,8.271,0.01668,0,0,0,0
239.59,0.22284,8.2816,0.017038,0,0,0,0
240.09,0.2247,8.2929,0.017527,0,0,0,0
240.59,0.22612,8.3031,0.017754,0,0,0,0
241.09,0.22784,8.3136,0.018144,0,0,0,0
241.59,0.22936,8.3226,0.018274,0,0,0,0
242.09,0.23079,8.3317,0.018469,0,0,0,0
242.59,0.23247,8.3411,0.018697,0,0,0,0
243.09,0.23406,8.3524,0.018632,0,0,0,0
243.59,0.23555,8.3627,0.018665,0,0,0,0
244.09,0.23724,8.373,0.018371,0,0,0,0
244.59,0.23873,8.382,0.018437,0,0,0,0
245.09,0.24092,8.3914,0.018372,0,0,0,0
245.59,0.24261,8.4007,0.018372,0,0,0,0
246.09,0.24456,8.411,0.018405,0,0,0,0
246.59,0.24631,8.4207,0.018307,0,0,0,0
247.09,0.248,8.4306,0.018405,0,0,0,0
247.59,0.24986,8.4396,0.018469,0,0,0,0
248.09,0.25125,8.449,0.018859,0,0,0,0
248.59,0.25267,8.4589,0.018957,0,0,0,0
249.09,0.25413,8.4693,0.019314,0,0,0,0
249.59,0.25558,8.4787,0.019671,0,0,0,0
250.09,0.25711,8.4886,0.020028,0,0,0,0
250.59,0.25863,8.4976,0.020386,0,0,0,0
251.09,0.26019,8.5064,0.020483,0,0,0,0
251.59,0.26194,8.5151,0.020644,0,0,0,0
252.09,0.26366,8.5254,0.020969,0,0,0,0
252.59,0.26588,8.535,0.021131,0,0,0,0
253.09,0.26754,8.545,0.021423,0,0,0,0
253.59,0.26909,8.5543,0.021163,0,0,0,0
254.09,0.27088,8.5639,0.021131,0,0,0,0
254.59,0.27257,8.5724,0.021197,0,0,0,0
255.09,0.27396,8.5819,0.02097,0,0,0,0
255.59,0.27558,8.5911,0.021293,0,0,0,0
256.09,0.27727,8.6006,0.021196,0,0,0,0
256.59,0.27866,8.6089,0.021261,0,0,0,0
257.09,0.28035,8.6177,0.021423,0,0,0,0
257.59,0.282,8.6271,0.021455,0,0,0,0
258.09,0.28416,8.6373,0.021617,0,0,0,0
258.59,0.28621,8.6467,0.022038,0,0,0,0
259.09,0.28796,8.6563,0.022201,0,0,0,0
259.59,0.29005,8.6649,0.022394,0,0,0,0
260.09,0.29194,8.6731,0.022621,0,0,0,0
260.59,0.29389,8.6814,0.023074,0,0,0,0
261.09,0.29548,8.6911,0.0233,0,0,0,0
261.59,0.29736,8.7003,0.023398,0,0,0,0
262.09,0.29899,8.7097,0.023688,0,0,0,0
262.59,0.30084,8.718,0.023883,0,0,0,0
263.09,0.30246,8.7267,0.024045,0,0,0,0
263.59,0.30432,8.7349,0.023916,0,0,0,0
264.09,0.30621,8.7441,0.024045,0,0,0,0
264.59,0.30806,8.7531,0.024206,0,0,0,0
265.09,0.31024,8.7623,0.024044,0,0,0,0
265.59,0.3124,8.7701,0.024238,0,0,0,0
266.09,0.31451,8.7787,0.024206,0,0,0,0
266.59,0.31663,8.7879,0.024496,0,0,0,0
267.09,0.31845,8.7973,0.0244,0,0,0,0
267.59,0.32021,8.8054,0.024723,0,0,0,0
268.09,0.32196,8.8139,0.024691,0,0,0,0
268.59,0.32365,8.8216,0.024917,0,0,0,0
269.09,0.32547,8.8294,0.025207,0,0,0,0
269.59,0.32733,8.8374,0.025401,0,0,0,0
270.09,0.32882,8.8469,0.025917,0,0,0,0
270.59,0.33077,8.8556,0.026143,0,0,0,0
271.09,0.33272,8.8644,0.02624,0,0,0,0
271.59,0.33474,8.8726,0.026466,0,0,0,0
272.09,0.33676,8.8809,0.026692,0,0,0,0
272.59,0.33875,8.8887,0.02682,0,0,0,0
273.09,0.3408,8.897,0.027046,0,0,0,0
273.59,0.34246,8.905,0.027368,0,0,0,0
274.09,0.34431,8.9133,0.027046,0,0,0,0
274.59,0.34593,8.9211,0.027368,0,0,0,0
275.09,0.34762,8.9294,0.027304,0,0,0,0
275.59,0.34934,8.9379,0.027336,0,0,0,0
276.09,0.35077,8.9466,0.027626,0,0,0,0
276.59,0.35272,8.9547,0.027626,0,0,0,0
277.09,0.35464,8.9633,0.027786,0,0,0,0
277.59,0.35659,8.9709,0.027884,0,0,0,0
278.09,0.35861,8.9781,0.028109,0,0,0,0
278.59,0.3608,8.9854,0.028238,0,0,0,0
279.09,0.36305,8.9939,0.02856,0,0,0,0
279.59,0.3649,9.0016,0.028624,0,0,0,0
280.09,0.36692,9.01,0.029074,0,0,0,0
280.59,0.36881,9.018,0.02917,0,0,0,0
281.09,0.37037,9.0261,0.029396,0,0,0,0
281.59,0.37239,9.0334,0.02946,0,0,0,0
282.09,0.37404,9.0416,0.029686,0,0,0,0
282.59,0.37606,9.0494,0.029942,0,0,0,0
283.09,0.37801,9.0576,0.030071,0,0,0,0
283.59,0.38004,9.0649,0.030199,0,0,0,0
284.09,0.38219,9.0724,0.030585,0,0,0,0
284.59,0.3844,9.0801,0.03052,0,0,0,0
285.09,0.38676,9.0883,0.030681,0,0,0,0
285.59,0.38897,9.0957,0.030713,0,0,0,0
286.09,0.39096,9.1036,0.030938,0,0,0,0
286.59,0.39298,9.1109,0.031034,0,0,0,0
287.09,0.3949,9.1179,0.031066,0,0,0,0
287.59,0.39682,9.1247,0.031388,0,0,0,0
288.09,0.39881,9.1329,0.031387,0,0,0,0
288.59,0.40056,9.1406,0.031645,0,0,0,0
289.09,0.40271,9.1484,0.03187,0,0,0,0
289.59,0.40427,9.1556,0.032061,0,0,0,0
290.09,0.40682,9.1631,0.03235,0,0,0,0
290.59,0.40914,9.1701,0.032511,0,0,0,0
291.09,0.41132,9.1779,0.032479,0,0,0,0
291.59,0.41367,9.1854,0.032863,0,0,0,0
292.09,0.41569,9.1933,0.032959,0,0,0,0
292.59,0.41768,9.2001,0.033279,0,0,0,0
293.09,0.41973,9.2071,0.033503,0,0,0,0
293.59,0.42168,9.2144,0.033632,0,0,0,0
294.09,0.42351,9.2223,0.033823,0,0,0,0
294.59,0.42523,9.2294,0.033728,0,0,0,0
295.09,0.42715,9.2369,0.034175,0,0,0,0
295.59,0.42937,9.2436,0.034143,0,0,0,0
296.09,0.43115,9.2501,0.034272,0,0,0,0
296.59,0.4334,9.2567,0.034432,0,0,0,0
297.09,0.43566,9.2649,0.034528,0,0,0,0
297.59,0.43807,9.2726,0.034911,0,0,0,0
298.09,0.44023,9.2801,0.034944,0,0,0,0
298.59,0.44234,9.2869,0.035296,0,0,0,0
299.09,0.44446,9.2939,0.035392,0,0,0,0
299.59,0.44632,9.3004,0.03552,0,0,0,0
300.09,0.44801,9.3076,0.035838,0,0,0,0
300.59,0.44963,9.3144,0.035871,0,0,0,0
301.09,0.45178,9.3216,0.036255,0,0,0,0
301.59,0.45377,9.3281,0.036382,0,0,0,0
302.09,0.45602,9.3351,0.036573,0,0,0,0
302.59,0.458,9.3421,0.036766,0,0,0,0
303.09,0.46016,9.3496,0.03702,0,0,0,0
303.59,0.46284,9.3564,0.037084,0,0,0,0
304.09,0.46526,9.3636,0.037372,0,0,0,0
304.59,0.46734,9.3699,0.037435,0,0,0,0
305.09,0.46913,9.3761,0.037595,0,0,0,0
305.59,0.47128,9.3824,0.037754,0,0,0,0
306.09,0.4731,9.3901,0.037945,0,0,0,0
306.59,0.47552,9.3973,0.038137,0,0,0,0
307.09,0.47727,9.4044,0.038265,0,0,0,0
307.59,0.47943,9.4109,0.038265,0,0,0,0
308.09,0.48161,9.4176,0.038742,0,0,0,0
308.59,0.48373,9.4234,0.038839,0,0,0,0
309.09,0.48608,9.4299,0.039126,0,0,0,0
309.59,0.48893,9.4364,0.039284,0,0,0,0
310.09,0.49141,9.4433,0.039538,0,0,0,0
310.59,0.49343,9.4494,0.039762,0,0,0,0
311.09,0.49565,9.4559,0.04008,0,0,0,0
311.59,0.4976,9.4624,0.040143,0,0,0,0
312.09,0.49962,9.4693,0.040494,0,0,0,0
312.59,0.50167,9.4757,0.040652,0,0,0,0
313.09,0.50383,9.4823,0.040812,0,0,0,0
313.59,0.50608,9.4881,0.041033,0,0,0,0
314.09,0.50816,9.4939,0.041129,0,0,0,0
314.59,0.51055,9.4997,0.041352,0,0,0,0
315.09,0.51293,9.5066,0.041446,0,0,0,0
315.59,0.51568,9.5131,0.041828,0,0,0,0
316.09,0.51803,9.5199,0.04186,0,0,0,0
316.59,0.52031,9.5259,0.041924,0,0,0,0
317.09,0.5227,9.5319,0.042177,0,0,0,0
317.59,0.52468,9.5377,0.042527,0,0,0,0
318.09,0.52677,9.5443,0.042622,0,0,0,0
318.59,0.52889,9.5507,0.042748,0,0,0,0
319.09,0.53097,9.557,0.04297,0,0,0,0
319.59,0.53286,9.5624,0.043319,0,0,0,0
320.09,0.53528,9.5684,0.043668,0,0,0,0
320.59,0.53776,9.5749,0.043794,0,0,0,0
321.09,0.54021,9.5816,0.044142,0,0,0,0
321.59,0.54266,9.5874,0.044269,0,0,0,0
322.09,0.54504,9.5936,0.044491,0,0,0,0
322.59,0.54763,9.5991,0.044745,0,0,0,0
323.09,0.54985,9.6049,0.044839,0,0,0,0
323.59,0.55193,9.6107,0.045094,0,0,0,0
324.09,0.55365,9.6176,0.045378,0,0,0,0
324.59,0.55603,9.6239,0.045663,0,0,0,0
325.09,0.55812,9.6301,0.04579,0,0,0,0
325.59,0.56011,9.6359,0.04601,0,0,0,0
326.09,0.56259,9.6416,0.04617,0,0,0,0
326.59,0.56484,9.647,0.046422,0,0,0,0
327.09,0.56726,9.653,0.046579,0,0,0,0
327.59,0.56981,9.6587,0.046833,0,0,0,0
328.09,0.57229,9.6646,0.047053,0,0,0,0
328.59,0.57471,9.6701,0.047179,0,0,0,0
329.09,0.57676,9.6764,0.047621,0,0,0,0
329.59,0.57891,9.6829,0.047748,0,0,0,0
330.09,0.5811,9.6893,0.048126,0,0,0,0
330.59,0.58298,9.6947,0.048252,0,0,0,0
331.09,0.58527,9.7003,0.048568,0,0,0,0
331.59,0.58755,9.7054,0.048693,0,0,0,0
332.09,0.5899,9.7109,0.049041,0,0,0,0
332.59,0.59235,9.7164,0.049009,0,0,0,0
333.09,0.59484,9.7229,0.049481,0,0,0,0
333.59,0.59749,9.7289,0.049734,0,0,0,0
334.09,0.59974,9.7349,0.049767,0,0,0,0
334.59,0.60229,9.7401,0.050081,0,0,0,0
335.09,0.60444,9.7456,0.05027,0,0,0,0
335.59,0.60659,9.7507,0.050553,0,0,0,0
336.09,0.60864,9.7566,0.050868,0,0,0,0
336.59,0.61093,9.7624,0.050932,0,0,0,0
337.09,0.61318,9.7683,0.051244,0,0,0,0
337.59,0.61556,9.7731,0.051527,0,0,0,0
338.09,0.61795,9.7781,0.051904,0,0,0,0
338.59,0.62073,9.7837,0.052125,0,0,0,0
339.09,0.62328,9.79,0.05225,0,0,0,0
339.59,0.62586,9.7957,0.052345,0,0,0,0
340.09,0.62834,9.8013,0.052596,0,0,0,0
340.59,0.63079,9.8064,0.052689,0,0,0,0
341.09,0.63294,9.8116,0.052848,0,0,0,0
341.59,0.6353,9.8167,0.053255,0,0,0,0
342.09,0.63758,9.8229,0.053601,0,0,0,0
342.59,0.63986,9.8286,0.053727,0,0,0,0
343.09,0.64238,9.8341,0.054009,0,0,0,0
343.59,0.6447,9.8391,0.054104,0,0,0,0
344.09,0.64741,9.8443,0.054386,0,0,0,0
344.59,0.65006,9.849,0.054668,0,0,0,0
345.09,0.65307,9.8546,0.05495,0,0,0,0
345.59,0.65539,9.8601,0.055421,0,0,0,0
346.09,0.65797,9.8656,0.055544,0,0,0,0
346.59,0.66046,9.8701,0.056046,0,0,0,0
347.09,0.66258,9.8751,0.056202,0,0,0,0
347.59,0.66476,9.8804,0.056515,0,0,0,0
348.09,0.66728,9.886,0.056765,0,0,0,0
348.59,0.66946,9.8907,0.056922,0,0,0,0
349.09,0.67211,9.8956,0.057078,0,0,0,0
349.59,0.67463,9.9004,0.057453,0,0,0,0
350.09,0.67748,9.9056,0.057578,0,0,0,0
350.59,0.67986,9.9107,0.057734,0,0,0,0
351.09,0.6829,9.9163,0.057859,0,0,0,0
351.59,0.68549,9.9211,0.058172,0,0,0,0
352.09,0.6879,9.9261,0.058391,0,0,0,0
352.59,0.69052,9.9309,0.058577,0,0,0,0
353.09,0.69287,9.9359,0.059046,0,0,0,0
353.59,0.69515,9.9404,0.059015,0,0,0,0
354.09,0.69724,9.9453,0.059388,0,0,0,0
354.59,0.69986,9.95,0.059856,0,0,0,0
355.09,0.70221,9.955,0.059981,0,0,0,0
355.59,0.70486,9.9597,0.060418,0,0,0,0
356.09,0.70754,9.9646,0.06073,0,0,0,0
356.59,0.71055,9.9694,0.060761,0,0,0,0
357.09,0.71313,9.9743,0.061383,0,0,0,0
357.59,0.71575,9.9787,0.061663,0,0,0,0
358.09,0.71813,9.9836,0.06185,0,0,0,0
358.59,0.72018,9.9881,0.06213,0,0,0,0
359.09,0.72277,9.9926,0.062471,0,0,0,0
359.59,0.72495,9.9967,0.062534,0,0,0,0
360.09,0.72747,10.002,0.062659,0,0,0,0
360.59,0.72985,10.006,0.06297,0,0,0,0
361.09,0.73237,10.011,0.063157,0,0,0,0
361.59,0.73512,10.015,0.063468,0,0,0,0
362.09,0.73757,10.02,0.063685,0,0,0,0
362.59,0.74061,10.024,0.06384,0,0,0,0
363.09,0.7431,10.028,0.064027,0,0,0,0
363.59,0.74568,10.033,0.064461,0,0,0,0
364.09,0.74783,10.038,0.064833,0,0,0,0
364.59,0.75031,10.042,0.065052,0,0,0,0
365.09,0.75273,10.046,0.065361,0,0,0,0
365.59,0.75492,10.05,0.065794,0,0,0,0
366.09,0.75723,10.055,0.065918,0,0,0,0
366.59,0.75978,10.06,0.06629,0,0,0,0
367.09,0.76233,10.065,0.066538,0,0,0,0
367.59,0.76531,10.069,0.066879,0,0,0,0
368.09,0.76803,10.073,0.067127,0,0,0,0
368.59,0.77078,10.077,0.067375,0,0,0,0
369.09,0.77316,10.082,0.067684,0,0,0,0
369.59,0.77558,10.086,0.067962,0,0,0,0
370.09,0.77776,10.09,0.068087,0,0,0,0
370.59,0.78024,10.093,0.068365,0,0,0,0
371.09,0.7824,10.098,0.068612,0,0,0,0
371.59,0.78495,10.102,0.068921,0,0,0,0
372.09,0.7874,10.107,0.069261,0,0,0,0
372.59,0.79001,10.111,0.069631,0,0,0,0
373.09,0.79263,10.115,0.069756,0,0,0,0
373.59,0.79554,10.118,0.070002,0,0,0,0
374.09,0.79799,10.122,0.070403,0,0,0,0
374.59,0.80064,10.126,0.070619,0,0,0,0
375.09,0.80309,10.13,0.071112,0,0,0,0
375.59,0.80547,10.135,0.07139,0,0,0,0
376.09,0.80786,10.138,0.071482,0,0,0,0
376.59,0.81001,10.143,0.071883,0,0,0,0
377.09,0.81259,10.147,0.072191,0,0,0,0
377.59,0.81504,10.151,0.072498,0,0,0,0
378.09,0.81766,10.154,0.072807,0,0,0,0
378.59,0.82024,10.159,0.073084,0,0,0,0
379.09,0.82305,10.162,0.073084,0,0,0,0
379.59,0.8258,10.167,0.073516,0,0,0,0
380.09,0.82855,10.17,0.073916,0,0,0,0
380.59,0.8312,10.174,0.074255,0,0,0,0
381.09,0.83365,10.178,0.074592,0,0,0,0
381.59,0.83606,10.182,0.074808,0,0,0,0
382.09,0.83815,10.185,0.075175,0,0,0,0
382.59,0.84087,10.189,0.075575,0,0,0,0
383.09,0.84315,10.193,0.075882,0,0,0,0
383.59,0.84573,10.196,0.076035,0,0,0,0
384.09,0.84848,10.2,0.076465,0,0,0,0
384.59,0.85146,10.204,0.076832,0,0,0,0
385.09,0.85441,10.208,0.077047,0,0,0,0
385.59,0.85742,10.211,0.077323,0,0,0,0
386.09,0.85964,10.215,0.07769,0,0,0,0
386.59,0.86232,10.218,0.077751,0,0,0,0
387.09,0.8647,10.222,0.078181,0,0,0,0
387.59,0.86725,10.226,0.078456,0,0,0,0
388.09,0.8697,10.229,0.078579,0,0,0,0
388.59,0.87209,10.233,0.079008,0,0,0,0
389.09,0.87474,10.236,0.079466,0,0,0,0
389.59,0.87748,10.24,0.079589,0,0,0,0
390.09,0.8803,10.243,0.08017,0,0,0,0
390.59,0.88331,10.247,0.080384,0,0,0,0
391.09,0.88639,10.25,0.08072,0,0,0,0
391.59,0.88894,10.254,0.080933,0,0,0,0
392.09,0.89106,10.257,0.081329,0,0,0,0
392.59,0.89384,10.261,0.081635,0,0,0,0
393.09,0.89622,10.265,0.081848,0,0,0,0
393.59,0.89874,10.268,0.082397,0,0,0,0
394.09,0.90125,10.272,0.082702,0,0,0,0
394.59,0.90387,10.274,0.083038,0,0,0,0
395.09,0.90639,10.278,0.083312,0,0,0,0
395.59,0.9097,10.281,0.083737,0,0,0,0
396.09,0.91274,10.285,0.083951,0,0,0,0
396.59,0.91559,10.287,0.084256,0,0,0,0
397.09,0.91791,10.291,0.08453,0,0,0,0
397.59,0.92095,10.294,0.084834,0,0,0,0
398.09,0.92327,10.297,0.085107,0,0,0,0
398.59,0.92575,10.301,0.085472,0,0,0,0
399.09,0.9283,10.304,0.085715,0,0,0,0
399.59,0.93085,10.307,0.086262,0,0,0,0
400.09,0.9335,10.31,0.086475,0,0,0,0
400.59,0.93625,10.313,0.08681,0,0,0,0
401.09,0.93916,10.317,0.087204,0,0,0,0
401.59,0.94218,10.32,0.087507,0,0,0,0
402.09,0.94492,10.324,0.087992,0,0,0,0
402.59,0.94794,10.326,0.088326,0,0,0,0
403.09,0.95062,10.329,0.088811,0,0,0,0
403.59,0.953,10.332,0.089144,0,0,0,0
404.09,0.95558,10.335,0.089568,0,0,0,0
404.59,0.9579,10.338,0.089749,0,0,0,0
405.09,0.96065,10.341,0.090234,0,0,0,0
405.59,0.9632,10.344,0.090446,0,0,0,0
406.09,0.96611,10.347,0.090959,0,0,0,0
406.59,0.96899,10.35,0.091141,0,0,0,0
407.09,0.97224,10.353,0.091624,0,0,0,0
407.59,0.97502,10.356,0.091957,0,0,0,0
408.09,0.97777,10.358,0.092289,0,0,0,0
408.59,0.98051,10.361,0.09271,0,0,0,0
409.09,0.98296,10.364,0.093134,0,0,0,0
409.59,0.98565,10.367,0.093345,0,0,0,0
410.09,0.98826,10.37,0.093826,0,0,0,0
410.59,0.99061,10.373,0.094008,0,0,0,0
411.09,0.99366,10.376,0.094581,0,0,0,0
411.59,0.9965,10.379,0.095123,0,0,0,0
412.09,0.99942,10.382,0.095424,0,0,0,0
412.59,1.0022,10.385,0.095605,0,0,0,0
413.09,1.0055,10.388,0.096176,0,0,0,0
413.59,1.0081,10.39,0.096687,0,0,0,0
414.09,1.0107,10.392,0.096866,0,0,0,0
414.59,1.0135,10.395,0.097228,0,0,0,0
415.09,1.016,10.398,0.097648,0,0,0,0
415.59,1.0187,10.4,0.097919,0,0,0,0
416.09,1.0206,10.403,0.09828,0,0,0,0
416.59,1.0238,10.406,0.098939,0,0,0,0
417.09,1.0265,10.408,0.09906,0,0,0,0
417.59,1.0295,10.411,0.099391,0,0,0,0
418.09,1.0332,10.413,0.09987,0,0,0,0
418.59,1.0355,10.416,0.10029,0,0,0,0
419.09,1.0386,10.418,0.10077,0,0,0,0
419.59,1.0411,10.421,0.10107,0,0,0,0
420.09,1.0437,10.424,0.10155,0,0,0,0
420.59,1.0465,10.426,0.10211,0,0,0,0
421.09,1.0489,10.429,0.10253,0,0,0,0
421.59,1.0515,10.431,0.10298,0,0,0,0
422.09,1.0544,10.433,0.10325,0,0,0,0
422.59,1.0574,10.436,0.10376,0,0,0,0
423.09,1.0602,10.438,0.10417,0,0,0,0
423.59,1.0632,10.44,0.10456,0,0,0,0
424.09,1.0663,10.443,0.10504,0,0,0,0
424.59,1.0691,10.445,0.10528,0,0,0,0
425.09,1.0716,10.447,0.10561,0,0,0,0
425.59,1.0744,10.45,0.10617,0,0,0,0
426.09,1.0768,10.452,0.10665,0,0,0,0
426.59,1.0795,10.454,0.10686,0,0,0,0
427.09,1.0822,10.456,0.10739,0,0,0,0
427.59,1.0853,10.458,0.10793,0,0,0,0
428.09,1.088,10.461,0.10834,0,0,0,0
428.59,1.0907,10.463,0.10867,0,0,0,0
429.09,1.0942,10.465,0.10929,0,0,0,0
429.59,1.0971,10.467,0.10956,0,0,0,0
430.09,1.1001,10.47,0.11003,0,0,0,0
430.59,1.1027,10.472,0.11063,0,0,0,0
431.09,1.1053,10.474,0.11107,0,0,0,0
431.59,1.1078,10.476,0.11158,0,0,0,0
432.09,1.1105,10.478,0.11199,0,0,0,0
432.59,1.1129,10.48,0.11241,0,0,0,0
433.09,1.1164,10.482,0.11279,0,0,0,0
433.59,1.119,10.484,0.11341,0,0,0,0
434.09,1.1221,10.486,0.1138,0,0,0,0
434.59,1.1254,10.488,0.11427,0,0,0,0
435.09,1.1283,10.49,0.11468,0,0,0,0
435.59,1.1313,10.492,0.11536,0,0,0,0
436.09,1.1341,10.494,0.11548,0,0,0,0
436.59,1.1366,10.496,0.11601,0,0,0,0
437.09,1.1393,10.498,0.11666,0,0,0,0
437.59,1.1421,10.5,0.11695,0,0,0,0
438.09,1.1449,10.501,0.11742,0,0,0,0
438.59,1.1477,10.503,0.11778,0,0,0,0
439.09,1.1509,10.505,0.11839,0,0,0,0
439.59,1.1538,10.506,0.11878,0,0,0,0
440.09,1.157,10.508,0.1191,0,0,0,0
440.59,1.16,10.51,0.11963,0,0,0,0
441.09,1.1631,10.512,0.12019,0,0,0,0
441.59,1.1656,10.513,0.12063,0,0,0,0
442.09,1.1683,10.515,0.12095,0,0,0,0
442.59,1.1711,10.517,0.12151,0,0,0,0
443.09,1.1737,10.519,0.12192,0,0,0,0
443.59,1.1767,10.521,0.12251,0,0,0,0
444.09,1.1796,10.522,0.12309,0,0,0,0
444.59,1.1827,10.524,0.1235,0,0,0,0
445.09,1.1859,10.526,0.12403,0,0,0,0
445.59,1.1889,10.528,0.12464,0,0,0,0
446.09,1.1922,10.529,0.12496,0,0,0,0
446.59,1.195,10.53,0.12552,0,0,0,0
447.09,1.1977,10.532,0.1261,0,0,0,0
447.59,1.2005,10.534,0.12665,0,0,0,0
448.09,1.2032,10.535,0.12715,0,0,0,0
448.59,1.2063,10.536,0.12773,0,0,0,0
449.09,1.2091,10.538,0.12834,0,0,0,0
449.59,1.2124,10.539,0.12881,0,0,0,0
450.09,1.2154,10.541,0.12936,0,0,0,0
450.59,1.2189,10.542,0.12986,0,0,0,0
451.09,1.2219,10.543,0.13044,0,0,0,0
451.59,1.2249,10.545,0.13096,0,0,0,0
452.09,1.2278,10.546,0.13137,0,0,0,0
452.59,1.2307,10.548,0.13213,0,0,0,0
453.09,1.2334,10.549,0.1327,0,0,0,0
453.59,1.236,10.55,0.13323,0,0,0,0
454.09,1.239,10.551,0.13366,0,0,0,0
454.59,1.2424,10.552,0.13398,0,0,0,0
455.09,1.2455,10.554,0.1347,0,0,0,0
455.59,1.2489,10.555,0.13517,0,0,0,0
456.09,1.252,10.556,0.13574,0,0,0,0
456.59,1.2551,10.557,0.13635,0,0,0,0
457.09,1.258,10.558,0.13681,0,0,0,0
457.59,1.2608,10.559,0.13753,0,0,0,0
458.09,1.2636,10.56,0.13825,0,0,0,0
458.59,1.2665,10.561,0.13883,0,0,0,0
459.09,1.2694,10.562,0.13938,0,0,0,0
459.59,1.2725,10.563,0.14004,0,0,0,0
460.09,1.2756,10.564,0.14079,0,0,0,0
460.59,1.2788,10.565,0.14131,0,0,0,0
461.09,1.2822,10.566,0.14185,0,0,0,0
461.59,1.2854,10.567,0.14246,0,0,0,0
462.09,1.2881,10.568,0.14297,0,0,0,0
462.59,1.2913,10.569,0.14352,0,0,0,0
463.09,1.2943,10.57,0.14418,0,0,0,0
463.59,1.2971,10.57,0.14472,0,0,0,0
464.09,1.2999,10.571,0.14538,0,0,0,0
464.59,1.303,10.572,0.14592,0,0,0,0
465.09,1.3062,10.573,0.14661,0,0,0,0
465.59,1.3093,10.574,0.14735,0,0,0,0
466.09,1.3126,10.575,0.14795,0,0,0,0
466.59,1.316,10.575,0.14872,0,0,0,0
467.09,1.3195,10.575,0.14935,0,0,0,0
467.59,1.3224,10.576,0.15015,0,0,0,0
468.09,1.3251,10.577,0.15061,0,0,0,0
468.59,1.328,10.578,0.15115,0,0,0,0
469.09,1.3309,10.578,0.15197,0,0,0,0
469.59,1.3337,10.579,0.15249,0,0,0,0
470.09,1.337,10.579,0.15308,0,0,0,0
470.59,1.3404,10.58,0.15371,0,0,0,0
471.09,1.3438,10.581,0.15433,0,0,0,0
471.59,1.3472,10.581,0.15518,0,0,0,0
472.09,1.3506,10.581,0.15572,0,0,0,0
472.59,1.3537,10.582,0.15648,0,0,0,0
473.09,1.3565,10.582,0.15714,0,0,0,0
473.59,1.3596,10.583,0.15798,0,0,0,0
474.09,1.3623,10.583,0.15875,0,0,0,0
474.59,1.3654,10.583,0.15959,0,0,0,0
475.09,1.3684,10.583,0.16036,0,0,0,0
475.59,1.3716,10.583,0.16072,0,0,0,0
476.09,1.3751,10.584,0.16157,0,0,0,0
476.59,1.3785,10.584,0.16224,0,0,0,0
477.09,1.382,10.584,0.16292,0,0,0,0
477.59,1.3848,10.584,0.16373,0,0,0,0
478.09,1.388,10.584,0.16463,0,0,0,0
478.59,1.3912,10.585,0.16511,0,0,0,0
479.09,1.3941,10.585,0.16587,0,0,0,0
479.59,1.3971,10.585,0.16649,0,0,0,0
480.09,1.4003,10.585,0.16724,0,0,0,0
480.59,1.4036,10.585,0.16794,0,0,0,0
481.09,1.407,10.585,0.16881,0,0,0,0
481.59,1.4103,10.585,0.16979,0,0,0,0
482.09,1.4139,10.585,0.17029,0,0,0,0
482.59,1.417,10.585,0.17105,0,0,0,0
483.09,1.4201,10.585,0.17172,0,0,0,0
483.59,1.4232,10.584,0.1725,0,0,0,0
484.09,1.4262,10.584,0.17341,0,0,0,0
484.59,1.4292,10.584,0.17386,0,0,0,0
485.09,1.4324,10.584,0.17483,0,0,0,0
485.59,1.4356,10.584,0.1755,0,0,0,0
486.09,1.4391,10.583,0.17622,0,0,0,0
486.59,1.4427,10.583,0.17719,0,0,0,0
487.09,1.4461,10.583,0.17805,0,0,0,0
487.59,1.4495,10.583,0.17897,0,0,0,0
488.09,1.4525,10.582,0.1798,0,0,0,0
488.59,1.4557,10.582,0.18065,0,0,0,0
489.09,1.4589,10.581,0.18151,0,0,0,0
489.59,1.4618,10.581,0.18245,0,0,0,0
490.09,1.4652,10.58,0.18325,0,0,0,0
490.59,1.4684,10.579,0.18435,0,0,0,0
491.09,1.4718,10.579,0.18507,0,0,0,0
491.59,1.4755,10.578,0.18586,0,0,0,0
492.09,1.479,10.577,0.18672,0,0,0,0
492.59,1.4825,10.577,0.18732,0,0,0,0
493.09,1.4856,10.576,0.18836,0,0,0,0
493.59,1.4885,10.575,0.1891,0,0,0,0
494.09,1.4918,10.574,0.18993,0,0,0,0
494.59,1.4949,10.573,0.19105,0,0,0,0
495.09,1.4982,10.572,0.19209,0,0,0,0
495.59,1.5017,10.572,0.19277,0,0,0,0
496.09,1.5052,10.571,0.19364,0,0,0,0
496.59,1.5085,10.569,0.19474,0,0,0,0
497.09,1.5122,10.568,0.19563,0,0,0,0
497.59,1.5155,10.567,0.1967,0,0,0,0
498.09,1.5187,10.566,0.19748,0,0,0,0
498.59,1.5218,10.566,0.19841,0,0,0,0
499.09,1.525,10.564,0.19917,0,0,0,0
499.59,1.5281,10.563,0.20028,0,0,0,0
500.09,1.5315,10.561,0.20117,0,0,0,0
500.59,1.5349,10.56,0.20215,0,0,0,0
501.09,1.5384,10.559,0.20307,0,0,0,0
501.59,1.5419,10.558,0.2039,0,0,0,0
502.09,1.5454,10.556,0.20493,0,0,0,0
502.59,1.5489,10.554,0.20587,0,0,0,0
503.09,1.552,10.553,0.20693,0,0,0,0
503.59,1.5552,10.552,0.20789,0,0,0,0
504.09,1.5585,10.551,0.20889,0,0,0,0
504.59,1.5614,10.549,0.20978,0,0,0,0
505.09,1.565,10.548,0.21079,0,0,0,0
505.59,1.5683,10.546,0.21184,0,0,0,0
506.09,1.5719,10.544,0.21288,0,0,0,0
506.59,1.5757,10.543,0.21403,0,0,0,0
507.09,1.5791,10.541,0.21494,0,0,0,0
507.59,1.5826,10.539,0.21606,0,0,0,0
508.09,1.5857,10.537,0.21708,0,0,0,0
508.59,1.589,10.535,0.21812,0,0,0,0
509.09,1.592,10.533,0.21902,0,0,0,0
509.59,1.5952,10.531,0.22006,0,0,0,0
510.09,1.5985,10.529,0.22128,0,0,0,0
510.59,1.6021,10.527,0.22242,0,0,0,0
511.09,1.6058,10.525,0.22329,0,0,0,0
511.59,1.6092,10.523,0.22435,0,0,0,0
512.09,1.6131,10.521,0.22554,0,0,0,0
512.59,1.6164,10.519,0.22663,0,0,0,0
513.09,1.6196,10.517,0.22771,0,0,0,0
513.59,1.6228,10.514,0.22892,0,0,0,0
514.09,1.6261,10.512,0.22997,0,0,0,0
514.59,1.6293,10.51,0.23108,0,0,0,0
515.09,1.6326,10.507,0.23228,0,0,0,0
515.59,1.6359,10.505,0.2332,0,0,0,0
516.09,1.6399,10.503,0.23443,0,0,0,0
516.59,1.6436,10.501,0.23538,0,0,0,0
517.09,1.647,10.498,0.2365,0,0,0,0
517.59,1.6505,10.495,0.23773,0,0,0,0
518.09,1.6537,10.493,0.23906,0,0,0,0
518.59,1.657,10.49,0.2401,0,0,0,0
519.09,1.6604,10.487,0.24135,0,0,0,0
519.59,1.6637,10.485,0.24268,0,0,0,0
520.09,1.6669,10.481,0.24382,0,0,0,0
520.59,1.6706,10.479,0.24501,0,0,0,0
521.09,1.6744,10.475,0.2461,0,0,0,0
521.59,1.6782,10.473,0.24737,0,0,0,0
522.09,1.6818,10.47,0.2485,0,0,0,0
522.59,1.6851,10.468,0.24959,0,0,0,0
523.09,1.6886,10.465,0.2509,0,0,0,0
523.59,1.6918,10.461,0.25224,0,0,0,0
524.09,1.695,10.458,0.25337,0,0,0,0
524.59,1.6984,10.455,0.25489,0,0,0,0
525.09,1.7016,10.451,0.25599,0,0,0,0
525.59,1.7054,10.448,0.25738,0,0,0,0
526.09,1.7094,10.445,0.25866,0,0,0,0
526.59,1.7131,10.441,0.25991,0,0,0,0
527.09,1.7166,10.438,0.26134,0,0,0,0
527.59,1.7202,10.434,0.26233,0,0,0,0
528.09,1.7236,10.431,0.26365,0,0,0,0
528.59,1.7268,10.427,0.2649,0,0,0,0
529.09,1.7301,10.424,0.26637,0,0,0,0
529.59,1.7335,10.42,0.26779,0,0,0,0
530.09,1.7372,10.416,0.26914,0,0,0,0
530.59,1.7409,10.413,0.27043,0,0,0,0
531.09,1.745,10.409,0.27194,0,0,0,0
531.59,1.7486,10.405,0.2731,0,0,0,0
532.09,1.7522,10.401,0.27446,0,0,0,0
532.59,1.7557,10.397,0.27587,0,0,0,0
533.09,1.7589,10.393,0.27728,0,0,0,0
533.59,1.7623,10.389,0.27871,0,0,0,0
534.09,1.7658,10.385,0.27993,0,0,0,0
534.59,1.7692,10.38,0.28146,0,0,0,0
535.09,1.7729,10.376,0.2829,0,0,0,0
535.59,1.7768,10.371,0.28435,0,0,0,0
536.09,1.7808,10.366,0.28562,0,0,0,0
536.59,1.7843,10.362,0.28701,0,0,0,0
537.09,1.7881,10.357,0.28853,0,0,0,0
537.59,1.7911,10.353,0.28974,0,0,0,0
538.09,1.7947,10.348,0.29131,0,0,0,0
538.59,1.798,10.344,0.29279,0,0,0,0
539.09,1.8016,10.339,0.29439,0,0,0,0
539.59,1.8052,10.335,0.2957,0,0,0,0
540.09,1.809,10.329,0.29725,0,0,0,0
540.59,1.8129,10.325,0.29883,0,0,0,0
541.09,1.8166,10.319,0.30018,0,0,0,0
541.59,1.8204,10.315,0.30174,0,0,0,0
542.09,1.824,10.309,0.30348,0,0,0,0
542.59,1.8273,10.303,0.30483,0,0,0,0
543.09,1.8307,10.297,0.30629,0,0,0,0
543.59,1.8343,10.293,0.30744,0,0,0,0
544.09,1.8377,10.287,0.30929,0,0,0,0
544.59,1.8412,10.282,0.31111,0,0,0,0
545.09,1.8456,10.276,0.31261,0,0,0,0
545.59,1.8495,10.271,0.31406,0,0,0,0
546.09,1.8531,10.266,0.31602,0,0,0,0
546.59,1.8568,10.26,0.31752,0,0,0,0
547.09,1.8602,10.254,0.31903,0,0,0,0
547.59,1.8634,10.248,0.32067,0,0,0,0
548.09,1.867,10.241,0.32211,0,0,0,0
548.59,1.8704,10.236,0.32384,0,0,0,0
549.09,1.8742,10.23,0.32571,0,0,0,0
549.59,1.878,10.225,0.32714,0,0,0,0
550.09,1.882,10.219,0.32871,0,0,0,0
550.59,1.8859,10.212,0.33033,0,0,0,0
551.09,1.8897,10.205,0.3319,0,0,0,0
551.59,1.8934,10.198,0.33371,0,0,0,0
552.09,1.8968,10.192,0.33534,0,0,0,0
552.59,1.9,10.186,0.3369,0,0,0,0
553.09,1.9036,10.178,0.33865,0,0,0,0
553.59,1.907,10.172,0.34023,0,0,0,0
554.09,1.9109,10.165,0.34174,0,0,0,0
554.59,1.9152,10.159,0.34353,0,0,0,0
555.09,1.9193,10.153,0.34531,0,0,0,0
555.59,1.9232,10.146,0.34695,0,0,0,0
556.09,1.9266,10.139,0.34845,0,0,0,0
556.59,1.9304,10.132,0.35022,0,0,0,0
557.09,1.9338,10.123,0.35204,0,0,0,0
557.59,1.9373,10.115,0.35372,0,0,0,0
558.09,1.9412,10.108,0.35553,0,0,0,0
558.59,1.9449,10.101,0.35759,0,0,0,0
559.09,1.9489,10.093,0.35951,0,0,0,0
559.59,1.9528,10.085,0.36104,0,0,0,0
560.09,1.9571,10.076,0.36261,0,0,0,0
560.59,1.9606,10.069,0.3645,0,0,0,0
561.09,1.9644,10.061,0.36627,0,0,0,0
561.59,1.968,10.053,0.36773,0,0,0,0
562.09,1.9718,10.044,0.36948,0,0,0,0
562.59,1.9753,10.036,0.37138,0,0,0,0
563.09,1.979,10.027,0.37327,0,0,0,0
563.59,1.9832,10.019,0.37507,0,0,0,0
564.09,1.9871,10.011,0.37662,0,0,0,0
564.59,1.9915,10.002,0.37871,0,0,0,0
565.09,1.9953,9.9924,0.38066,0,0,0,0
565.59,1.9991,9.983,0.38265,0,0,0,0
566.09,2.0028,9.974,0.38459,0,0,0,0
566.59,2.0065,9.9646,0.38648,0,0,0,0
567.09,2.0101,9.9559,0.3883,0,0,0,0
567.59,2.0139,9.9461,0.39012,0,0,0,0
568.09,2.018,9.9366,0.39176,0,0,0,0
568.59,2.0222,9.9261,0.39316,0,0,0,0
569.09,2.0265,9.9164,0.39513,0,0,0,0
569.59,2.0303,9.906,0.39705,0,0,0,0
570.09,2.0343,9.8954,0.39938,0,0,0,0
570.59,2.0378,9.8841,0.40132,0,0,0,0
571.09,2.0415,9.8739,0.40331,0,0,0,0
571.59,2.0454,9.8629,0.40539,0,0,0,0
572.09,2.0492,9.8527,0.40733,0,0,0,0
572.59,2.0533,9.8426,0.4089,0,0,0,0
573.09,2.0576,9.8323,0.41061,0,0,0,0
573.59,2.0619,9.8199,0.41252,0,0,0,0
574.09,2.0659,9.808,0.41476,0,0,0,0
574.59,2.0702,9.7957,0.41655,0,0,0,0
575.09,2.0736,9.7843,0.41886,0,0,0,0
575.59,2.0774,9.7717,0.42115,0,0,0,0
576.09,2.0811,9.76,0.4233,0,0,0,0
576.59,2.0851,9.7467,0.42533,0,0,0,0
577.09,2.0892,9.7343,0.4276,0,0,0,0
577.59,2.0935,9.7213,0.42964,0,0,0,0
578.09,2.098,9.7091,0.43151,0,0,0,0
578.59,2.1021,9.6956,0.43366,0,0,0,0
579.09,2.1062,9.6821,0.43598,0,0,0,0
579.59,2.1099,9.6679,0.4378,0,0,0,0
580.09,2.1138,9.6539,0.44013,0,0,0,0
580.59,2.1175,9.6391,0.44275,0,0,0,0
581.09,2.1216,9.6257,0.44505,0,0,0,0
581.59,2.1257,9.6111,0.44738,0,0,0,0
582.09,2.1304,9.5957,0.44952,0,0,0,0
582.59,2.1349,9.5786,0.45172,0,0,0,0
583.09,2.1394,9.563,0.4542,0,0,0,0
583.59,2.1468,9.5441,0.45943,0,0,0,0