File: polyN_optimization/DP600_results/DATA/CH_00_3.csv
Time[s],Displacement[mm],Force[kN],AxStrain_1,AxStrain_2,Thickness[mm],OuterWidth[mm],Diameter[mm]
0.65,0,-0.016587,0,0,1.5298,20,4.9095
1.65,0.00038,-0.017705,-0.00010001,-0.00015501,0,0,0
2.65,0.0003,0.024145,9.9995e-05,4.6999e-05,0,0,0
3.65,0.000592,0.087432,4e-06,7.2997e-05,0,0,0
4.65,0.00058,0.13958,0,-3.1e-05,0,0,0
5.65,0.000798,0.19215,4.4999e-05,-0.00011101,0,0,0
6.65,0.00078,0.23529,5.9998e-05,2.4e-05,0,0,0
7.65,0.000765,0.26729,8.2997e-05,-2.4e-05,0,0,0
8.65,0.000744,0.30286,-6.2002e-05,2.6e-05,0,0,0
9.65,0.000891,0.34272,0.00021498,-0.00013601,0,0,0
10.65,0.000963,0.38029,1.3e-05,-0.00016101,0,0,0
11.65,0.000895,0.41743,-0.00014501,-0.00013601,0,0,0
12.65,0.001022,0.45615,-6.1002e-05,-0.00011901,0,0,0
13.65,0.001331,0.49244,-0.00024703,-3.3001e-05,0,0,0
14.65,0.001393,0.53143,-8.8004e-05,0.00014199,0,0,0
15.65,0.001599,0.56815,0.00015599,3.2999e-05,0,0,0
16.65,0.001549,0.60186,0.00011299,0.00024797,0,0,0
17.65,0.00148,0.63986,0.00020198,0.00011899,0,0,0
18.65,0.001579,0.68001,0.00020498,4.2999e-05,0,0,0
19.65,0.001503,0.71886,0.00024497,-4.6001e-05,0,0,0
20.65,0.001546,0.757,0.00031095,0.00024497,0,0,0
21.65,0.001705,0.79471,9.5995e-05,6.5998e-05,0,0,0
22.65,0.001957,0.83285,0.00013199,0.00017898,0,0,0
23.65,0.002049,0.87671,9.2996e-05,1e-05,0,0,0
24.65,0.002321,0.91728,0.00017898,0.00016599,0,0,0
25.65,0.00245,0.95657,0.00014599,0.00016199,0,0,0
26.65,0.002774,0.99785,0.00035394,0.00021898,0,0,0
27.65,0.002996,1.0377,0.00056584,0.00033095,0,0,0
28.65,0.002857,1.0791,0.00030095,0.00026197,0,0,0
29.65,0.002953,1.1219,0.00041391,0.00012899,0,0,0
30.65,0.002821,1.1624,0.00042391,0.00034094,0,0,0
31.65,0.00289,1.2009,0.00025797,9.2996e-05,0,0,0
32.65,0.002973,1.245,0.00028096,5.5998e-05,0,0,0
33.65,0.003234,1.287,0.00033095,0.00032095,0,0,0
34.65,0.003314,1.3269,0.00021898,0.00012299,0,0,0
35.65,0.0039,1.3686,0.00028496,0.00011599,0,0,0
36.65,0.004241,1.4084,0.00018898,0.00031495,0,0,0
37.65,0.004324,1.4501,0.00036393,0.00026197,0,0,0
38.65,0.004181,1.4933,0.00053286,0.00058583,0,0,0
39.65,0.004247,1.5339,0.00058883,0.00039092,0,0,0
40.65,0.00435,1.5716,0.00038693,0.00032095,0,0,0
41.65,0.004271,1.6143,0.00060282,0.00042691,0,0,0
42.65,0.004413,1.656,0.00031095,0.00032095,0,0,0
43.65,0.004473,1.6956,0.00035794,0.00036393,0,0,0
44.65,0.004827,1.7366,0.00028796,0.00041691,0,0,0
45.65,0.005393,1.7764,0.00032795,0.00024497,0,0,0
46.65,0.005363,1.8177,0.00026496,0.00052986,0,0,0
47.65,0.005896,1.8601,0.00045989,0.00056584,0,0,0
48.65,0.005638,1.9001,0.00067877,0.00031095,0,0,0
49.65,0.005694,1.9376,0.00060582,0.00041991,0,0,0
50.65,0.005522,1.9803,0.00081367,0.00049688,0,0,0
51.65,0.005615,2.021,0.00073173,0.00056284,0,0,0
52.65,0.005373,2.0596,0.00074472,0.00055285,0,0,0
53.65,0.005784,2.0999,0.0004439,0.00056884,0,0,0
54.65,0.006254,2.1391,0.00053286,0.0004499,0,0,0
55.65,0.006575,2.1799,0.00040392,0.00061181,0,0,0
56.65,0.00721,2.2216,0.00065179,0.00064179,0,0,0
57.65,0.007346,2.2607,0.00062181,0.00073173,0,0,0
58.65,0.007508,2.2979,0.00068477,0.00074172,0,0,0
59.65,0.007081,2.3396,0.00086363,0.00067177,0,0,0
60.65,0.006975,2.3796,0.00074172,0.00064879,0,0,0
61.65,0.006899,2.4179,0.00065578,0.00055884,0,0,0
62.65,0.006863,2.4586,0.00058283,0.00061881,0,0,0
63.65,0.007009,2.4981,0.00061181,0.00057583,0,0,0
64.65,0.006916,2.5391,0.00061181,0.00053985,0,0,0
65.65,0.007654,2.5811,0.0006288,0.00060881,0,0,0
66.65,0.008137,2.6211,0.0006358,0.00066478,0,0,0
67.65,0.009044,2.6586,0.00069176,0.00071474,0,0,0
68.65,0.00919,2.701,0.00066478,0.00056584,0,0,0
69.65,0.008879,2.7413,0.0008996,0.00057583,0,0,0
70.65,0.008627,2.7799,0.00094955,0.00072774,0,0,0
71.65,0.008349,2.8209,0.00071774,0.0007707,0,0,0
72.65,0.008124,2.8607,0.00067177,0.00065878,0,0,0
73.65,0.008161,2.9014,0.00062181,0.00061881,0,0,0
74.65,0.008402,2.9443,0.00061881,0.00071175,0,0,0
75.65,0.00874,2.9841,0.00058583,0.00059582,0,0,0
76.65,0.009548,3.0216,0.00047988,0.00070175,0,0,0
77.65,0.010216,3.0643,0.00067477,0.00061581,0,0,0
78.65,0.010501,3.105,0.00071474,0.00082066,0,0,0
79.65,0.010276,3.1429,0.00083765,0.00080368,0,0,0
80.65,0.009889,3.1829,0.00090359,0.00085364,0,0,0
81.65,0.009736,3.2221,0.00092657,0.00093656,0,0,0
82.65,0.009733,3.2624,0.00079768,0.00065479,0,0,0
83.65,0.009574,3.3039,0.00091958,0.00083365,0,0,0
84.65,0.00969,3.3424,0.00068876,0.00054985,0,0,0
85.65,0.010001,3.3793,0.00059882,0.00075472,0,0,0
86.65,0.011031,3.421,0.00079468,0.00070175,0,0,0
87.65,0.011713,3.4613,0.00073173,0.00071774,0,0,0
88.65,0.011759,3.4999,0.00092357,0.0010425,0,0,0
89.65,0.01208,3.5396,0.0012972,0.0011843,0,0,0
90.65,0.012017,3.5781,0.00094355,0.00096254,0,0,0
91.65,0.011431,3.6177,0.0010984,0.00085663,0,0,0
92.65,0.01114,3.6589,0.0010684,0.00086662,0,0,0
93.65,0.011021,3.6974,0.0010954,0.00098252,0,0,0
94.65,0.011196,3.7336,0.00085663,0.00082066,0,0,0
95.65,0.011825,3.7746,0.00084065,0.00086363,0,0,0
96.65,0.012279,3.8143,0.00086363,0.00073473,0,0,0
97.65,0.013007,3.8516,0.00092357,0.00068177,0,0,0
98.65,0.013669,3.8913,0.0010554,0.0010684,0,0,0
99.65,0.013709,3.9294,0.0012502,0.0012043,0,0,0
100.65,0.013845,3.9687,0.0011483,0.00087062,0,0,0
101.65,0.013249,4.0096,0.001426,0.00095954,0,0,0
102.65,0.013106,4.0471,0.0011913,0.0011973,0,0,0
103.65,0.012653,4.0826,0.00098252,0.00082766,0,0,0
104.65,0.012789,4.1233,0.0011314,0.00086662,0,0,0
105.65,0.013457,4.162,0.00092357,0.00094655,0,0,0
106.65,0.013782,4.1993,0.0010025,0.0008966,0,0,0
107.65,0.014901,4.2386,0.0010055,0.00093656,0,0,0
108.65,0.015629,4.2764,0.0010914,0.0012073,0,0,0
109.65,0.015838,4.3161,0.0012243,0.0013531,0,0,0
110.65,0.015573,4.3559,0.0014889,0.0013231,0,0,0
111.65,0.015387,4.3934,0.001389,0.0013561,0,0,0
112.65,0.01503,4.4296,0.0014559,0.0012572,0,0,0
113.65,0.014599,4.4703,0.0015218,0.0011913,0,0,0
114.65,0.014301,4.5093,0.0014559,0.0012243,0,0,0
115.65,0.015228,4.5466,0.0010584,0.0011583,0,0,0
116.65,0.015692,4.5856,0.0012902,0.0012243,0,0,0
117.65,0.016685,4.6234,0.0013231,0.0012902,0,0,0
118.65,0.01748,4.6617,0.001423,0.001389,0,0,0
119.65,0.017678,4.7011,0.0016536,0.0016207,0,0,0
120.65,0.017612,4.7387,0.0018193,0.0015877,0,0,0
121.65,0.017314,4.7736,0.0018193,0.0017195,0,0,0
122.65,0.017082,4.8133,0.0017535,0.0014889,0,0,0
123.65,0.016553,4.8516,0.001389,0.001423,0,0,0
124.65,0.016652,4.8879,0.0015877,0.0013561,0,0,0
125.65,0.01695,4.9266,0.0014559,0.0014889,0,0,0
126.65,0.017513,4.9634,0.0015218,0.0012902,0,0,0
127.65,0.018274,5.0007,0.0015218,0.0015218,0,0,0
128.65,0.019069,5.0399,0.0016207,0.0015218,0,0,0
129.65,0.019731,5.0764,0.0017864,0.0017864,0,0,0
130.65,0.019896,5.1109,0.0017535,0.0018852,0,0,0
131.65,0.019532,5.1506,0.0020509,0.0018193,0,0,0
132.65,0.0193,5.189,0.002017,0.0017195,0,0,0
133.65,0.018771,5.2253,0.0017205,0.0016536,0,0,0
134.65,0.018671,5.2636,0.0018193,0.0016536,0,0,0
135.65,0.019035,5.3007,0.0017864,0.0015218,0,0,0
136.65,0.019168,5.3391,0.0017864,0.0015548,0,0,0
137.65,0.020161,5.3786,0.0015548,0.0016536,0,0,0
138.65,0.021055,5.4157,0.0016866,0.0018193,0,0,0
139.65,0.021684,5.4509,0.0017535,0.0019511,0,0,0
140.65,0.021883,5.491,0.002017,0.0021168,0,0,0
141.65,0.021717,5.5293,0.0022155,0.0022485,0,0,0
142.65,0.021518,5.5666,0.0019182,0.002017,0,0,0
143.65,0.021121,5.6049,0.0019511,0.0018852,0,0,0
144.65,0.020856,5.6417,0.0019511,0.0018193,0,0,0
145.65,0.020956,5.6801,0.0017864,0.0017195,0,0,0
146.65,0.021518,5.7196,0.0016536,0.0019182,0,0,0
147.65,0.022578,5.7564,0.0017535,0.0017195,0,0,0
148.65,0.023306,5.7911,0.0018852,0.0019511,0,0,0
149.65,0.023803,5.8323,0.002017,0.0020838,0,0,0
150.65,0.024134,5.8706,0.0023812,0.0023143,0,0,0
151.65,0.024233,5.9064,0.0024141,0.0024799,0,0,0
152.65,0.024134,5.9449,0.0024141,0.0023143,0,0,0
153.65,0.023803,5.9817,0.0023812,0.0022485,0,0,0
154.65,0.023703,6.02,0.0022814,0.0019511,0,0,0
155.65,0.023869,6.0591,0.0022814,0.002017,0,0,0
156.65,0.024266,6.0961,0.0020509,0.0018523,0,0,0
157.65,0.024928,6.1311,0.0022814,0.0022485,0,0,0
158.65,0.025921,6.1713,0.0021497,0.0021168,0,0,0
159.65,0.026252,6.2086,0.0022814,0.0023812,0,0,0
160.65,0.026716,6.2453,0.0027771,0.0026445,0,0,0
161.65,0.026881,6.2846,0.0031401,0.00281,0,0,0
162.65,0.026848,6.3204,0.0029088,0.0026445,0,0,0
163.65,0.02655,6.3597,0.0027113,0.0026784,0,0,0
164.65,0.026848,6.3953,0.0027113,0.0023812,0,0,0
165.65,0.027014,6.4326,0.0026116,0.0024799,0,0,0
166.65,0.027411,6.4711,0.0027113,0.002447,0,0,0
167.65,0.028007,6.5081,0.0025787,0.0025128,0,0,0
168.65,0.028835,6.5471,0.0027442,0.0025787,0,0,0
169.65,0.029232,6.5816,0.0030085,0.0027442,0,0,0
170.65,0.029695,6.6174,0.0032387,0.003173,0,0,0
171.65,0.029861,6.656,0.0033384,0.0034371,0,0,0
172.65,0.030225,6.693,0.0036015,0.0034042,0,0,0
173.65,0.030225,6.7284,0.00347,0.0030743,0,0,0
174.65,0.030424,6.7651,0.0032716,0.003173,0,0,0
175.65,0.030688,6.8001,0.0030414,0.002843,0,0,0
176.65,0.031119,6.8371,0.0029746,0.0029417,0,0,0
177.65,0.031582,6.8754,0.0030414,0.0030085,0,0,0
178.65,0.032377,6.9096,0.0031072,0.0033713,0,0,0
179.65,0.032476,6.944,0.0033713,0.0033713,0,0,0
180.65,0.032774,6.9791,0.0036354,0.0035686,0,0,0
181.65,0.033006,7.019,0.0040637,0.0038994,0,0,0
182.65,0.033569,7.0554,0.0039313,0.0040637,0,0,0
183.65,0.033834,7.0886,0.0039651,0.003734,0,0,0
184.65,0.034297,7.1256,0.0038655,0.003734,0,0,0
185.65,0.034827,7.1631,0.0038984,0.0037011,0,0,0
186.65,0.035389,7.1979,0.0036354,0.0036354,0,0,0
187.65,0.03572,7.2336,0.0036683,0.003734,0,0,0
188.65,0.036018,7.268,0.0038984,0.0038326,0,0,0
189.65,0.036383,7.3029,0.0041623,0.0040637,0,0,0
190.65,0.036879,7.339,0.0047228,0.0044262,0,0,0
191.65,0.037045,7.3744,0.004888,0.0050522,0,0,0
192.65,0.037674,7.4069,0.0050522,0.0049537,0,0,0
193.65,0.038435,7.4429,0.0051507,0.0048214,0,0,0
194.65,0.038965,7.4799,0.0047885,0.0046243,0,0,0
195.65,0.040024,7.5136,0.0048552,0.0045576,0,0,0
196.65,0.040752,7.5486,0.0048214,0.0043933,0,0,0
197.65,0.041481,7.582,0.00469,0.0045247,0,0,0
198.65,0.041514,7.6159,0.0048542,0.0046243,0,0,0
199.65,0.041713,7.652,0.0050522,0.0049537,0,0,0
200.65,0.041977,7.6877,0.0055466,0.0053815,0,0,0
201.65,0.042441,7.7201,0.0061391,0.0060725,0,0,0
202.65,0.042805,7.7549,0.0062375,0.0063359,0,0,0
203.65,0.043964,7.7909,0.0062047,0.0061391,0,0,0
204.65,0.045255,7.8234,0.0059413,0.0058101,0,0,0
205.65,0.046347,7.8579,0.005645,0.0055466,0,0,0
206.65,0.047109,7.8911,0.0057763,0.00548,0,0,0
207.65,0.047771,7.9236,0.0057435,0.0056779,0,0,0
208.65,0.047903,7.9587,0.0060069,0.0057435,0,0,0
209.65,0.047903,7.9927,0.0061391,0.0060397,0,0,0
210.65,0.048168,8.0239,0.0065992,0.0068296,0,0,0
211.65,0.048499,8.0579,0.0070928,0.0071911,0,0,0
212.65,0.04936,8.0929,0.0079136,0.0076517,0,0,0
213.65,0.050519,8.1241,0.0075524,0.0077171,0,0,0
214.65,0.052174,8.1576,0.0076844,0.0072894,0,0,0
215.65,0.053498,8.189,0.0072566,0.0069935,0,0,0
216.65,0.054293,8.2209,0.0072566,0.0070273,0,0,0
217.65,0.055087,8.255,0.0072894,0.0070263,0,0,0
218.65,0.05565,8.2884,0.0073221,0.0072894,0,0,0
219.65,0.056014,8.3186,0.0078809,0.0075852,0,0,0
220.65,0.056577,8.3509,0.0086366,0.0081765,0,0,0
221.65,0.057073,8.3849,0.0090955,0.0088002,0,0,0
222.65,0.057868,8.4159,0.0095879,0.00926,0,0,0
223.65,0.059755,8.4479,0.0096206,0.0096206,0,0,0
224.65,0.061013,8.479,0.0094888,0.0092927,0,0,0
225.65,0.062172,8.5101,0.0090955,0.0089974,0,0,0
226.65,0.06333,8.5433,0.0088983,0.0088656,0,0,0
227.65,0.064059,8.5753,0.0088656,0.0087347,0,0,0
228.65,0.065085,8.6041,0.0090628,0.0091609,0,0,0
229.65,0.065979,8.6359,0.009784,0.0095552,0,0,0
230.65,0.067204,8.6681,0.010374,0.010309,0,0,0
231.65,0.06876,8.6971,0.011094,0.011029,0,0,0
232.65,0.069886,8.7281,0.011618,0.011586,0,0,0
233.65,0.070945,8.758,0.011848,0.011848,0,0,0
234.65,0.071773,8.7871,0.011782,0.011782,0,0,0
235.65,0.072799,8.8183,0.011389,0.011423,0,0,0
236.65,0.073726,8.8483,0.011226,0.011193,0,0,0
237.65,0.074653,8.8761,0.011324,0.011258,0,0,0
238.65,0.076076,8.9064,0.011683,0.01152,0,0,0
239.65,0.077765,8.9374,0.012436,0.012077,0,0,0
240.65,0.079486,8.9654,0.01309,0.012763,0,0,0
241.65,0.081572,8.9949,0.013743,0.01358,0,0,0
242.65,0.083094,9.0227,0.0142,0.014103,0,0,0
243.65,0.084021,9.0511,0.014493,0.014592,0,0,0
244.65,0.084915,9.081,0.014461,0.014462,0,0,0
245.65,0.085875,9.11,0.014363,0.014331,0,0,0
246.65,0.086769,9.1371,0.014167,0.014266,0,0,0
247.65,0.088292,9.1654,0.01407,0.014102,0,0,0
248.65,0.089947,9.1959,0.014396,0.014298,0,0,0
249.65,0.092066,9.2229,0.014983,0.014788,0,0,0
250.65,0.093655,9.2504,0.015635,0.015408,0,0,0
251.65,0.095277,9.278,0.016352,0.016092,0,0,0
252.65,0.096899,9.3063,0.017036,0.016678,0,0,0
253.65,0.098224,9.3354,0.017328,0.017199,0,0,0
254.65,0.09978,9.3626,0.017524,0.017556,0,0,0
255.65,0.10143,9.3881,0.017556,0.017263,0,0,0
256.65,0.10306,9.4164,0.017784,0.017394,0,0,0
257.65,0.10521,9.4434,0.017654,0.017329,0,0,0
258.65,0.10696,9.4691,0.018012,0.017459,0,0,0
259.65,0.10832,9.4964,0.018369,0.017784,0,0,0
260.65,0.10941,9.523,0.018954,0.018466,0,0,0
261.65,0.11067,9.5493,0.019701,0.019182,0,0,0
262.65,0.11206,9.5771,0.02022,0.019928,0,0,0
263.65,0.11388,9.6026,0.020836,0.020351,0,0,0
264.65,0.11597,9.6271,0.021096,0.020707,0,0,0
265.65,0.11839,9.6547,0.021161,0.020966,0,0,0
266.65,0.12067,9.6807,0.021388,0.020901,0,0,0
267.65,0.12262,9.7054,0.021452,0.020999,0,0,0
268.65,0.12434,9.7311,0.021647,0.021096,0,0,0
269.65,0.12616,9.7556,0.022262,0.02155,0,0,0
270.65,0.12756,9.7816,0.02252,0.021874,0,0,0
271.65,0.12928,9.8077,0.023265,0.022554,0,0,0
272.65,0.13116,9.8323,0.023685,0.02304,0,0,0
273.65,0.13348,9.8556,0.024396,0.023654,0,0,0
274.65,0.13567,9.8814,0.024655,0.024009,0,0,0
275.65,0.13732,9.9064,0.024945,0.024397,0,0,0
276.65,0.13875,9.9301,0.025204,0.024494,0,0,0
277.65,0.14053,9.9547,0.025623,0.024656,0,0,0
278.65,0.14222,9.9786,0.025785,0.024784,0,0,0
279.65,0.14454,10.003,0.026301,0.025269,0,0,0
280.65,0.14705,10.028,0.026623,0.025786,0,0,0
281.65,0.14937,10.051,0.026978,0.026108,0,0,0
282.65,0.15212,10.073,0.027332,0.026592,0,0,0
283.65,0.15397,10.099,0.027848,0.027205,0,0,0
284.65,0.15593,10.122,0.028394,0.027397,0,0,0
285.65,0.15732,10.144,0.028813,0.02772,0,0,0
286.65,0.15927,10.168,0.029005,0.028267,0,0,0
287.65,0.16083,10.192,0.029488,0.028364,0,0,0
288.65,0.16341,10.215,0.029938,0.028814,0,0,0
289.65,0.16556,10.239,0.030356,0.029039,0,0,0
290.65,0.16795,10.261,0.030613,0.029457,0,0,0
291.65,0.16977,10.282,0.03103,0.029843,0,0,0
292.65,0.17152,10.306,0.031286,0.0301,0,0,0
293.65,0.17314,10.329,0.031639,0.030582,0,0,0
294.65,0.17553,10.351,0.032473,0.031191,0,0,0
295.65,0.17818,10.373,0.032889,0.031577,0,0,0
296.65,0.18082,10.395,0.033434,0.03193,0,0,0
297.65,0.18384,10.418,0.033818,0.032249,0,0,0
298.65,0.18592,10.441,0.03433,0.032603,0,0,0
299.65,0.18788,10.462,0.03465,0.032955,0,0,0
300.65,0.1898,10.483,0.035193,0.033274,0,0,0
301.65,0.19138,10.506,0.035416,0.033979,0,0,0
302.65,0.19384,10.528,0.03612,0.034332,0,0,0
303.65,0.19612,10.548,0.036215,0.034523,0,0,0
304.65,0.19877,10.57,0.036758,0.035067,0,0,0
305.65,0.20112,10.591,0.037428,0.035547,0,0,0
306.65,0.20344,10.613,0.037683,0.035897,0,0,0
307.65,0.20519,10.634,0.038129,0.036344,0,0,0
308.65,0.20724,10.655,0.038702,0.036823,0,0,0
309.65,0.20943,10.674,0.039149,0.037174,0,0,0
310.65,0.21234,10.696,0.03969,0.037525,0,0,0
311.65,0.21525,10.716,0.039976,0.037684,0,0,0
312.65,0.2179,10.736,0.040453,0.038449,0,0,0
313.65,0.22052,10.757,0.040866,0.038991,0,0,0
314.65,0.22244,10.777,0.041406,0.0395,0,0,0
315.65,0.22446,10.798,0.041851,0.03985,0,0,0
316.65,0.22661,10.818,0.042454,0.040327,0,0,0
317.65,0.22879,10.836,0.042834,0.040741,0,0,0
318.65,0.23151,10.857,0.043215,0.040836,0,0,0
319.65,0.23432,10.876,0.043627,0.041599,0,0,0
320.65,0.23664,10.894,0.044229,0.041694,0,0,0
321.65,0.23849,10.914,0.044704,0.042233,0,0,0
322.65,0.24078,10.934,0.045305,0.042963,0,0,0
323.64,0.2427,10.953,0.045843,0.043502,0,0,0
324.65,0.24521,10.973,0.04657,0.044104,0,0,0
325.65,0.24793,10.991,0.046981,0.044294,0,0,0
326.65,0.25124,11.01,0.047423,0.044801,0,0,0
327.65,0.25386,11.029,0.04777,0.045086,0,0,0
328.65,0.25644,11.048,0.047959,0.04537,0,0,0
329.65,0.25853,11.066,0.048464,0.046035,0,0,0
330.65,0.26054,11.084,0.048874,0.046287,0,0,0
331.65,0.26303,11.103,0.049567,0.046825,0,0,0
332.65,0.26548,11.122,0.050103,0.047394,0,0,0
333.65,0.26813,11.14,0.050732,0.048057,0,0,0
334.65,0.27117,11.159,0.051267,0.048656,0,0,0
335.64,0.27322,11.177,0.051739,0.049223,0,0,0
336.65,0.27538,11.195,0.051991,0.049318,0,0,0
337.65,0.27763,11.213,0.052588,0.049664,0,0,0
338.65,0.28008,11.231,0.052619,0.050043,0,0,0
339.64,0.28253,11.249,0.053372,0.050295,0,0,0
340.64,0.2858,11.267,0.053623,0.050829,0,0,0
341.65,0.28915,11.285,0.054282,0.051459,0,0,0
342.64,0.29147,11.303,0.055003,0.05215,0,0,0
343.65,0.29425,11.321,0.055441,0.052747,0,0,0
344.64,0.29637,11.337,0.056067,0.053406,0,0,0
345.64,0.29891,11.355,0.056694,0.05372,0,0,0
346.65,0.30179,11.372,0.057163,0.054253,0,0,0
347.64,0.30471,11.389,0.057601,0.054504,0,0,0
348.65,0.30789,11.406,0.058069,0.054911,0,0,0
349.64,0.3106,11.424,0.058631,0.055256,0,0,0
350.64,0.31289,11.441,0.058943,0.055569,0,0,0
351.64,0.31487,11.458,0.059443,0.056164,0,0,0
352.64,0.31699,11.474,0.060035,0.056665,0,0,0
353.65,0.31924,11.491,0.060564,0.057353,0,0,0
354.64,0.32242,11.507,0.061374,0.057915,0,0,0
355.64,0.32583,11.523,0.061655,0.058477,0,0,0
356.65,0.32854,11.539,0.062526,0.058977,0,0,0
357.64,0.33129,11.555,0.062868,0.059133,0,0,0
358.64,0.33354,11.572,0.063427,0.059851,0,0,0
359.64,0.33599,11.588,0.063986,0.060162,0,0,0
360.64,0.33874,11.604,0.064452,0.060505,0,0,0
361.64,0.34202,11.621,0.064732,0.061036,0,0,0
362.64,0.34513,11.636,0.065104,0.06172,0,0,0
363.64,0.34824,11.652,0.065755,0.062436,0,0,0
364.64,0.35063,11.668,0.066313,0.062778,0,0,0
365.65,0.35328,11.683,0.066994,0.063462,0,0,0
366.65,0.35543,11.698,0.067397,0.063989,0,0,0
367.64,0.35788,11.714,0.068139,0.064394,0,0,0
368.65,0.36053,11.73,0.068603,0.065045,0,0,0
369.65,0.36377,11.745,0.068788,0.065076,0,0,0
370.64,0.36649,11.76,0.069344,0.065697,0,0,0
371.64,0.3694,11.775,0.069622,0.066192,0,0,0
372.64,0.37158,11.791,0.07024,0.066533,0,0,0
373.64,0.37403,11.806,0.070919,0.06737,0,0,0
374.64,0.37655,11.82,0.071535,0.068019,0,0,0
375.64,0.37979,11.836,0.072182,0.068575,0,0,0
376.64,0.3831,11.851,0.072798,0.069256,0,0,0
377.64,0.38648,11.866,0.073136,0.069564,0,0,0
378.64,0.38926,11.881,0.073659,0.07012,0,0,0
379.64,0.39185,11.895,0.074428,0.070274,0,0,0
380.64,0.3942,11.91,0.074766,0.070645,0,0,0
381.64,0.39737,11.924,0.07538,0.071292,0,0,0
382.64,0.40015,11.939,0.076239,0.072094,0,0,0
383.64,0.40409,11.954,0.076638,0.072709,0,0,0
384.65,0.40558,11.968,0.07768,0.073387,0,0,0
385.64,0.40866,11.982,0.078047,0.073756,0,0,0
386.64,0.41161,11.996,0.078783,0.074217,0,0,0
387.64,0.41327,12.011,0.079026,0.074771,0,0,0
388.64,0.41601,12.025,0.079516,0.0752,0,0,0
389.64,0.41942,12.038,0.079913,0.075815,0,0,0
390.64,0.42297,12.052,0.080677,0.075999,0,0,0
391.64,0.42595,12.066,0.081166,0.076612,0,0,0
392.64,0.42873,12.079,0.082051,0.077348,0,0,0
393.64,0.43167,12.093,0.082752,0.078053,0,0,0
394.64,0.43426,12.107,0.083391,0.078696,0,0,0
395.64,0.4371,12.121,0.084092,0.079216,0,0,0
396.64,0.44048,12.135,0.084335,0.079889,0,0,0
397.64,0.44419,12.148,0.084761,0.080286,0,0,0
398.64,0.44733,12.162,0.085157,0.080896,0,0,0
399.64,0.45005,12.176,0.085552,0.081415,0,0,0
400.64,0.45266,12.189,0.086037,0.081567,0,0,0
401.64,0.45534,12.201,0.086767,0.082269,0,0,0
402.64,0.45773,12.215,0.087465,0.082908,0,0,0
403.64,0.46077,12.228,0.088132,0.083518,0,0,0
404.64,0.46405,12.24,0.088828,0.084006,0,0,0
405.64,0.46723,12.254,0.089162,0.084676,0,0,0
406.64,0.47008,12.267,0.089798,0.085132,0,0,0
407.64,0.47259,12.281,0.09004,0.085769,0,0,0
408.64,0.47531,12.293,0.090403,0.086257,0,0,0
409.64,0.47792,12.307,0.091189,0.086893,0,0,0
410.64,0.4818,12.32,0.091733,0.087257,0,0,0
411.64,0.48524,12.332,0.092155,0.087864,0,0,0
412.64,0.48885,12.346,0.09276,0.088258,0,0,0
413.64,0.49163,12.358,0.093423,0.088894,0,0,0
414.64,0.49438,12.37,0.093845,0.0895,0,0,0
415.64,0.49702,12.384,0.094537,0.090197,0,0,0
416.64,0.50017,12.397,0.09529,0.09065,0,0,0
417.64,0.50384,12.409,0.095953,0.091315,0,0,0
418.64,0.50716,12.422,0.096554,0.091768,0,0,0
419.64,0.5107,12.434,0.097185,0.092373,0,0,0
420.64,0.51338,12.446,0.097905,0.092855,0,0,0
421.64,0.51573,12.459,0.098235,0.093519,0,0,0
422.64,0.51838,12.471,0.099136,0.094061,0,0,0
423.64,0.52142,12.483,0.099525,0.094332,0,0,0
424.64,0.52497,12.496,0.10015,0.095086,0,0,0
425.64,0.52851,12.508,0.10087,0.095627,0,0,0
426.64,0.53159,12.52,0.10153,0.096289,0,0,0
427.64,0.53434,12.532,0.10222,0.096921,0,0,0
428.64,0.53728,12.544,0.10305,0.097641,0,0,0
429.64,0.54033,12.556,0.10368,0.098272,0,0,0
430.64,0.54357,12.568,0.10404,0.099082,0,0,0
431.64,0.54721,12.58,0.10493,0.099472,0,0,0
432.64,0.55119,12.591,0.1055,0.09995,0,0,0
433.64,0.55427,12.604,0.10628,0.1004,0,0,0
434.64,0.55711,12.616,0.1066,0.10094,0,0,0
435.64,0.56013,12.626,0.10758,0.10166,0,0,0
436.64,0.56314,12.638,0.10812,0.1024,0,0,0
437.64,0.56642,12.649,0.10883,0.10288,0,0,0
438.64,0.56993,12.66,0.10943,0.10348,0,0,0
439.64,0.5735,12.673,0.11026,0.10402,0,0,0
440.64,0.57661,12.683,0.11067,0.10441,0,0,0
441.64,0.57896,12.695,0.11156,0.10524,0,0,0
442.64,0.58174,12.707,0.11206,0.10563,0,0,0
443.64,0.58466,12.718,0.11274,0.10628,0,0,0
444.64,0.58803,12.729,0.11351,0.107,0,0,0
445.64,0.59151,12.741,0.11366,0.10771,0,0,0
446.64,0.59519,12.751,0.11463,0.10831,0,0,0
447.64,0.59816,12.762,0.11502,0.10902,0,0,0
448.64,0.60111,12.774,0.1159,0.10923,0,0,0
449.64,0.60393,12.785,0.11637,0.11003,0,0,0
450.64,0.60717,12.796,0.11714,0.11068,0,0,0
451.64,0.61104,12.808,0.11779,0.11112,0,0,0
452.64,0.61492,12.819,0.11867,0.11189,0,0,0
453.64,0.61849,12.83,0.11905,0.11272,0,0,0
454.64,0.6216,12.841,0.11985,0.11322,0,0,0
455.64,0.62452,12.851,0.12026,0.11399,0,0,0
456.64,0.62753,12.862,0.1209,0.11449,0,0,0
457.64,0.63094,12.874,0.12167,0.11526,0,0,0
458.64,0.63438,12.885,0.12205,0.11588,0,0,0
459.64,0.63826,12.895,0.12284,0.1165,0,0,0
460.64,0.6415,12.906,0.12366,0.11721,0,0,0
461.64,0.64428,12.917,0.12453,0.11771,0,0,0
462.64,0.6468,12.927,0.12529,0.11841,0,0,0
463.64,0.65004,12.938,0.12591,0.11912,0,0,0
464.64,0.65339,12.948,0.12675,0.12003,0,0,0
465.64,0.65736,12.958,0.12716,0.12041,0,0,0
466.64,0.66077,12.97,0.12812,0.12103,0,0,0
467.64,0.66411,12.98,0.12856,0.12179,0,0,0
468.64,0.66716,12.99,0.12937,0.12255,0,0,0
469.64,0.6703,13.001,0.12993,0.12329,0,0,0
470.64,0.67348,13.011,0.13068,0.12396,0,0,0
471.64,0.67719,13.021,0.13144,0.12484,0,0,0
472.64,0.68153,13.031,0.13234,0.1256,0,0,0
473.64,0.68517,13.041,0.13321,0.12612,0,0,0
474.64,0.68845,13.052,0.13396,0.1265,0,0,0
475.64,0.69146,13.063,0.13463,0.12735,0,0,0
476.64,0.69484,13.073,0.13549,0.12801,0,0,0
477.64,0.69818,13.083,0.13616,0.12877,0,0,0
478.64,0.70209,13.093,0.13688,0.12967,0,0,0
479.64,0.70586,13.103,0.13757,0.13055,0,0,0
480.64,0.70914,13.112,0.13821,0.13119,0,0,0
481.64,0.71215,13.123,0.13904,0.13185,0,0,0
482.64,0.71506,13.132,0.14008,0.13255,0,0,0
483.64,0.71818,13.142,0.14065,0.13324,0,0,0
484.64,0.72179,13.152,0.14155,0.1338,0,0,0
485.64,0.72566,13.163,0.14229,0.13472,0,0,0
486.64,0.72933,13.173,0.14321,0.13542,0,0,0
487.64,0.73258,13.182,0.1441,0.13617,0,0,0
488.64,0.73576,13.191,0.14479,0.13709,0,0,0
489.64,0.73897,13.201,0.1455,0.13784,0,0,0
490.64,0.74248,13.211,0.14619,0.13859,0,0,0
491.64,0.74645,13.22,0.1471,0.13945,0,0,0
492.64,0.75052,13.23,0.1477,0.14009,0,0,0
493.64,0.7543,13.24,0.14853,0.14104,0,0,0
494.64,0.75761,13.249,0.14905,0.14167,0,0,0
495.64,0.76078,13.26,0.14996,0.14242,0,0,0
496.64,0.76433,13.269,0.15053,0.14313,0,0,0
497.64,0.76803,13.278,0.15121,0.14379,0,0,0
498.64,0.77214,13.287,0.15235,0.14445,0,0,0
499.64,0.77598,13.296,0.15312,0.14528,0,0,0
500.64,0.77922,13.305,0.15425,0.14611,0,0,0
501.64,0.78243,13.315,0.15499,0.14703,0,0,0
502.64,0.78555,13.323,0.15592,0.14777,0,0,0
503.64,0.78902,13.333,0.15629,0.14888,0,0,0
504.64,0.79266,13.343,0.15717,0.14948,0,0,0
505.64,0.79667,13.351,0.15768,0.15008,0,0,0
506.64,0.80011,13.36,0.15858,0.15045,0,0,0
507.64,0.80352,13.37,0.15932,0.15122,0,0,0
508.64,0.8066,13.378,0.16002,0.15196,0,0,0
509.64,0.80971,13.387,0.16115,0.15273,0,0,0
510.64,0.81366,13.396,0.16222,0.15358,0,0,0
511.64,0.81756,13.405,0.16292,0.15463,0,0,0
512.64,0.8218,13.414,0.16374,0.15542,0,0,0
513.64,0.82521,13.423,0.16483,0.15628,0,0,0
514.64,0.82892,13.431,0.16551,0.15701,0,0,0
515.64,0.8321,13.44,0.16638,0.15772,0,0,0
516.64,0.8356,13.449,0.16733,0.15868,0,0,0
517.64,0.83984,13.458,0.16825,0.15939,0,0,0
518.64,0.84381,13.467,0.1689,0.16029,0,0,0
519.64,0.84779,13.476,0.16965,0.16111,0,0,0
520.64,0.85123,13.484,0.17052,0.16206,0,0,0
521.64,0.85451,13.493,0.17135,0.16277,0,0,0
522.64,0.85759,13.502,0.17174,0.16361,0,0,0
523.64,0.86202,13.51,0.17291,0.16442,0,0,0
524.64,0.86573,13.518,0.17397,0.16518,0,0,0
525.64,0.86997,13.527,0.17492,0.16625,0,0,0
526.64,0.87338,13.535,0.17633,0.16695,0,0,0
527.64,0.87665,13.544,0.17683,0.16793,0,0,0
528.64,0.8799,13.553,0.17756,0.16885,0,0,0
529.64,0.88338,13.561,0.17814,0.1698,0,0,0
530.64,0.88761,13.57,0.17891,0.17075,0,0,0
531.64,0.89145,13.578,0.17988,0.17126,0,0,0
532.64,0.89543,13.586,0.18082,0.17218,0,0,0
533.64,0.89887,13.594,0.18198,0.17298,0,0,0
534.64,0.90225,13.603,0.18303,0.17396,0,0,0
535.64,0.90599,13.611,0.18424,0.17457,0,0,0
536.64,0.90989,13.619,0.18476,0.17551,0,0,0
537.64,0.91443,13.627,0.18556,0.17663,0,0,0
538.64,0.91837,13.636,0.18636,0.17768,0,0,0
539.64,0.92224,13.644,0.18727,0.17854,0,0,0
540.64,0.92558,13.652,0.18825,0.17909,0,0,0
541.64,0.92929,13.66,0.18924,0.18023,0,0,0
542.64,0.93297,13.667,0.19042,0.18119,0,0,0
543.64,0.9377,13.675,0.19148,0.18213,0,0,0
544.64,0.94187,13.683,0.19228,0.18312,0,0,0
545.64,0.94558,13.691,0.1932,0.1839,0,0,0
546.64,0.94849,13.699,0.19405,0.18478,0,0,0
547.64,0.95227,13.707,0.19465,0.18566,0,0,0
548.64,0.95604,13.715,0.19549,0.18651,0,0,0
549.64,0.96048,13.722,0.19677,0.18755,0,0,0
550.64,0.96458,13.731,0.19813,0.18857,0,0,0
551.64,0.96846,13.738,0.19892,0.18947,0,0,0
552.64,0.97223,13.746,0.1999,0.19087,0,0,0
553.64,0.97544,13.753,0.2009,0.19153,0,0,0
554.64,0.97902,13.761,0.20179,0.19229,0,0,0
555.64,0.98332,13.769,0.20282,0.19347,0,0,0
556.64,0.98723,13.776,0.20393,0.19442,0,0,0
557.64,0.99133,13.784,0.20522,0.19557,0,0,0
558.64,0.99544,13.791,0.20608,0.19649,0,0,0
559.64,0.99888,13.798,0.20716,0.19769,0,0,0
560.64,1.0027,13.805,0.20832,0.19864,0,0,0
561.64,1.0066,13.813,0.20902,0.19964,0,0,0
562.64,1.0113,13.821,0.20985,0.20073,0,0,0
563.64,1.0155,13.829,0.21089,0.20165,0,0,0
564.64,1.0194,13.836,0.21181,0.20265,0,0,0
565.64,1.0232,13.843,0.21328,0.20349,0,0,0
566.64,1.027,13.85,0.21427,0.20438,0,0,0
567.64,1.0309,13.857,0.2152,0.20521,0,0,0
568.64,1.0355,13.865,0.21654,0.20626,0,0,0
569.64,1.0398,13.871,0.21752,0.2071,0,0,0
570.64,1.0438,13.879,0.2184,0.2082,0,0,0
571.64,1.0475,13.887,0.21898,0.20968,0,0,0
572.64,1.051,13.893,0.22007,0.21089,0,0,0
573.64,1.0549,13.9,0.22151,0.21191,0,0,0
574.64,1.0592,13.907,0.22273,0.21279,0,0,0
575.64,1.0635,13.914,0.22392,0.21354,0,0,0
576.64,1.0679,13.921,0.22524,0.21458,0,0,0
577.64,1.0713,13.928,0.22569,0.21541,0,0,0
578.64,1.0751,13.935,0.22691,0.21653,0,0,0
579.64,1.0787,13.942,0.22741,0.21775,0,0,0
580.64,1.083,13.949,0.22867,0.21839,0,0,0
581.64,1.0875,13.956,0.2302,0.21959,0,0,0
582.64,1.0918,13.963,0.23151,0.22063,0,0,0
583.64,1.0956,13.969,0.23196,0.22169,0,0,0
584.64,1.0994,13.976,0.23345,0.22264,0,0,0
585.64,1.1035,13.982,0.23445,0.22341,0,0,0
586.64,1.1077,13.988,0.23571,0.22515,0,0,0
587.64,1.1122,13.995,0.23683,0.22645,0,0,0
588.64,1.1165,14.002,0.23764,0.22734,0,0,0
589.64,1.1208,14.008,0.23926,0.22835,0,0,0
590.64,1.1244,14.015,0.24074,0.22948,0,0,0
591.64,1.1282,14.021,0.24186,0.23016,0,0,0
592.64,1.1327,14.028,0.24246,0.23153,0,0,0
593.64,1.1373,14.035,0.24331,0.23255,0,0,0
594.64,1.1418,14.041,0.24435,0.23408,0,0,0
595.64,1.1459,14.048,0.24549,0.23538,0,0,0
596.64,1.1499,14.054,0.24642,0.23612,0,0,0
597.64,1.1537,14.06,0.2481,0.23737,0,0,0
598.64,1.1579,14.067,0.24934,0.23828,0,0,0
599.64,1.1624,14.074,0.25081,0.23979,0,0,0
600.64,1.167,14.079,0.25171,0.24109,0,0,0
601.64,1.171,14.085,0.25267,0.24252,0,0,0
602.64,1.1751,14.092,0.254,0.24401,0,0,0
603.64,1.1789,14.098,0.25531,0.24504,0,0,0
604.64,1.1831,14.105,0.25687,0.24621,0,0,0
605.64,1.1877,14.111,0.25823,0.2473,0,0,0
606.64,1.1924,14.117,0.25951,0.24812,0,0,0
607.64,1.1966,14.123,0.26063,0.24941,0,0,0
608.64,1.2006,14.129,0.26124,0.25065,0,0,0
609.64,1.2048,14.135,0.26254,0.25232,0,0,0
610.64,1.2088,14.141,0.26432,0.25325,0,0,0
611.64,1.2136,14.147,0.26562,0.25425,0,0,0
612.64,1.2181,14.153,0.26724,0.25528,0,0,0
613.64,1.2226,14.159,0.2681,0.25638,0,0,0
614.64,1.2269,14.165,0.26891,0.25789,0,0,0
615.64,1.231,14.171,0.26977,0.25912,0,0,0
616.64,1.2354,14.176,0.27096,0.26083,0,0,0
617.64,1.24,14.181,0.2723,0.26249,0,0,0
618.64,1.2449,14.186,0.27408,0.26363,0,0,0
619.64,1.2491,14.192,0.27617,0.2647,0,0,0
620.64,1.2536,14.198,0.27788,0.26569,0,0,0
621.64,1.2576,14.203,0.27845,0.26693,0,0,0
622.64,1.262,14.209,0.27993,0.26835,0,0,0
623.64,1.2668,14.214,0.28106,0.27023,0,0,0
624.64,1.2713,14.221,0.28196,0.27141,0,0,0
625.64,1.2759,14.226,0.28425,0.27237,0,0,0
626.64,1.2802,14.231,0.28542,0.27358,0,0,0
627.64,1.2841,14.236,0.28734,0.27436,0,0,0
628.64,1.2884,14.241,0.28768,0.27559,0,0,0
629.64,1.2933,14.246,0.28897,0.27712,0,0,0
630.64,1.2979,14.252,0.29016,0.27878,0,0,0
631.64,1.3026,14.258,0.29167,0.28036,0,0,0
632.64,1.3066,14.263,0.29367,0.28158,0,0,0
633.64,1.3108,14.268,0.29607,0.2829,0,0,0
634.64,1.3152,14.273,0.29722,0.28418,0,0,0
635.64,1.3201,14.278,0.29811,0.28557,0,0,0
636.64,1.3249,14.283,0.29877,0.28674,0,0,0
637.64,1.3292,14.288,0.30017,0.28905,0,0,0
638.64,1.3337,14.293,0.30159,0.29046,0,0,0
639.64,1.3377,14.298,0.30416,0.29168,0,0,0
640.64,1.3423,14.303,0.30587,0.29288,0,0,0
641.64,1.3473,14.308,0.30718,0.29434,0,0,0
642.64,1.3523,14.313,0.30794,0.29535,0,0,0
643.64,1.3567,14.318,0.30891,0.29702,0,0,0
644.64,1.3612,14.322,0.30954,0.29825,0,0,0
645.64,1.3655,14.327,0.31158,0.30014,0,0,0
646.64,1.3702,14.332,0.3133,0.30095,0,0,0
647.64,1.3751,14.337,0.31569,0.30249,0,0,0
648.64,1.3803,14.342,0.31712,0.30386,0,0,0
649.64,1.3851,14.347,0.31772,0.30506,0,0,0
650.64,1.3895,14.351,0.31914,0.30721,0,0,0
651.64,1.3938,14.356,0.32063,0.30901,0,0,0
652.64,1.3989,14.36,0.32197,0.31037,0,0,0
653.64,1.4039,14.364,0.32415,0.31243,0,0,0
654.64,1.4088,14.369,0.32643,0.314,0,0,0
655.64,1.4137,14.373,0.32774,0.31523,0,0,0
656.64,1.4179,14.377,0.329,0.31683,0,0,0
657.64,1.4226,14.382,0.33065,0.31943,0,0,0
658.64,1.4275,14.386,0.332,0.32054,0,0,0
659.64,1.4327,14.39,0.33428,0.32222,0,0,0
660.64,1.4375,14.394,0.33584,0.3238,0,0,0
661.64,1.4423,14.398,0.33695,0.32512,0,0,0
662.64,1.4465,14.402,0.33816,0.3271,0,0,0
663.64,1.4512,14.406,0.34002,0.32892,0,0,0
664.64,1.4562,14.41,0.34188,0.33094,0,0,0
665.64,1.4618,14.415,0.34359,0.3318,0,0,0
666.64,1.4664,14.418,0.34554,0.33405,0,0,0
667.64,1.471,14.422,0.34716,0.3358,0,0,0
668.64,1.4757,14.426,0.34877,0.33765,0,0,0
669.64,1.4806,14.429,0.34982,0.33916,0,0,0
670.64,1.4856,14.433,0.35162,0.34093,0,0,0
671.64,1.491,14.437,0.35352,0.34286,0,0,0
672.64,1.4959,14.441,0.35582,0.34413,0,0,0
673.64,1.5006,14.445,0.35738,0.3457,0,0,0
674.64,1.5052,14.448,0.35883,0.3482,0,0,0
675.64,1.5102,14.452,0.36059,0.34979,0,0,0
676.64,1.5155,14.456,0.36246,0.35135,0,0,0
677.64,1.521,14.458,0.36414,0.35329,0,0,0
678.64,1.5259,14.461,0.36687,0.35405,0,0,0
679.64,1.5307,14.465,0.36848,0.35593,0,0,0
680.64,1.5357,14.468,0.36957,0.35788,0,0,0
681.64,1.5412,14.471,0.37122,0.3604,0,0,0
682.64,1.5466,14.474,0.3725,0.36266,0,0,0
683.64,1.5517,14.478,0.37414,0.36482,0,0,0
684.64,1.5567,14.481,0.37639,0.36581,0,0,0
685.64,1.5616,14.484,0.37762,0.36769,0,0,0
686.64,1.5671,14.487,0.37973,0.36895,0,0,0
687.64,1.5728,14.49,0.38206,0.37188,0,0,0
688.64,1.5779,14.492,0.38332,0.37421,0,0,0
689.64,1.5834,14.495,0.38485,0.37551,0,0,0
690.64,1.5884,14.497,0.38753,0.37696,0,0,0
691.64,1.5933,14.5,0.38948,0.37873,0,0,0
692.64,1.5989,14.502,0.39199,0.38075,0,0,0
693.64,1.6045,14.505,0.39427,0.38276,0,0,0
694.64,1.6101,14.507,0.39592,0.38488,0,0,0
695.64,1.6152,14.509,0.39795,0.38774,0,0,0
696.64,1.6204,14.511,-Inf,0.38928,0,0,0
697.64,1.6258,14.514,-Inf,0.39104,0,0,0
698.64,1.6314,14.516,-Inf,0.39317,0,0,0
699.64,1.6371,14.518,-Inf,0.39525,0,0,0
700.64,1.6426,14.52,-Inf,0.39783,0,0,0
701.64,1.6476,14.521,-Inf,0.40072,0,0,0
702.64,1.6527,14.523,-Inf,0.40345,0,0,0
703.64,1.6584,14.524,-Inf,0.40572,0,0,0
704.64,1.6643,14.526,-Inf,0.40803,0,0,0
705.64,1.67,14.527,-Inf,0.41121,0,0,0
706.64,1.6754,14.529,-Inf,0.41361,0,0,0
707.64,1.6805,14.531,-Inf,0.41608,0,0,0
708.64,1.6859,14.532,-Inf,0.41822,0,0,0
709.64,1.6919,14.533,-Inf,0.42109,0,0,0
710.64,1.6977,14.534,-Inf,0.42441,0,0,0
711.64,1.7034,14.535,-Inf,0.42746,0,0,0
712.64,1.7091,14.536,-Inf,0.43071,0,0,0
713.64,1.7141,14.537,-Inf,0.43327,0,0,0
714.64,1.7206,14.537,-Inf,0.43631,0,0,0
715.64,1.7265,14.537,-Inf,0.43879,0,0,0
716.64,1.7323,14.538,-Inf,0.44218,0,0,0
717.64,1.7377,14.539,-Inf,0.44558,0,0,0
718.64,1.7435,14.539,-Inf,0.4485,0,0,0
719.64,1.7494,14.54,-Inf,0.45118,0,0,0
720.64,1.7556,14.539,-Inf,0.45433,0,0,0
721.64,1.7619,14.539,-Inf,0.45817,0,0,0
722.64,1.7678,14.539,-Inf,0.46103,0,0,0
723.64,1.7734,14.538,-Inf,0.46426,0,0,0
724.64,1.7797,14.538,-Inf,0.46717,0,0,0
725.64,1.7858,14.537,-Inf,0.46952,0,0,0
726.64,1.7921,14.536,-Inf,0.47314,0,0,0
727.64,1.7984,14.535,-Inf,0.47711,0,0,0
728.64,1.8041,14.533,-Inf,0.48096,0,0,0
729.64,1.81,14.532,-Inf,0.48429,0,0,0
730.64,1.8167,14.53,-Inf,0.48779,0,0,0
731.64,1.8233,14.529,-Inf,0.49057,0,0,0
732.64,1.8296,14.527,-Inf,0.49415,0,0,0
733.64,1.8355,14.525,-Inf,0.4972,0,0,0
734.64,1.8415,14.523,-Inf,-Inf,0,0,0
735.64,1.8483,14.52,-Inf,-Inf,0,0,0
736.64,1.8552,14.517,-Inf,-Inf,0,0,0
737.64,1.8613,14.514,-Inf,-Inf,0,0,0
738.64,1.8674,14.51,-Inf,-Inf,0,0,0
739.64,1.8738,14.507,-Inf,-Inf,0,0,0
740.64,1.8807,14.503,-Inf,-Inf,0,0,0
741.64,1.8876,14.499,-Inf,-Inf,0,0,0
742.64,1.8943,14.496,-Inf,-Inf,0,0,0
743.64,1.9005,14.493,-Inf,-Inf,0,0,0
744.64,1.9069,14.488,-Inf,-Inf,0,0,0
745.64,1.9138,14.483,-Inf,-Inf,0,0,0
746.64,1.921,14.477,-Inf,-Inf,0,0,0
747.64,1.9273,14.472,-Inf,-Inf,0,0,0
748.64,1.9341,14.466,-Inf,-Inf,0,0,0
749.64,1.9404,14.459,-Inf,-Inf,0,0,0
750.64,1.9476,14.454,-Inf,-Inf,0,0,0
751.64,1.9547,14.448,-Inf,-Inf,0,0,0
752.64,1.9614,14.441,-Inf,-Inf,0,0,0
753.64,1.968,14.434,-Inf,-Inf,0,0,0
754.64,1.9747,14.426,-Inf,-Inf,0,0,0
755.64,1.9819,14.418,-Inf,-Inf,0,0,0
756.64,1.9893,14.41,-Inf,-Inf,0,0,0
757.64,1.9965,14.401,-Inf,-Inf,0,0,0
758.64,2.0029,14.392,-Inf,-Inf,0,0,0
759.64,2.0101,14.383,-Inf,-Inf,0,0,0
760.64,2.0174,14.373,-Inf,-Inf,0,0,0
761.64,2.0249,14.362,-Inf,-Inf,0,0,0
762.64,2.0321,14.351,-Inf,-Inf,0,0,0
763.64,2.0386,14.339,-Inf,-Inf,0,0,0
764.64,2.046,14.327,-Inf,-Inf,0,0,0
765.64,2.054,14.315,-Inf,-Inf,0,0,0
766.64,2.0612,14.301,-Inf,-Inf,0,0,0
767.64,2.0687,14.286,-Inf,-Inf,0,0,0
768.64,2.0762,14.271,-Inf,-Inf,0,0,0
769.64,2.0835,14.253,-Inf,-Inf,0,0,0
770.64,2.0918,14.235,-Inf,-Inf,0,0,0
771.64,2.0997,14.213,-Inf,-Inf,0,0,0
772.64,2.1072,14.191,-Inf,-Inf,0,0,0
773.64,2.1151,14.168,-Inf,-Inf,0,0,0
774.64,2.124,14.142,-Inf,-Inf,0,0,0
775.64,2.1355,14.105,-Inf,-Inf,0,0,0