File: polyN_optimization/DP600_results/DATA/CH_00_2.csv
Time[s],Displacement[mm],Force[kN],AxStrain_1,AxStrain_2,Thickness[mm],OuterWidth[mm],Diameter[mm]
0.64,0,-0.015295,0,0,1.513,20,4.9055
1.64,0.000336,-0.018996,4.8999e-05,-0.00019702,0,0,0
2.64,0.000372,0.020137,7.0997e-05,-0.00022903,0,0,0
3.64,0.000422,0.081705,4.8999e-05,-0.00024303,0,0,0
4.64,0.000493,0.134,0.00035894,-0.00024403,0,0,0
5.64,0.000625,0.18885,0.00034694,-7.0002e-05,0,0,0
6.64,0.000487,0.23342,0.00051187,-9.3004e-05,0,0,0
7.64,0.000528,0.26814,0.00043091,9.3996e-05,0,0,0
8.64,0.000744,0.30343,0.00050687,-5.2001e-05,0,0,0
9.64,0.000817,0.33971,0.00037093,2.3e-05,0,0,0
10.64,0.000751,0.37771,0.00017199,0.00013699,0,0,0
11.64,0.001028,0.41657,0.00014599,0.00026197,0,0,0
12.64,0.001132,0.45271,0.00016999,4.1999e-05,0,0,0
13.64,0.001723,0.48685,0.00015299,0.00011299,0,0,0
14.64,0.001306,0.52456,0.00028696,0.00013899,0,0,0
15.64,0.001476,0.56056,0.00070475,-0.00022803,0,0,0
16.64,0.001291,0.59514,0.00068177,-6.0002e-05,0,0,0
17.64,0.001433,0.63285,0.00078469,-4.3001e-05,0,0,0
18.64,0.001563,0.67042,0.00060282,-0.00015601,0,0,0
19.64,0.001576,0.71042,0.00047988,0.00018498,0,0,0
20.64,0.001609,0.75185,0.00067177,5.9998e-05,0,0,0
21.64,0.00195,0.79071,0.00037393,0.00013899,0,0,0
22.64,0.002158,0.82785,0.00045989,0.00016199,0,0,0
23.64,0.002178,0.87028,0.00018498,0.00025797,0,0,0
24.64,0.002403,0.91128,0.00033095,0.00026496,0,0,0
25.64,0.00287,0.94985,0.00046989,0.00027796,0,0,0
26.64,0.002893,0.99057,0.00066478,-2e-05,0,0,0
27.64,0.003046,1.0301,0.00051986,6.9998e-05,0,0,0
28.64,0.002847,1.0704,0.0006258,0.00013199,0,0,0
29.64,0.002837,1.1126,0.00081067,0.00036693,0,0,0
30.64,0.00283,1.1521,0.0004539,0.00024197,0,0,0
31.64,0.002887,1.1903,0.00051587,0.00040692,0,0,0
32.64,0.002917,1.2337,0.00056584,0.00034794,0,0,0
33.64,0.003453,1.2747,0.00037393,0.00066878,0,0,0
34.64,0.003883,1.3139,0.00032795,0.00043391,0,0,0
35.64,0.004218,1.3556,0.00048288,0.00050987,0,0,0
36.64,0.004304,1.3947,0.0004399,0.00026496,0,0,0
37.64,0.004489,1.4361,0.00036693,8.8996e-05,0,0,0
38.64,0.004476,1.4786,0.00047988,0.00017199,0,0,0
39.64,0.004155,1.5181,0.00026496,0.00024497,0,0,0
40.64,0.00433,1.5556,0.00046989,0.00041991,0,0,0
41.64,0.00429,1.5983,0.00043391,0.00038093,0,0,0
42.64,0.00439,1.6393,0.00035794,0.00050687,0,0,0
43.64,0.0049,1.6786,0.00051986,0.00050987,0,0,0
44.64,0.005204,1.7196,0.00050687,0.00068177,0,0,0
45.64,0.005664,1.7591,0.00066178,0.00056884,0,0,0
46.64,0.005873,1.7994,0.00076771,0.00036393,0,0,0
47.64,0.005959,1.8411,0.00059582,0.00056584,0,0,0
48.64,0.005797,1.8807,0.00046689,0.00039092,0,0,0
49.64,0.005691,1.9179,0.00058583,0.00029096,0,0,0
50.64,0.00533,1.96,0.00074472,0.00031495,0,0,0
51.64,0.005588,2.0003,0.00072174,0.00047988,0,0,0
52.64,0.005734,2.0386,0.00064179,0.00064879,0,0,0
53.64,0.005853,2.0807,0.00052586,0.00055285,0,0,0
54.64,0.006456,2.1171,0.00071474,0.00081767,0,0,0
55.64,0.006922,2.1589,0.00076071,0.00072774,0,0,0
56.64,0.007611,2.1996,0.00078769,0.00067477,0,0,0
57.64,0.00776,2.2381,0.00073773,0.0004499,0,0,0
58.64,0.007525,2.2781,0.00076471,0.0006358,0,0,0
59.64,0.0073,2.3157,0.00091358,0.00050687,0,0,0
60.64,0.007154,2.3571,0.00095654,0.00038093,0,0,0
61.64,0.006657,2.3971,0.00098951,0.00038093,0,0,0
62.64,0.007088,2.4339,0.00090359,0.00059582,0,0,0
63.64,0.007465,2.4746,0.0010385,0.00056584,0,0,0
64.64,0.007766,2.5157,0.0009995,0.00073773,0,0,0
65.64,0.008137,2.5543,0.00087062,0.00080368,0,0,0
66.64,0.008915,2.5934,0.0010195,0.00064879,0,0,0
67.64,0.009336,2.6334,0.00096254,0.00072474,0,0,0
68.64,0.009306,2.6714,0.0012572,0.00052286,0,0,0
69.64,0.008876,2.7131,0.0015618,0.00052286,0,0,0
70.64,0.008952,2.7531,0.0014849,0.00040692,0,0,0
71.64,0.008462,2.7899,0.0012342,0.00074472,0,0,0
72.64,0.008283,2.8303,0.0011583,0.00066478,0,0,0
73.64,0.008667,2.871,0.0010025,0.00068876,0,0,0
74.64,0.009001,2.9103,0.0010554,0.0007747,0,0,0
75.64,0.009541,2.9491,0.00096953,0.00091358,0,0,0
76.64,0.010355,2.9891,0.00088061,0.0008936,0,0,0
77.64,0.01061,3.0274,0.0011583,0.00084364,0,0,0
78.64,0.010991,3.0691,0.0012802,0.00086063,0,0,0
79.64,0.010713,3.1087,0.0016436,0.00074772,0,0,0
80.64,0.010375,3.1456,0.001406,0.00070775,0,0,0
81.64,0.010071,3.1853,0.0011413,0.00094955,0,0,0
82.64,0.010087,3.226,0.0010724,0.00069476,0,0,0
83.64,0.010031,3.2646,0.0010824,0.00085364,0,0,0
84.64,0.010845,3.3024,0.0010295,0.00087662,0,0,0
85.64,0.011143,3.3421,0.0010455,0.0010125,0,0,0
86.64,0.011832,3.38,0.0010155,0.0012702,0,0,0
87.64,0.012338,3.4214,0.0011014,0.0010724,0,0,0
88.64,0.012779,3.4611,0.001419,0.0011284,0,0,0
89.64,0.012646,3.4976,0.0010724,0.0010455,0,0,0
90.64,0.012074,3.5373,0.0012742,0.0010125,0,0,0
91.64,0.011779,3.5763,0.0011014,0.00084065,0,0,0
92.64,0.011686,3.6141,0.0010395,0.00093356,0,0,0
93.64,0.011941,3.6537,0.0010125,0.0010684,0,0,0
94.64,0.01215,3.6927,0.0011973,0.0012113,0,0,0
95.64,0.012716,3.7294,0.0011154,0.0013071,0,0,0
96.64,0.01354,3.7677,0.0011154,0.001442,0,0,0
97.64,0.01399,3.8067,0.001409,0.0013301,0,0,0
98.64,0.014368,3.8446,0.0012902,0.0011284,0,0,0
99.64,0.014437,3.8829,0.0012702,0.0010924,0,0,0
100.64,0.014176,3.9214,0.0013501,0.0011713,0,0,0
101.64,0.013547,3.9609,0.001383,0.0012342,0,0,0
102.64,0.013255,3.9991,0.0013301,0.0012372,0,0,0
103.64,0.013318,4.0379,0.001393,0.0013371,0,0,0
104.64,0.013669,4.0747,0.0012872,0.0013331,0,0,0
105.64,0.014321,4.1159,0.0013131,0.001432,0,0,0
106.64,0.01504,4.1544,0.0013661,0.0014719,0,0,0
107.64,0.015871,4.1906,0.0012932,0.0017335,0,0,0
108.64,0.016288,4.2296,0.001393,0.0017794,0,0,0
109.64,0.016023,4.27,0.002017,0.0015548,0,0,0
110.64,0.015861,4.3083,0.0019182,0.001423,0,0,0
111.64,0.015493,4.3451,0.0019182,0.0012902,0,0,0
112.64,0.015229,4.3839,0.0018193,0.0012902,0,0,0
113.64,0.015328,4.4204,0.0017535,0.0012572,0,0,0
114.64,0.015526,4.4609,0.0017535,0.0012243,0,0,0
115.64,0.015924,4.4999,0.0015877,0.0015218,0,0,0
116.64,0.016917,4.5353,0.0017195,0.0015548,0,0,0
117.64,0.017513,4.5736,0.0016866,0.0017205,0,0,0
118.64,0.017943,4.6131,0.0018852,0.0016536,0,0,0
119.64,0.018274,4.6497,0.0022814,0.0017535,0,0,0
120.64,0.018208,4.6864,0.0023812,0.0016866,0,0,0
121.64,0.017976,4.7244,0.0021826,0.0012902,0,0,0
122.64,0.017347,4.7604,0.0021497,0.0015548,0,0,0
123.64,0.017082,4.8001,0.002017,0.0015218,0,0,0
124.64,0.017314,4.8381,0.0018193,0.0014559,0,0,0
125.64,0.017976,4.8726,0.0018523,0.0016536,0,0,0
126.64,0.01887,4.9103,0.0017535,0.0017535,0,0,0
127.64,0.019532,4.9487,0.0014559,0.0016536,0,0,0
128.64,0.019896,4.985,0.0017535,0.002017,0,0,0
129.64,0.020294,5.0211,0.0021168,0.001984,0,0,0
130.64,0.020095,5.0584,0.0024141,0.0018523,0,0,0
131.64,0.019996,5.0937,0.0023143,0.0018193,0,0,0
132.64,0.019797,5.1331,0.0020838,0.0018523,0,0,0
133.64,0.019433,5.1681,0.0019182,0.002017,0,0,0
134.64,0.019433,5.2047,0.0019182,0.0018852,0,0,0
135.64,0.019764,5.2453,0.0018193,0.0022485,0,0,0
136.64,0.020393,5.2791,0.0018523,0.0022155,0,0,0
137.64,0.02132,5.3164,0.0017864,0.0021168,0,0,0
138.64,0.021949,5.3539,0.0020509,0.0024141,0,0,0
139.64,0.022247,5.392,0.0022814,0.002447,0,0,0
140.64,0.022445,5.4289,0.002017,0.0021826,0,0,0
141.64,0.022313,5.4654,0.002017,0.0022814,0,0,0
142.64,0.022048,5.5031,0.0020509,0.0021826,0,0,0
143.64,0.022081,5.5387,0.0022155,0.0021497,0,0,0
144.64,0.021651,5.5764,0.0021168,0.0022155,0,0,0
145.64,0.022114,5.6154,0.0021168,0.0023482,0,0,0
146.64,0.023008,5.65,0.0020838,0.0025128,0,0,0
147.64,0.02367,5.6873,0.0020838,0.0023812,0,0,0
148.64,0.024002,5.7257,0.0021497,0.0027771,0,0,0
149.64,0.024664,5.7626,0.0023812,0.0027442,0,0,0
150.64,0.024796,5.7999,0.0029417,0.0026455,0,0,0
151.64,0.024928,5.8364,0.0029417,0.0025458,0,0,0
152.64,0.024995,5.8724,0.0031072,0.0025128,0,0,0
153.64,0.024697,5.9104,0.0027771,0.0024799,0,0,0
154.64,0.024796,5.9477,0.0026116,0.0026455,0,0,0
155.64,0.025061,5.9836,0.002843,0.0025458,0,0,0
156.64,0.025855,6.0199,0.0025458,0.0029088,0,0,0
157.64,0.026153,6.0571,0.0024799,0.0030743,0,0,0
158.64,0.026815,6.0944,0.0027442,0.0031072,0,0,0
159.64,0.027279,6.1314,0.0031401,0.0033713,0,0,0
160.64,0.027444,6.1684,0.0035357,0.003173,0,0,0
161.64,0.027775,6.2041,0.0036354,0.0029756,0,0,0
162.64,0.02804,6.2424,0.00347,0.0027771,0,0,0
163.64,0.027775,6.2777,0.00347,0.0027771,0,0,0
164.64,0.028007,6.3133,0.0030085,0.0030085,0,0,0
165.64,0.02814,6.35,0.0029746,0.0030085,0,0,0
166.64,0.028868,6.387,0.0030414,0.0030414,0,0,0
167.64,0.029298,6.4224,0.002843,0.0033384,0,0,0
168.64,0.029629,6.4594,0.0030414,0.0035686,0,0,0
169.64,0.030258,6.4961,0.0033384,0.0037669,0,0,0
170.64,0.030291,6.5307,0.0035357,0.0039323,0,0,0
171.64,0.030887,6.5694,0.0033055,0.0035686,0,0,0
172.64,0.031053,6.604,0.0035357,0.0033384,0,0,0
173.64,0.031285,6.6393,0.0035029,0.0032716,0,0,0
174.64,0.031483,6.6757,0.0035686,0.0035686,0,0,0
175.64,0.031781,6.7116,0.003173,0.0036683,0,0,0
176.64,0.032145,6.7471,0.0031401,0.0038665,0,0,0
177.64,0.032741,6.7836,0.003173,0.0039651,0,0,0
178.64,0.033205,6.8199,0.0033384,0.0042948,0,0,0
179.64,0.033304,6.8544,0.0037669,0.0045914,0,0,0
180.64,0.0339,6.8921,0.004228,0.0047885,0,0,0
181.64,0.034066,6.9261,0.0043933,0.004459,0,0,0
182.64,0.034695,6.9607,0.0047885,0.0043933,0,0,0
183.64,0.035059,6.996,0.0045247,0.004229,0,0,0
184.64,0.035886,7.0316,0.0043933,0.0040309,0,0,0
185.64,0.036482,7.0669,0.0040966,0.0042948,0,0,0
186.64,0.036482,7.1021,0.0039651,0.0045586,0,0,0
187.64,0.036913,7.1381,0.003998,0.0045914,0,0,0
188.64,0.037244,7.1724,0.0042948,0.0048552,0,0,0
189.64,0.037343,7.2101,0.0041952,0.005283,0,0,0
190.64,0.037972,7.2441,0.0047885,0.0055466,0,0,0
191.64,0.038402,7.2783,0.0051517,0.0053815,0,0,0
192.64,0.039296,7.3136,0.0049209,0.0052174,0,0,0
193.64,0.040058,7.349,0.0049209,0.0050522,0,0,0
194.64,0.040984,7.3831,0.0047557,0.0049209,0,0,0
195.64,0.041481,7.4191,0.0047228,0.0051845,0,0,0
196.64,0.041911,7.4541,0.00469,0.0051845,0,0,0
197.64,0.041912,7.4871,0.00469,0.005481,0,0,0
198.64,0.041978,7.5239,0.0049209,0.0058757,0,0,0
199.64,0.042243,7.5571,0.0054471,0.0063031,0,0,0
200.64,0.042938,7.591,0.0062375,0.0065664,0,0,0
201.64,0.043435,7.626,0.0067641,0.0067313,0,0,0
202.64,0.044395,7.661,0.0068296,0.006632,0,0,0
203.64,0.045653,7.6944,0.006632,0.0062375,0,0,0
204.64,0.046745,7.7291,0.0065336,0.0061391,0,0,0
205.64,0.047871,7.7639,0.0063031,0.0063697,0,0,0
206.64,0.048235,7.7967,0.0062703,0.0064025,0,0,0
207.64,0.048334,7.8331,0.0063031,0.0067968,0,0,0
208.64,0.048698,7.8654,0.0064015,0.0072904,0,0,0
209.64,0.048698,7.899,0.0067968,0.0075534,0,0,0
210.64,0.049393,7.9336,0.0072894,0.0081437,0,0,0
211.64,0.050022,7.9683,0.0076507,0.0081765,0,0,0
212.64,0.051247,8.0016,0.0078809,0.0081765,0,0,0
213.64,0.052605,8.0347,0.0077499,0.0079801,0,0,0
214.64,0.05373,8.0679,0.0073886,0.0079136,0,0,0
215.64,0.054756,8.1019,0.0075197,0.0078154,0,0,0
216.64,0.055816,8.1359,0.0076507,0.0080128,0,0,0
217.64,0.056478,8.1693,0.0076844,0.0080128,0,0,0
218.64,0.056908,8.2033,0.0080783,0.0086693,0,0,0
219.64,0.057306,8.2361,0.0087347,0.00926,0,0,0
220.64,0.0581,8.2699,0.0094561,0.009883,0,0,0
221.64,0.059027,8.3019,0.0099157,0.010243,0,0,0
222.64,0.060352,8.3369,0.010341,0.01044,0,0,0
223.64,0.061709,8.3694,0.010112,0.010243,0,0,0
224.64,0.062636,8.4,0.010014,0.010014,0,0,0
225.64,0.063927,8.4334,0.0098167,0.0095879,0,0,0
226.64,0.064953,8.4671,0.0095542,0.0098176,0,0,0
227.64,0.065979,8.499,0.0096859,0.009982,0,0,0
228.64,0.067072,8.5301,0.010177,0.010342,0,0,0
229.64,0.068131,8.5624,0.010702,0.01103,0,0,0
230.64,0.069687,8.5939,0.011356,0.011684,0,0,0
231.64,0.071011,8.6269,0.011913,0.012207,0,0,0
232.64,0.072369,8.6589,0.012599,0.012241,0,0,0
233.64,0.072898,8.6887,0.012664,0.012404,0,0,0
234.64,0.073925,8.72,0.012828,0.012339,0,0,0
235.64,0.075017,8.7524,0.012371,0.012109,0,0,0
236.64,0.07601,8.783,0.012599,0.012077,0,0,0
237.64,0.077136,8.8129,0.012567,0.012306,0,0,0
238.64,0.078858,8.8439,0.012828,0.012829,0,0,0
239.64,0.080943,8.8729,0.013319,0.013286,0,0,0
240.64,0.082532,8.9049,0.013776,0.013809,0,0,0
241.64,0.08432,8.9356,0.014886,0.014364,0,0,0
242.64,0.085677,8.963,0.014951,0.015114,0,0,0
243.64,0.087101,8.9933,0.015244,0.015278,0,0,0
244.64,0.087664,9.0246,0.015374,0.01531,0,0,0
245.64,0.088856,9.0527,0.015081,0.015245,0,0,0
246.64,0.090014,9.0811,0.014951,0.015148,0,0,0
247.64,0.091603,9.1106,0.015147,0.015018,0,0,0
248.64,0.093623,9.1379,0.015408,0.015344,0,0,0
249.64,0.095377,9.1689,0.01632,0.015767,0,0,0
250.64,0.097099,9.1971,0.016808,0.016483,0,0,0
251.64,0.098787,9.2237,0.017654,0.017037,0,0,0
252.64,0.10014,9.2527,0.018175,0.017623,0,0,0
253.64,0.10193,9.2819,0.018922,0.018045,0,0,0
254.64,0.10362,9.309,0.018954,0.018176,0,0,0
255.64,0.10544,9.3366,0.018922,0.018241,0,0,0
256.64,0.10746,9.3641,0.01876,0.018273,0,0,0
257.64,0.10935,9.3909,0.019052,0.018501,0,0,0
258.64,0.111,9.4191,0.019149,0.018305,0,0,0
259.64,0.11236,9.4461,0.019539,0.018923,0,0,0
260.64,0.11368,9.4717,0.020091,0.01928,0,0,0
261.64,0.11514,9.4987,0.020578,0.020124,0,0,0
262.64,0.11653,9.5266,0.021193,0.02061,0,0,0
263.64,0.11845,9.5524,0.02142,0.021065,0,0,0
264.64,0.1207,9.5786,0.021744,0.021389,0,0,0
265.64,0.12345,9.6051,0.021939,0.02155,0,0,0
266.64,0.12517,9.6299,0.022619,0.022036,0,0,0
267.64,0.12729,9.6571,0.022587,0.021939,0,0,0
268.64,0.12891,9.6831,0.022975,0.022328,0,0,0
269.64,0.1307,9.707,0.023752,0.022781,0,0,0
270.64,0.13242,9.7327,0.024042,0.023007,0,0,0
271.64,0.13467,9.759,0.024623,0.023427,0,0,0
272.64,0.13669,9.7831,0.024817,0.024172,0,0,0
273.64,0.13911,9.8076,0.025527,0.024495,0,0,0
274.64,0.14057,9.8329,0.025946,0.024721,0,0,0
275.64,0.14189,9.8566,0.026302,0.025108,0,0,0
276.64,0.14358,9.8829,0.026431,0.025431,0,0,0
277.64,0.14556,9.9071,0.027011,0.025883,0,0,0
278.64,0.14755,9.9297,0.027495,0.025981,0,0,0
279.64,0.1498,9.9544,0.027783,0.026206,0,0,0
280.64,0.15235,9.9793,0.028299,0.026851,0,0,0
281.64,0.15477,10.003,0.02862,0.027109,0,0,0
282.64,0.15715,10.026,0.029038,0.027496,0,0,0
283.64,0.15881,10.05,0.029489,0.027625,0,0,0
284.64,0.16116,10.073,0.029682,0.028365,0,0,0
285.64,0.16281,10.097,0.029842,0.028879,0,0,0
286.64,0.16506,10.121,0.030325,0.029072,0,0,0
287.64,0.16735,10.142,0.030807,0.029394,0,0,0
288.64,0.16963,10.166,0.031159,0.029684,0,0,0
289.64,0.17159,10.19,0.031962,0.030005,0,0,0
290.64,0.17337,10.212,0.032314,0.030616,0,0,0
291.64,0.17523,10.234,0.032923,0.030745,0,0,0
292.64,0.17705,10.257,0.033307,0.030809,0,0,0
293.64,0.17943,10.279,0.033788,0.031096,0,0,0
294.64,0.18175,10.303,0.03414,0.03145,0,0,0
295.64,0.1849,10.325,0.034587,0.032059,0,0,0
296.64,0.18738,10.345,0.035002,0.032604,0,0,0
297.64,0.18963,10.367,0.035194,0.032988,0,0,0
298.64,0.19171,10.391,0.036216,0.033501,0,0,0
299.64,0.19397,10.411,0.036567,0.033852,0,0,0
300.64,0.19605,10.433,0.037046,0.034045,0,0,0
301.64,0.19844,10.455,0.037206,0.034748,0,0,0
302.64,0.20105,10.475,0.037748,0.03494,0,0,0
303.64,0.2031,10.498,0.037971,0.035387,0,0,0
304.64,0.20555,10.52,0.038226,0.036026,0,0,0
305.64,0.20741,10.539,0.038513,0.036185,0,0,0
306.64,0.20936,10.561,0.039276,0.036633,0,0,0
307.64,0.21141,10.582,0.039309,0.037079,0,0,0
308.64,0.2137,10.603,0.040072,0.037398,0,0,0
309.64,0.21644,10.623,0.040676,0.037686,0,0,0
310.64,0.21939,10.644,0.041503,0.038228,0,0,0
311.64,0.22224,10.664,0.041599,0.038705,0,0,0
312.64,0.22446,10.685,0.042455,0.039088,0,0,0
313.64,0.22671,10.706,0.042677,0.03966,0,0,0
314.64,0.22909,10.725,0.043438,0.040042,0,0,0
315.64,0.23137,10.745,0.043977,0.040551,0,0,0
316.64,0.23409,10.764,0.044262,0.041123,0,0,0
317.64,0.23664,10.784,0.0448,0.04144,0,0,0
318.64,0.23942,10.804,0.04537,0.0416,0,0,0
319.64,0.24127,10.823,0.045749,0.042044,0,0,0
320.64,0.24313,10.842,0.046192,0.04252,0,0,0
321.64,0.24538,10.862,0.046571,0.0429,0,0,0
322.64,0.24727,10.88,0.047202,0.043788,0,0,0
323.64,0.24995,10.9,0.047896,0.044295,0,0,0
324.64,0.25276,10.92,0.048213,0.044834,0,0,0
325.64,0.25551,10.937,0.048685,0.045372,0,0,0
326.64,0.25826,10.956,0.048685,0.045847,0,0,0
327.64,0.26077,10.976,0.048906,0.045814,0,0,0
328.64,0.26312,10.993,0.049159,0.04591,0,0,0
329.64,0.26571,11.011,0.049694,0.0461,0,0,0
330.64,0.26799,11.03,0.050387,0.046762,0,0,0
331.64,0.2709,11.048,0.050764,0.047174,0,0,0
332.64,0.27395,11.067,0.051551,0.047773,0,0,0
333.64,0.2766,11.086,0.052147,0.048436,0,0,0
334.64,0.27878,11.102,0.052713,0.04913,0,0,0
335.64,0.281,11.121,0.053059,0.049854,0,0,0
336.64,0.28282,11.14,0.053404,0.050139,0,0,0
337.64,0.28527,11.157,0.053812,0.050327,0,0,0
338.64,0.28792,11.175,0.053907,0.050264,0,0,0
339.64,0.29083,11.193,0.054534,0.050768,0,0,0
340.64,0.29385,11.21,0.055004,0.051366,0,0,0
341.64,0.29659,11.228,0.055975,0.051586,0,0,0
342.64,0.29894,11.246,0.056256,0.052528,0,0,0
343.64,0.30162,11.262,0.057007,0.053377,0,0,0
344.64,0.30384,11.279,0.057475,0.053753,0,0,0
345.64,0.30715,11.297,0.058007,0.054223,0,0,0
346.64,0.31037,11.314,0.058663,0.054632,0,0,0
347.64,0.31331,11.33,0.058819,0.054727,0,0,0
348.64,0.31589,11.347,0.059287,0.055133,0,0,0
349.64,0.31824,11.363,0.059599,0.05576,0,0,0
350.64,0.3204,11.381,0.059973,0.055979,0,0,0
351.64,0.32255,11.397,0.060409,0.056792,0,0,0
352.64,0.32523,11.413,0.061001,0.057137,0,0,0
353.64,0.32804,11.429,0.061811,0.057699,0,0,0
354.64,0.33112,11.446,0.062308,0.058261,0,0,0
355.64,0.33354,11.461,0.062589,0.059043,0,0,0
356.64,0.33612,11.478,0.063024,0.059198,0,0,0
357.64,0.33841,11.494,0.063396,0.059573,0,0,0
358.64,0.34089,11.509,0.063863,0.060165,0,0,0
359.64,0.34423,11.525,0.064297,0.06054,0,0,0
360.64,0.34698,11.541,0.0647,0.060882,0,0,0
361.64,0.35036,11.556,0.065321,0.061598,0,0,0
362.64,0.353,11.572,0.066034,0.062003,0,0,0
363.64,0.35579,11.588,0.06653,0.062252,0,0,0
364.64,0.35817,11.603,0.067118,0.062625,0,0,0
365.64,0.36052,11.619,0.067706,0.063309,0,0,0
366.64,0.36313,11.634,0.068294,0.063621,0,0,0
367.64,0.36615,11.649,0.068665,0.064273,0,0,0
368.64,0.36913,11.664,0.069313,0.06483,0,0,0
369.64,0.37188,11.68,0.069653,0.065359,0,0,0
370.64,0.37423,11.694,0.070209,0.0657,0,0,0
371.64,0.37634,11.709,0.07061,0.066163,0,0,0
372.64,0.37919,11.725,0.071134,0.066691,0,0,0
373.64,0.38197,11.74,0.071689,0.067125,0,0,0
374.64,0.38495,11.754,0.072429,0.067528,0,0,0
375.64,0.38843,11.769,0.072675,0.067991,0,0,0
376.64,0.39154,11.783,0.073721,0.068486,0,0,0
377.64,0.39419,11.799,0.073997,0.068981,0,0,0
378.64,0.39687,11.813,0.074613,0.069444,0,0,0
379.64,0.39965,11.826,0.075258,0.069908,0,0,0
380.64,0.40247,11.841,0.076024,0.070124,0,0,0
381.64,0.40568,11.856,0.075994,0.071018,0,0,0
382.64,0.40889,11.871,0.076516,0.071357,0,0,0
383.64,0.41203,11.885,0.07716,0.07182,0,0,0
384.64,0.41455,11.899,0.077773,0.072468,0,0,0
385.64,0.417,11.912,0.078324,0.072776,0,0,0
386.64,0.41945,11.927,0.078966,0.073421,0,0,0
387.64,0.4223,11.94,0.079975,0.074067,0,0,0
388.64,0.42524,11.954,0.08022,0.074466,0,0,0
389.64,0.42835,11.968,0.0808,0.074897,0,0,0
390.64,0.43137,11.981,0.080555,0.075481,0,0,0
391.64,0.43408,11.995,0.081166,0.076033,0,0,0
392.64,0.43676,12.009,0.081654,0.076463,0,0,0
393.64,0.43974,12.023,0.082295,0.077137,0,0,0
394.64,0.44269,12.036,0.082935,0.077444,0,0,0
395.64,0.44606,12.049,0.083453,0.078241,0,0,0
396.64,0.44931,12.063,0.084487,0.078607,0,0,0
397.64,0.45262,12.076,0.085186,0.079127,0,0,0
398.64,0.45553,12.089,0.085794,0.079463,0,0,0
399.64,0.45802,12.102,0.08628,0.07983,0,0,0
400.64,0.46076,12.115,0.086767,0.080197,0,0,0
401.64,0.46388,12.129,0.0871,0.080808,0,0,0
402.64,0.46712,12.142,0.087404,0.081388,0,0,0
403.64,0.47033,12.154,0.087707,0.082242,0,0,0
404.64,0.47328,12.167,0.088889,0.082975,0,0,0
405.64,0.47556,12.181,0.089616,0.083614,0,0,0
406.64,0.47811,12.193,0.090221,0.083919,0,0,0
407.64,0.48059,12.206,0.091249,0.084405,0,0,0
408.64,0.4837,12.219,0.092004,0.084923,0,0,0
409.64,0.48718,12.232,0.092547,0.085196,0,0,0
410.64,0.49056,12.245,0.093211,0.085469,0,0,0
411.64,0.49377,12.258,0.093815,0.086077,0,0,0
412.64,0.49668,12.27,0.094026,0.086867,0,0,0
413.64,0.49963,12.282,0.094658,0.087776,0,0,0
414.64,0.50267,12.295,0.09529,0.088565,0,0,0
415.64,0.50575,12.308,0.096252,0.08914,0,0,0
416.64,0.50956,12.32,0.097215,0.090018,0,0,0
417.64,0.5129,12.333,0.097515,0.090442,0,0,0
418.64,0.51598,12.345,0.098385,0.090533,0,0,0
419.64,0.51896,12.357,0.099136,0.091198,0,0,0
420.64,0.52161,12.369,0.099705,0.091863,0,0,0
421.64,0.52436,12.381,0.099914,0.092225,0,0,0
422.64,0.5274,12.394,0.10036,0.092528,0,0,0
423.64,0.53078,12.406,0.10117,0.093584,0,0,0
424.64,0.53409,12.418,0.10141,0.094007,0,0,0
425.64,0.53697,12.43,0.10225,0.094699,0,0,0
426.64,0.53965,12.442,0.10317,0.095332,0,0,0
427.64,0.54243,12.454,0.10347,0.096024,0,0,0
428.64,0.54555,12.466,0.10419,0.096412,0,0,0
429.64,0.54902,12.478,0.10505,0.097225,0,0,0
430.64,0.5527,12.489,0.10586,0.097825,0,0,0
431.64,0.55631,12.501,0.10672,0.098337,0,0,0
432.64,0.55922,12.513,0.10708,0.098966,0,0,0
433.64,0.5622,12.524,0.10773,0.099746,0,0,0
434.64,0.56511,12.535,0.10824,0.10011,0,0,0
435.64,0.56842,12.547,0.1086,0.1007,0,0,0
436.64,0.57186,12.559,0.10913,0.10136,0,0,0
437.64,0.57541,12.569,0.10951,0.10205,0,0,0
438.64,0.57875,12.58,0.11011,0.10262,0,0,0
439.64,0.58173,12.591,0.11082,0.10319,0,0,0
440.64,0.58444,12.604,0.11162,0.10405,0,0,0
441.64,0.58739,12.615,0.11233,0.10459,0,0,0
442.64,0.59047,12.626,0.11325,0.10515,0,0,0
443.64,0.59371,12.637,0.11402,0.10584,0,0,0
444.64,0.59732,12.648,0.11481,0.10614,0,0,0
445.64,0.60047,12.659,0.11514,0.10688,0,0,0
446.64,0.60328,12.67,0.11581,0.10754,0,0,0
447.64,0.60603,12.681,0.11643,0.10795,0,0,0
448.64,0.60911,12.691,0.11673,0.10884,0,0,0
449.64,0.61252,12.703,0.11744,0.10932,0,0,0
450.64,0.61639,12.714,0.11794,0.11,0,0,0
451.64,0.61974,12.725,0.1187,0.11062,0,0,0
452.64,0.62338,12.736,0.11914,0.11127,0,0,0
453.64,0.62619,12.747,0.12014,0.11169,0,0,0
454.64,0.62937,12.758,0.12067,0.11258,0,0,0
455.64,0.63278,12.768,0.12169,0.11296,0,0,0
456.64,0.63642,12.779,0.12193,0.11376,0,0,0
457.64,0.64019,12.788,0.12278,0.11435,0,0,0
458.64,0.64314,12.8,0.12339,0.11509,0,0,0
459.64,0.64642,12.81,0.12395,0.1155,0,0,0
460.64,0.64966,12.821,0.1248,0.11609,0,0,0
461.64,0.65264,12.83,0.12529,0.11662,0,0,0
462.64,0.65562,12.842,0.12599,0.11742,0,0,0
463.64,0.659,12.852,0.12675,0.11786,0,0,0
464.64,0.66254,12.862,0.12771,0.11892,0,0,0
465.64,0.66602,12.873,0.12859,0.11959,0,0,0
466.64,0.66903,12.883,0.12926,0.12018,0,0,0
467.64,0.67221,12.893,0.12984,0.1208,0,0,0
468.64,0.67529,12.904,0.1308,0.12182,0,0,0
469.64,0.6789,12.914,0.13115,0.12209,0,0,0
470.64,0.68267,12.924,0.1319,0.12264,0,0,0
471.64,0.68638,12.934,0.13283,0.12335,0,0,0
472.64,0.68992,12.944,0.13338,0.12387,0,0,0
473.64,0.69323,12.954,0.13387,0.12466,0,0,0
474.64,0.69628,12.964,0.13488,0.12502,0,0,0
475.64,0.69975,12.974,0.13558,0.12575,0,0,0
476.64,0.70362,12.984,0.13627,0.12668,0,0,0
477.64,0.7071,12.994,0.13699,0.12715,0,0,0
478.64,0.71081,13.004,0.13786,0.1279,0,0,0
479.64,0.71412,13.013,0.13821,0.12846,0,0,0
480.64,0.7172,13.023,0.13895,0.12951,0,0,0
481.64,0.72021,13.032,0.13982,0.12977,0,0,0
482.64,0.72365,13.042,0.14019,0.13035,0,0,0
483.64,0.72726,13.052,0.1412,0.13122,0,0,0
484.64,0.73087,13.061,0.1418,0.13177,0,0,0
485.64,0.73451,13.071,0.14266,0.13253,0,0,0
486.64,0.73796,13.081,0.14353,0.1331,0,0,0
487.64,0.74064,13.091,0.14427,0.13363,0,0,0
488.64,0.74405,13.1,0.14516,0.13447,0,0,0
489.64,0.74756,13.11,0.14582,0.13531,0,0,0
490.64,0.75156,13.119,0.14648,0.13635,0,0,0
491.64,0.75557,13.129,0.14719,0.13727,0,0,0
492.64,0.75868,13.138,0.14813,0.13825,0,0,0
493.64,0.76219,13.148,0.14902,0.13891,0,0,0
494.64,0.7654,13.157,0.14999,0.13975,0,0,0
495.64,0.76897,13.166,0.15124,0.14021,0,0,0
496.64,0.77328,13.176,0.15198,0.1409,0,0,0
497.64,0.77689,13.184,0.15263,0.14139,0,0,0
498.64,0.7806,13.194,0.15346,0.14237,0,0,0
499.64,0.78404,13.202,0.15368,0.14311,0,0,0
500.64,0.78725,13.212,0.15456,0.14417,0,0,0
501.64,0.79049,13.221,0.1551,0.145,0,0,0
502.64,0.79423,13.23,0.15581,0.14572,0,0,0
503.64,0.79804,13.239,0.157,0.14666,0,0,0
504.64,0.80165,13.248,0.15782,0.14738,0,0,0
505.64,0.80526,13.256,0.15889,0.14801,0,0,0
506.64,0.80827,13.265,0.15946,0.14906,0,0,0
507.64,0.81142,13.274,0.16025,0.14978,0,0,0
508.64,0.81502,13.283,0.16067,0.15058,0,0,0
509.64,0.81857,13.291,0.1616,0.15143,0,0,0
510.64,0.82251,13.3,0.16225,0.15211,0,0,0
511.64,0.82618,13.309,0.16363,0.15302,0,0,0
512.64,0.82976,13.318,0.16436,0.15393,0,0,0
513.64,0.833,13.327,0.16517,0.15478,0,0,0
514.64,0.83641,13.335,0.16615,0.15555,0,0,0
515.64,0.84015,13.343,0.16688,0.15628,0,0,0
516.64,0.84416,13.352,0.16767,0.15674,0,0,0
517.64,0.84823,13.361,0.16834,0.15775,0,0,0
518.64,0.85174,13.37,0.16921,0.15897,0,0,0
519.64,0.85541,13.378,0.17007,0.15987,0,0,0
520.64,0.85889,13.386,0.17127,0.1606,0,0,0
521.64,0.8623,13.395,0.17197,0.1615,0,0,0
522.64,0.86634,13.404,0.17233,0.16241,0,0,0
523.64,0.87004,13.412,0.17358,0.16302,0,0,0
524.64,0.87408,13.42,0.174,0.16373,0,0,0
525.64,0.87743,13.429,0.17461,0.16446,0,0,0
526.64,0.8808,13.437,0.17564,0.16561,0,0,0
527.64,0.88425,13.445,0.17625,0.16653,0,0,0
528.64,0.88812,13.454,0.1772,0.16737,0,0,0
529.64,0.89156,13.462,0.17819,0.16847,0,0,0
530.64,0.89573,13.47,0.17922,0.16956,0,0,0
531.64,0.89948,13.479,0.17972,0.17048,0,0,0
532.64,0.90302,13.486,0.18046,0.17104,0,0,0
533.64,0.90633,13.494,0.18132,0.17218,0,0,0
534.64,0.91027,13.503,0.18206,0.17338,0,0,0
535.64,0.91404,13.511,0.18341,0.17419,0,0,0
536.64,0.91831,13.519,0.18446,0.1751,0,0,0
537.64,0.92225,13.527,0.18551,0.17591,0,0,0
538.64,0.92586,13.535,0.18647,0.17663,0,0,0
539.64,0.9295,13.543,0.18718,0.17738,0,0,0
540.64,0.93341,13.551,0.18795,0.17818,0,0,0
541.64,0.93761,13.559,0.18902,0.1794,0,0,0
542.64,0.94165,13.566,0.18976,0.18054,0,0,0
543.64,0.94586,13.574,0.19009,0.18139,0,0,0
544.64,0.9492,13.583,0.19102,0.18225,0,0,0
545.64,0.95307,13.59,0.19214,0.18297,0,0,0
546.64,0.95665,13.598,0.19331,0.18382,0,0,0
547.64,0.96062,13.605,0.19397,0.18443,0,0,0
548.64,0.96459,13.613,0.19533,0.18561,0,0,0
549.64,0.96863,13.62,0.19653,0.18605,0,0,0
550.64,0.97254,13.627,0.19764,0.18682,0,0,0
551.64,0.97591,13.635,0.19867,0.188,0,0,0
552.64,0.97936,13.643,0.19943,0.18888,0,0,0
553.64,0.98333,13.65,0.20044,0.18994,0,0,0
554.64,0.9874,13.658,0.20133,0.19107,0,0,0
555.64,0.99151,13.665,0.20209,0.19203,0,0,0
556.64,0.99531,13.672,0.20287,0.19277,0,0,0
557.64,0.99886,13.679,0.20406,0.19356,0,0,0
558.64,1.0027,13.687,0.20509,0.19484,0,0,0
559.64,1.0065,13.694,0.206,0.19617,0,0,0
560.64,1.0106,13.701,0.20727,0.19699,0,0,0
561.64,1.0149,13.709,0.2081,0.19797,0,0,0
562.64,1.019,13.716,0.20904,0.19927,0,0,0
563.64,1.0232,13.724,0.21012,0.20016,0,0,0
564.64,1.0267,13.731,0.2106,0.20117,0,0,0
565.64,1.0306,13.738,0.21186,0.20187,0,0,0
566.64,1.0348,13.745,0.21274,0.20274,0,0,0
567.64,1.0389,13.752,0.21376,0.20381,0,0,0
568.64,1.0431,13.759,0.21488,0.20476,0,0,0
569.64,1.0474,13.766,0.21573,0.20594,0,0,0
570.64,1.0511,13.773,0.21664,0.2067,0,0,0
571.64,1.0549,13.78,0.21776,0.20761,0,0,0
572.64,1.0588,13.787,0.21848,0.20858,0,0,0
573.64,1.0632,13.794,0.21978,0.20987,0,0,0
574.64,1.0673,13.801,0.22031,0.21062,0,0,0
575.64,1.0714,13.807,0.22159,0.21183,0,0,0
576.64,1.0751,13.814,0.22294,0.21277,0,0,0
577.64,1.0788,13.821,0.22405,0.21394,0,0,0
578.64,1.0826,13.827,0.22516,0.21533,0,0,0
579.64,1.0874,13.834,0.22656,0.21605,0,0,0
580.64,1.0912,13.841,0.2273,0.21688,0,0,0
581.64,1.0955,13.848,0.22806,0.21773,0,0,0
582.64,1.0993,13.854,0.22893,0.21874,0,0,0
583.64,1.1029,13.861,0.23004,0.21986,0,0,0
584.64,1.1069,13.867,0.23104,0.221,0,0,0
585.64,1.1114,13.874,0.23206,0.22193,0,0,0
586.64,1.116,13.88,0.23348,0.22322,0,0,0
587.64,1.1202,13.887,0.23463,0.22354,0,0,0
588.64,1.1239,13.894,0.23625,0.2255,0,0,0
589.64,1.1279,13.9,0.23685,0.22669,0,0,0
590.64,1.1319,13.907,0.23782,0.22743,0,0,0
591.64,1.1365,13.913,0.23868,0.22919,0,0,0
592.64,1.1411,13.919,0.23975,0.23032,0,0,0
593.64,1.1454,13.925,0.24069,0.23119,0,0,0
594.64,1.1496,13.931,0.2417,0.23203,0,0,0
595.64,1.1535,13.938,0.24297,0.23323,0,0,0
596.64,1.1574,13.944,0.24417,0.23436,0,0,0
597.64,1.1616,13.95,0.24575,0.2358,0,0,0
598.64,1.1661,13.956,0.2472,0.23672,0,0,0
599.64,1.1705,13.963,0.24867,0.23781,0,0,0
600.64,1.1747,13.969,0.24988,0.23888,0,0,0
601.64,1.1786,13.975,0.2513,0.24003,0,0,0
602.64,1.1828,13.981,0.25266,0.2412,0,0,0
603.64,1.1873,13.988,0.25385,0.24263,0,0,0
604.64,1.1917,13.993,0.25503,0.24406,0,0,0
605.64,1.1959,14,0.25621,0.24538,0,0,0
606.64,1.2002,14.006,0.25749,0.24696,0,0,0
607.64,1.2043,14.011,0.25874,0.24856,0,0,0
608.64,1.2084,14.017,0.26032,0.24939,0,0,0
609.64,1.2127,14.023,0.26109,0.25016,0,0,0
610.64,1.2174,14.028,0.26216,0.25135,0,0,0
611.64,1.2219,14.034,0.26348,0.25204,0,0,0
612.64,1.2262,14.04,0.2646,0.25317,0,0,0
613.64,1.2304,14.046,0.26577,0.25464,0,0,0
614.64,1.2345,14.052,0.26676,0.25628,0,0,0
615.64,1.2392,14.057,0.26848,0.25756,0,0,0
616.64,1.2438,14.063,0.26927,0.25853,0,0,0
617.64,1.2486,14.068,0.27071,0.26052,0,0,0
618.64,1.2528,14.073,0.27245,0.26139,0,0,0
619.64,1.2572,14.079,0.27303,0.26279,0,0,0
620.64,1.2614,14.084,0.27431,0.26452,0,0,0
621.64,1.266,14.09,0.27559,0.26541,0,0,0
622.64,1.2707,14.095,0.2762,0.2669,0,0,0
623.64,1.2756,14.101,0.27718,0.26847,0,0,0
624.64,1.2799,14.106,0.27848,0.27032,0,0,0
625.64,1.2839,14.112,0.27933,0.27128,0,0,0
626.64,1.2884,14.116,0.28111,0.27269,0,0,0
627.64,1.2929,14.121,0.28203,0.2744,0,0,0
628.64,1.2974,14.126,0.28286,0.27571,0,0,0
629.64,1.3022,14.131,0.28385,0.27692,0,0,0
630.64,1.3068,14.136,0.28542,0.27804,0,0,0
631.64,1.3109,14.142,0.28659,0.27947,0,0,0
632.64,1.3154,14.147,0.28784,0.2807,0,0,0
633.64,1.3201,14.152,0.28957,0.28215,0,0,0
634.64,1.3246,14.156,0.29111,0.2834,0,0,0
635.64,1.3293,14.161,0.29244,0.28462,0,0,0
636.64,1.3338,14.166,0.2937,0.28579,0,0,0
637.64,1.3382,14.171,0.29518,0.2871,0,0,0
638.64,1.3426,14.176,0.2969,0.28859,0,0,0
639.64,1.347,14.181,0.29806,0.28983,0,0,0
640.64,1.352,14.185,0.29934,0.29124,0,0,0
641.64,1.3568,14.19,0.30017,0.29297,0,0,0
642.64,1.3614,14.195,0.30157,0.29458,0,0,0
643.64,1.3654,14.199,0.30328,0.2964,0,0,0
644.64,1.3701,14.204,0.30443,0.2978,0,0,0
645.64,1.3748,14.208,0.30614,0.29871,0,0,0
646.64,1.38,14.213,0.30799,0.30023,0,0,0
647.64,1.3846,14.217,0.30952,0.30117,0,0,0
648.64,1.3894,14.222,0.31076,0.30295,0,0,0
649.64,1.3939,14.227,0.3117,0.30511,0,0,0
650.64,1.3987,14.231,0.31328,0.3071,0,0,0
651.64,1.4036,14.236,0.31454,0.30837,0,0,0
652.64,1.4087,14.24,0.31596,0.30975,0,0,0
653.64,1.4136,14.243,0.31765,0.3115,0,0,0
654.64,1.4183,14.248,0.31948,0.31269,0,0,0
655.64,1.4229,14.252,0.32073,0.3139,0,0,0
656.64,1.4277,14.255,0.32284,0.31591,0,0,0
657.64,1.4328,14.26,0.32464,0.31822,0,0,0
658.64,1.4377,14.263,0.32612,0.31969,0,0,0
659.64,1.4428,14.267,0.32801,0.32157,0,0,0
660.64,1.4472,14.271,0.32984,0.32243,0,0,0
661.64,1.4522,14.275,0.33098,0.32468,0,0,0
662.64,1.457,14.279,0.33236,0.32612,0,0,0
663.64,1.4619,14.283,0.33426,0.32824,0,0,0
664.64,1.4671,14.286,0.33551,0.3305,0,0,0
665.64,1.4719,14.29,0.33698,0.3319,0,0,0
666.64,1.4767,14.293,0.33865,0.33371,0,0,0
667.64,1.4814,14.297,0.34101,0.33534,0,0,0
668.64,1.4864,14.301,0.34212,0.33667,0,0,0
669.64,1.492,14.303,0.34329,0.33832,0,0,0
670.64,1.4971,14.307,0.34468,0.34033,0,0,0
671.64,1.5021,14.311,0.34632,0.34249,0,0,0
672.64,1.5067,14.314,0.3477,0.34369,0,0,0
673.64,1.5116,14.317,0.35019,0.3454,0,0,0
674.64,1.5169,14.32,0.35229,0.34716,0,0,0
675.64,1.5218,14.323,0.35394,0.34894,0,0,0
676.64,1.5274,14.327,0.35529,0.3516,0,0,0
677.64,1.5323,14.33,0.35631,0.35348,0,0,0
678.64,1.5373,14.332,0.35796,0.35506,0,0,0
679.64,1.5426,14.335,-Inf,0.35706,0,0,0
680.64,1.5476,14.338,-Inf,0.35847,0,0,0
681.64,1.5534,14.34,-Inf,0.36046,0,0,0
682.64,1.5585,14.343,-Inf,-Inf,0,0,0
683.64,1.5636,14.346,-Inf,-Inf,0,0,0
684.64,1.5684,14.349,-Inf,-Inf,0,0,0
685.64,1.5742,14.351,-Inf,-Inf,0,0,0
686.64,1.5797,14.353,-Inf,-Inf,0,0,0
687.64,1.5852,14.355,-Inf,-Inf,0,0,0
688.64,1.5904,14.357,-Inf,-Inf,0,0,0
689.64,1.5956,14.359,-Inf,-Inf,0,0,0
690.64,1.601,14.361,-Inf,-Inf,0,0,0
691.64,1.6067,14.363,-Inf,-Inf,0,0,0
692.64,1.6124,14.365,-Inf,-Inf,0,0,0
693.64,1.6181,14.367,-Inf,-Inf,0,0,0
694.64,1.6234,14.368,-Inf,-Inf,0,0,0
695.64,1.6285,14.37,-Inf,-Inf,0,0,0
696.64,1.6342,14.371,-Inf,-Inf,0,0,0
697.64,1.6401,14.373,-Inf,-Inf,0,0,0
698.64,1.6457,14.374,-Inf,-Inf,0,0,0
699.64,1.6515,14.375,-Inf,-Inf,0,0,0
700.64,1.6567,14.376,-Inf,-Inf,0,0,0
701.64,1.6623,14.377,-Inf,-Inf,0,0,0
702.64,1.6682,14.378,-Inf,-Inf,0,0,0
703.64,1.674,14.378,-Inf,-Inf,0,0,0
704.64,1.6797,14.378,-Inf,-Inf,0,0,0
705.64,1.6852,14.378,-Inf,-Inf,0,0,0
706.64,1.6909,14.379,-Inf,-Inf,0,0,0
707.64,1.6968,14.379,-Inf,-Inf,0,0,0
708.64,1.7029,14.379,-Inf,-Inf,0,0,0
709.64,1.7088,14.379,-Inf,-Inf,0,0,0
710.64,1.7148,14.378,-Inf,-Inf,0,0,0
711.64,1.7204,14.378,-Inf,-Inf,0,0,0
712.64,1.7267,14.377,-Inf,-Inf,0,0,0
713.64,1.733,14.375,-Inf,-Inf,0,0,0
714.64,1.7392,14.374,-Inf,-Inf,0,0,0
715.64,1.7453,14.372,-Inf,-Inf,0,0,0
716.64,1.7508,14.371,-Inf,-Inf,0,0,0
717.64,1.7572,14.369,-Inf,-Inf,0,0,0
718.64,1.7638,14.367,-Inf,-Inf,0,0,0
719.64,1.7701,14.365,-Inf,-Inf,0,0,0
720.64,1.7766,14.362,-Inf,-Inf,0,0,0
721.64,1.7829,14.358,-Inf,-Inf,0,0,0
722.64,1.7891,14.355,-Inf,-Inf,0,0,0
723.64,1.7958,14.351,-Inf,-Inf,0,0,0
724.64,1.8026,14.346,-Inf,-Inf,0,0,0
725.64,1.809,14.341,-Inf,-Inf,0,0,0
726.64,1.8155,14.336,-Inf,-Inf,0,0,0
727.64,1.8223,14.33,-Inf,-Inf,0,0,0
728.64,1.8291,14.323,-Inf,-Inf,0,0,0
729.64,1.8362,14.316,-Inf,-Inf,0,0,0
730.64,1.843,14.307,-Inf,-Inf,0,0,0
731.64,1.8496,14.297,-Inf,-Inf,0,0,0
732.64,1.8571,14.286,-Inf,-Inf,0,0,0
733.64,1.8647,14.273,-Inf,-Inf,0,0,0
734.64,1.8722,14.258,-Inf,-Inf,0,0,0
735.64,1.8798,14.24,-Inf,-Inf,0,0,0
736.64,1.8875,14.22,-Inf,-Inf,0,0,0
737.64,1.8959,14.192,-Inf,-Inf,0,0,0
738.64,1.9049,14.159,-Inf,-Inf,0,0,0
739.14,1.9097,14.139,-Inf,-Inf,0,0,0