File: polyN_optimization/DP600_results/DATA/CH_45_3.csv
Time[s],Displacement[mm],Force[kN],AxStrain_1,AxStrain_2,Thickness[mm],OuterWidth[mm],Diameter[mm]
0.6,0,-0.019569,0,0,1.5223,20,4.9589
1.6,1.6e-05,-0.022137,6.0998e-05,-0.00018802,0,0,0
2.61,0.000472,0.019846,0.00014799,1.6e-05,0,0,0
3.6,0.00068,0.087133,0.00010599,-0.00040308,0,0,0
4.61,0.000675,0.14771,0.00021498,1e-06,0,0,0
5.61,0.000995,0.19928,0.00022597,-0.00020502,0,0,0
6.61,0.000922,0.23942,0.00014199,-0.00026003,0,0,0
7.61,0.000709,0.27485,0.00015199,-0.00033906,0,0,0
8.61,0.000777,0.30956,8.5996e-05,-0.00021002,0,0,0
9.61,0.000947,0.34457,-0.00032705,-8.1003e-05,0,0,0
10.61,0.000983,0.38185,-0.00037107,-0.00029004,0,0,0
11.61,0.001183,0.41771,-0.00021402,-0.00012801,0,0,0
12.61,0.001328,0.45442,3e-06,0.00016099,0,0,0
13.61,0.001445,0.49285,0.00012199,0,0,0,0
14.61,0.001513,0.52942,0.00016899,3.9999e-05,0,0,0
15.61,0.001377,0.56385,0.00034394,-6.9002e-05,0,0,0
16.61,0.001675,0.60428,0.00018898,-0.00031405,0,0,0
17.61,0.001672,0.64356,0.00032795,-3.3001e-05,0,0,0
18.61,0.001586,0.68185,0.00017498,-0.00022803,0,0,0
19.61,0.001791,0.72228,3.9999e-05,-0.00018502,0,0,0
20.61,0.001755,0.76114,6.9998e-05,-8.9004e-05,0,0,0
21.61,0.001669,0.80185,-0.00012201,-3e-06,0,0,0
22.61,0.002132,0.84328,-0.00014601,-8.6004e-05,0,0,0
23.61,0.002132,0.88214,-4.0001e-05,0.00025797,0,0,0
24.61,0.002307,0.91957,0.00025797,7.8997e-05,0,0,0
25.61,0.002543,0.96299,0.00045989,-7.6003e-05,0,0,0
26.61,0.002774,1.005,0.00059582,-0.00012601,0,0,0
27.61,0.002602,1.0443,0.00054285,-0.00015201,0,0,0
28.61,0.002731,1.0849,0.00059582,-0.00013901,0,0,0
29.61,0.002837,1.1254,0.00028496,-3.6001e-05,0,0,0
30.61,0.002744,1.1671,0.00013899,-0.00012901,0,0,0
31.61,0.002917,1.2091,-7.6003e-05,-7e-06,0,0,0
32.6,0.0029,1.2494,6.2998e-05,-0.00020502,0,0,0
33.6,0.003453,1.2876,0.00029096,-7e-06,0,0,0
34.6,0.00384,1.331,0.00033095,-0.00016201,0,0,0
35.6,0.004039,1.372,0.00067177,0.00011299,0,0,0
36.6,0.004036,1.4109,0.00064879,0.00022198,0,0,0
37.6,0.004238,1.4529,0.00073473,-0.00013201,0,0,0
38.6,0.004095,1.4934,0.00076471,-2.6e-05,0,0,0
39.6,0.004006,1.5344,0.0006318,-0.00032105,0,0,0
40.6,0.003989,1.5769,0.00041991,-0.00026103,0,0,0
41.6,0.00386,1.6167,0.00026796,1.7e-05,0,0,0
42.6,0.004291,1.6546,0.00018898,1.7e-05,0,0,0
43.6,0.004668,1.6973,0.00033794,5.5998e-05,0,0,0
44.6,0.004949,1.7383,0.00045989,6.2998e-05,0,0,0
45.6,0.005218,1.7776,0.0004469,0.00020198,0,0,0
46.6,0.005499,1.8183,0.00086363,0.00023797,0,0,0
47.6,0.005297,1.8571,0.0007707,1.7e-05,0,0,0
48.6,0.005006,1.8974,0.00095954,-0.00015601,0,0,0
49.6,0.005012,1.9391,0.00080368,-0.00010601,0,0,0
50.6,0.005168,1.9801,0.00053985,-0.00020502,0,0,0
51.6,0.005198,2.0191,0.00058283,-9.6005e-05,0,0,0
52.6,0.00537,2.0573,0.00046689,0.00024197,0,0,0
53.6,0.006059,2.0971,0.00046289,0.00027096,0,0,0
54.6,0.006463,2.1357,0.00056884,0.00035394,0,0,0
55.6,0.006992,2.1776,0.00079468,0.00017898,0,0,0
56.6,0.00688,2.2183,0.0010355,0.00038693,0,0,0
57.6,0.006641,2.2564,0.0012972,0.00015199,0,0,0
58.6,0.006353,2.2957,0.00088361,0.00023797,0,0,0
59.6,0.00642,2.3367,0.0010055,2e-05,0,0,0
60.6,0.006363,2.3777,0.00086063,2e-05,0,0,0
61.6,0.006218,2.4169,0.00060582,9.8995e-05,0,0,0
62.6,0.006698,2.4561,0.0006258,0.00026197,0,0,0
63.6,0.006983,2.4964,0.00068876,0.00012599,0,0,0
64.61,0.007827,2.5371,0.00070775,0.00030495,0,0,0
65.61,0.008105,2.5771,0.00097652,0.00027096,0,0,0
66.61,0.008194,2.6179,0.0010954,0.00041691,0,0,0
67.61,0.008257,2.6567,0.0012342,0.00022198,0,0,0
68.61,0.007794,2.697,0.0011443,0.00030095,0,0,0
69.61,0.007744,2.738,0.0011613,-1.3e-05,0,0,0
70.61,0.007711,2.7783,0.00083065,-5.6002e-05,0,0,0
71.61,0.007678,2.8174,0.00067477,0.00016599,0,0,0
72.61,0.008079,2.8584,0.00056884,0.00042691,0,0,0
73.61,0.008496,2.8991,0.00058283,0.00041691,0,0,0
74.61,0.009085,2.9391,0.0006358,0.00059882,0,0,0
75.61,0.009708,2.9794,0.0008936,0.00070475,0,0,0
76.61,0.009671,3.018,0.0010455,0.00075472,0,0,0
77.61,0.009678,3.0587,0.0013431,0.00043391,0,0,0
78.61,0.009208,3.099,0.0012073,0.00051287,0,0,0
79.61,0.008927,3.1379,0.001399,0.00032395,0,0,0
80.61,0.009023,3.1771,0.0010584,0.00024197,0,0,0
81.61,0.00899,3.2171,0.00086363,0.00042691,0,0,0
82.61,0.009291,3.2574,0.00056284,0.00019898,0,0,0
83.61,0.01001,3.2981,0.0007807,0.00035794,0,0,0
84.61,0.010659,3.3381,0.00061581,0.00059282,0,0,0
85.61,0.011033,3.3764,0.0010025,0.0004469,0,0,0
86.61,0.011453,3.4164,0.0010754,0.00058283,0,0,0
87.61,0.011103,3.456,0.0014619,0.00050987,0,0,0
88.61,0.01052,3.4949,0.0012312,0.00049288,0,0,0
89.61,0.01047,3.5337,0.0015119,0.0004439,0,0,0
90.61,0.010093,3.5737,0.0010684,0.00054585,0,0,0
91.61,0.010408,3.6137,0.00088061,0.00027796,0,0,0
92.61,0.01063,3.6537,0.00084764,0.0006318,0,0,0
93.61,0.011318,3.6941,0.00085763,0.0007777,0,0,0
94.61,0.011795,3.732,0.00085364,0.00080068,0,0,0
95.61,0.012669,3.7713,0.00094355,0.00058883,0,0,0
96.61,0.012898,3.8114,0.0011084,0.0010195,0,0,0
97.61,0.012772,3.8496,0.0013761,0.00098951,0,0,0
98.6,0.012232,3.8877,0.0015418,0.00083765,0,0,0
99.61,0.011898,3.9274,0.0014589,0.00088361,0,0,0
100.61,0.011822,3.9664,0.0013032,0.00065179,0,0,0
101.61,0.011878,4.0061,0.0012272,0.00059882,0,0,0
102.6,0.012199,4.0459,0.00095654,0.00065179,0,0,0
103.61,0.012617,4.0833,0.0010554,0.00088661,0,0,0
104.61,0.013676,4.1237,0.0010155,0.0011783,0,0,0
105.61,0.014063,4.1634,0.0013501,0.00098252,0,0,0
106.61,0.014709,4.2023,0.0014889,0.0011583,0,0,0
107.6,0.014424,4.2404,0.0018852,0.0011583,0,0,0
108.6,0.01404,4.2801,0.0017195,0.00092657,0,0,0
109.6,0.01361,4.3201,0.0017205,0.00099251,0,0,0
110.6,0.013378,4.3601,0.0017195,0.00079468,0,0,0
111.61,0.013444,4.4001,0.0015877,0.00082766,0,0,0
112.6,0.013809,4.438,0.0012572,0.0010924,0,0,0
113.61,0.014338,4.4777,0.0012243,0.00092657,0,0,0
114.61,0.015365,4.517,0.0012243,0.0014889,0,0,0
115.61,0.015729,4.5559,0.001423,0.001423,0,0,0
116.6,0.016226,4.5944,0.001984,0.001423,0,0,0
117.61,0.016159,4.6334,0.0021497,0.0014889,0,0,0
118.61,0.015895,4.6731,0.0020838,0.0013561,0,0,0
119.61,0.015266,4.7124,0.0022485,0.0011254,0,0,0
120.6,0.014902,4.7519,0.0018523,0.0010255,0,0,0
121.61,0.014935,4.7887,0.0018193,0.0011913,0,0,0
122.61,0.015365,4.8277,0.0016536,0.00099251,0,0,0
123.61,0.016093,4.866,0.0014889,0.0013231,0,0,0
124.6,0.016789,4.9033,0.0014889,0.0012243,0,0,0
125.6,0.017385,4.9404,0.0018193,0.0014889,0,0,0
126.6,0.017915,4.9794,0.0017864,0.0016866,0,0,0
127.61,0.017915,5.0177,0.0023143,0.0015548,0,0,0
128.6,0.017948,5.0564,0.0025458,0.001423,0,0,0
129.6,0.017319,5.0951,0.0022814,0.0011254,0,0,0
130.6,0.016922,5.1317,0.0023143,0.0011913,0,0,0
131.6,0.01679,5.1707,0.001984,0.0011254,0,0,0
132.6,0.017154,5.2094,0.0018193,0.0010255,0,0,0
133.6,0.017816,5.247,0.0017535,0.0011913,0,0,0
134.6,0.018478,5.2844,0.0016207,0.0011254,0,0,0
135.6,0.019306,5.3234,0.0018193,0.0013561,0,0,0
136.6,0.019836,5.3624,0.0022155,0.0017535,0,0,0
137.6,0.019936,5.4011,0.0024141,0.0017205,0,0,0
138.6,0.019837,5.4394,0.0026126,0.0015548,0,0,0
139.6,0.019539,5.4764,0.0026455,0.0012243,0,0,0
140.6,0.019042,5.5147,0.0025787,0.001423,0,0,0
141.6,0.019009,5.5537,0.0023153,0.00139,0,0,0
142.6,0.01901,5.5913,0.0021497,0.0013231,0,0,0
143.6,0.019738,5.6281,0.002018,0.00139,0,0,0
144.6,0.020765,5.6671,0.002018,0.0015877,0,0,0
145.6,0.021427,5.7064,0.0021826,0.0016876,0,0,0
146.6,0.021857,5.7447,0.0023812,0.0021168,0,0,0
147.6,0.021858,5.7834,0.0026784,0.0022485,0,0,0
148.6,0.021858,5.82,0.0028769,0.0018523,0,0,0
149.6,0.021196,5.858,0.003173,0.0017864,0,0,0
150.6,0.021031,5.8964,0.0029427,0.0016876,0,0,0
151.6,0.020799,5.9333,0.0026455,0.0016866,0,0,0
152.6,0.021031,5.9709,0.0023812,0.0017535,0,0,0
153.6,0.021759,6.0094,0.0023482,0.0017535,0,0,0
154.6,0.02262,6.0481,0.0022824,0.001985,0,0,0
155.6,0.02325,6.0871,0.0023812,0.0021826,0,0,0
156.6,0.023813,6.1261,0.0024141,0.0025128,0,0,0
157.6,0.024044,6.162,0.0029088,0.0026116,0,0,0
158.6,0.024045,6.2007,0.0033384,0.0023153,0,0,0
159.6,0.023714,6.2394,0.0033713,0.0023153,0,0,0
160.6,0.023648,6.277,0.0032726,0.0022824,0,0,0
161.6,0.023383,6.3141,0.0029756,0.0019182,0,0,0
162.6,0.02378,6.3529,0.0026455,0.0021168,0,0,0
163.6,0.024277,6.3911,0.0025128,0.0021826,0,0,0
164.6,0.025072,6.4291,0.0025787,0.0026455,0,0,0
165.6,0.025502,6.4671,0.0026126,0.0025468,0,0,0
166.6,0.026098,6.5034,0.0029756,0.0028769,0,0,0
167.6,0.026363,6.5407,0.0034042,0.0029098,0,0,0
168.6,0.026463,6.5784,0.0038655,0.0027771,0,0,0
169.6,0.026463,6.6153,0.0040309,0.0027771,0,0,0
170.6,0.026463,6.6521,0.0038994,0.0024141,0,0,0
171.6,0.026496,6.6901,0.0037669,0.0023482,0,0,0
172.6,0.026463,6.7277,0.0033055,0.0025468,0,0,0
173.6,0.027324,6.7661,0.0032397,0.0025797,0,0,0
174.6,0.027986,6.8039,0.0032397,0.0030743,0,0,0
175.6,0.028483,6.8394,0.0032726,0.0033384,0,0,0
176.6,0.028682,6.8777,0.0035029,0.0035696,0,0,0
177.6,0.028947,6.9174,0.003998,0.0038994,0,0,0
178.6,0.029245,6.9523,0.0045257,0.0033713,0,0,0
179.6,0.029444,6.9891,0.0049209,0.0032726,0,0,0
180.6,0.029709,7.0283,0.0046243,0.0032726,0,0,0
181.6,0.029974,7.0656,0.0043605,0.0032726,0,0,0
182.6,0.029842,7.1019,0.004229,0.0032726,0,0,0
183.6,0.030769,7.1406,0.0038994,0.0033713,0,0,0
184.6,0.0312,7.1744,0.0039651,0.003735,0,0,0
185.6,0.031729,7.2114,0.0040966,0.0040976,0,0,0
186.6,0.032094,7.2501,0.0042619,0.0044272,0,0,0
187.6,0.032458,7.2843,0.0050194,0.0046571,0,0,0
188.6,0.032657,7.3199,0.0056132,0.00446,0,0,0
189.6,0.032956,7.358,0.0056122,0.0042958,0,0,0
190.6,0.033585,7.395,0.0055466,0.0040647,0,0,0
191.6,0.033982,7.4301,0.0053168,0.003999,0,0,0
192.6,0.034479,7.4664,0.0049537,0.003999,0,0,0
193.6,0.034976,7.5007,0.0049219,0.0040319,0,0,0
194.6,0.035307,7.5367,0.0048224,0.0041633,0,0,0
195.6,0.035639,7.5761,0.0048562,0.0048552,0,0,0
196.6,0.035871,7.6103,0.0054153,0.0054153,0,0,0
197.6,0.036401,7.6451,0.0061073,0.0053825,0,0,0
198.6,0.036765,7.6823,0.0066657,0.0051855,0,0,0
199.6,0.037461,7.7183,0.0069627,0.004889,0,0,0
200.6,0.038223,7.7527,0.0068962,0.0046253,0,0,0
201.6,0.038885,7.7891,0.0065346,0.0045267,0,0,0
202.6,0.039879,7.8227,0.0062395,0.0045924,0,0,0
203.6,0.040342,7.8581,0.0059095,0.0048233,0,0,0
204.6,0.04064,7.8951,0.0059095,0.0049875,0,0,0
205.6,0.040608,7.9276,0.0060745,0.0053178,0,0,0
206.6,0.041005,7.9621,0.0067323,0.0058767,0,0,0
207.6,0.041403,7.9983,0.0073569,0.0061073,0,0,0
208.6,0.041966,8.0333,0.0081785,0.0063707,0,0,0
209.6,0.043092,8.0671,0.0085722,0.0059105,0,0,0
210.6,0.044218,8.1011,0.0084076,0.0058121,0,0,0
211.6,0.045542,8.1341,0.0079483,0.0054829,0,0,0
212.6,0.046668,8.1684,0.0077836,0.005648,0,0,0
213.6,0.0469,8.2049,0.0076189,0.0059443,0,0,0
214.6,0.047331,8.2367,0.0074551,0.0064044,0,0,0
215.6,0.047431,8.2699,0.0076189,0.0069965,0,0,0
216.6,0.047663,8.3053,0.0084403,0.0075226,0,0,0
217.6,0.048425,8.3393,0.0092937,0.0081467,0,0,0
218.6,0.049219,8.3719,0.010047,0.0079493,0,0,0
219.6,0.050643,8.4059,0.01031,0.0076536,0,0,0
220.6,0.051935,8.4381,0.010507,0.0075554,0,0,0
221.6,0.053425,8.4739,0.010047,0.0074571,0,0,0
222.6,0.054684,8.507,0.0098513,0.0074909,0,0,0
223.6,0.055247,8.5396,0.0096216,0.0075236,0,0,0
224.6,0.055677,8.5729,0.0095889,0.0081804,0,0,0
225.6,0.056208,8.6057,0.009785,0.0086069,0,0,0
226.6,0.056738,8.638,0.010703,0.0094274,0,0,0
227.6,0.057467,8.6694,0.011587,0.0098216,0,0,0
228.6,0.058858,8.7021,0.012242,0.0097889,0,0,0
229.6,0.060249,8.7331,0.012895,0.0099196,0,0,0
230.6,0.061673,8.7659,0.012666,0.0098216,0,0,0
231.6,0.062932,8.7991,0.012569,0.0095928,0,0,0
232.6,0.064125,8.829,0.012307,0.0095938,0,0,0
233.6,0.065251,8.8599,0.012274,0.0097909,0,0,0
234.6,0.066212,8.892,0.01234,0.010446,0,0,0
235.6,0.06704,8.9233,0.012863,0.011427,0,0,0
236.6,0.068464,8.9539,0.013549,0.011984,0,0,0
237.6,0.070054,8.9841,0.014725,0.012703,0,0,0
238.6,0.07128,9.0139,0.015246,0.012736,0,0,0
239.6,0.072307,9.0449,0.015671,0.012802,0,0,0
240.6,0.073301,9.0761,0.015768,0.012607,0,0,0
241.6,0.074063,9.1044,0.015769,0.012379,0,0,0
242.6,0.075156,9.1336,0.015606,0.012412,0,0,0
243.6,0.076614,9.1643,0.015607,0.012869,0,0,0
244.6,0.07827,9.1947,0.015672,0.013556,0,0,0
245.6,0.080158,9.2229,0.016226,0.014338,0,0,0
246.6,0.08231,9.2521,0.016909,0.014958,0,0,0
247.6,0.083933,9.2806,0.01756,0.015414,0,0,0
248.6,0.08539,9.3096,0.018569,0.01561,0,0,0
249.6,0.086384,9.3399,0.019056,0.016001,0,0,0
250.6,0.08718,9.3667,0.019478,0.015806,0,0,0
251.6,0.088074,9.3941,0.019413,0.015644,0,0,0
252.6,0.089465,9.4234,0.019349,0.016067,0,0,0
253.6,0.091253,9.4514,0.019413,0.016426,0,0,0
254.6,0.093274,9.4789,0.019413,0.017076,0,0,0
255.6,0.095194,9.5071,0.020095,0.017728,0,0,0
256.6,0.096817,9.5336,0.020679,0.018376,0,0,0
257.6,0.098507,9.5616,0.021393,0.018896,0,0,0
258.6,0.099765,9.5909,0.021975,0.01906,0,0,0
259.6,0.10149,9.616,0.022266,0.01932,0,0,0
260.6,0.10331,9.6429,0.022784,0.019321,0,0,0
261.6,0.10503,9.671,0.023076,0.01945,0,0,0
262.6,0.10751,9.6983,0.022914,0.0201,0,0,0
263.6,0.1092,9.7246,0.022947,0.02052,0,0,0
264.6,0.11089,9.7516,0.0234,0.020943,0,0,0
265.6,0.11228,9.7776,0.02395,0.02172,0,0,0
266.6,0.11348,9.8043,0.024498,0.022142,0,0,0
267.6,0.1147,9.8319,0.024919,0.022337,0,0,0
268.6,0.11686,9.8564,0.025564,0.022757,0,0,0
269.6,0.11934,9.8816,0.025984,0.022984,0,0,0
270.6,0.12159,9.9084,0.026371,0.023081,0,0,0
271.6,0.12394,9.9344,0.026629,0.023726,0,0,0
272.6,0.12586,9.9589,0.027145,0.02405,0,0,0
273.6,0.12755,9.9846,0.0275,0.024439,0,0,0
274.6,0.12931,10.009,0.028048,0.024859,0,0,0
275.6,0.13123,10.034,0.028306,0.025408,0,0,0
276.6,0.13318,10.061,0.028821,0.025861,0,0,0
277.6,0.13527,10.084,0.029207,0.026505,0,0,0
278.6,0.13759,10.108,0.029594,0.026633,0,0,0
279.6,0.13941,10.134,0.030107,0.027279,0,0,0
280.6,0.14103,10.158,0.030654,0.027567,0,0,0
281.6,0.14266,10.182,0.031137,0.028147,0,0,0
282.6,0.14448,10.207,0.03178,0.028565,0,0,0
283.6,0.14673,10.23,0.032421,0.028823,0,0,0
284.6,0.14889,10.254,0.032838,0.029371,0,0,0
285.6,0.1519,10.279,0.033191,0.030046,0,0,0
286.6,0.15425,10.3,0.033478,0.030431,0,0,0
287.6,0.1566,10.324,0.033673,0.03117,0,0,0
288.6,0.15849,10.348,0.034312,0.031394,0,0,0
289.6,0.16054,10.371,0.034535,0.03197,0,0,0
290.6,0.16207,10.394,0.035176,0.032226,0,0,0
291.6,0.16419,10.418,0.035655,0.032805,0,0,0
292.6,0.16657,10.44,0.036613,0.033124,0,0,0
293.6,0.16912,10.463,0.037059,0.033701,0,0,0
294.6,0.17154,10.487,0.037314,0.03415,0,0,0
295.6,0.17346,10.507,0.037825,0.034758,0,0,0
296.6,0.17515,10.529,0.038111,0.035397,0,0,0
297.6,0.17697,10.552,0.038622,0.0361,0,0,0
298.6,0.17943,10.575,0.039132,0.036801,0,0,0
299.6,0.18207,10.596,0.039481,0.037184,0,0,0
300.6,0.18499,10.618,0.040086,0.037758,0,0,0
301.6,0.1878,10.639,0.040943,0.037824,0,0,0
302.6,0.18999,10.661,0.041579,0.038173,0,0,0
303.6,0.19208,10.684,0.041929,0.038716,0,0,0
304.6,0.1939,10.703,0.042214,0.039479,0,0,0
305.6,0.19602,10.724,0.042629,0.039894,0,0,0
306.6,0.19824,10.746,0.042946,0.040943,0,0,0
307.6,0.20115,10.767,0.043422,0.041199,0,0,0
308.6,0.20367,10.788,0.044056,0.042213,0,0,0
309.6,0.20579,10.809,0.044752,0.042499,0,0,0
310.6,0.20794,10.829,0.045228,0.0425,0,0,0
311.6,0.21003,10.85,0.045797,0.042753,0,0,0
312.6,0.21199,10.872,0.046177,0.043229,0,0,0
313.6,0.2146,10.891,0.046591,0.043959,0,0,0
314.6,0.21765,10.911,0.046494,0.045005,0,0,0
315.6,0.22053,10.931,0.047348,0.045478,0,0,0
316.6,0.22328,10.952,0.047822,0.0463,0,0,0
317.6,0.2257,10.971,0.048518,0.046838,0,0,0
318.6,0.22805,10.991,0.048897,0.04687,0,0,0
319.6,0.23011,11.011,0.04978,0.047313,0,0,0
320.6,0.23256,11.03,0.050158,0.047566,0,0,0
321.6,0.23517,11.051,0.050631,0.048134,0,0,0
322.6,0.23796,11.068,0.050976,0.048859,0,0,0
323.6,0.24074,11.087,0.051481,0.049553,0,0,0
324.6,0.24283,11.107,0.05167,0.050402,0,0,0
325.6,0.24478,11.126,0.052425,0.051188,0,0,0
326.6,0.24694,11.145,0.053272,0.051505,0,0,0
327.6,0.24912,11.165,0.053838,0.051881,0,0,0
328.6,0.25187,11.183,0.054183,0.052164,0,0,0
329.6,0.25518,11.202,0.054935,0.052762,0,0,0
330.6,0.25837,11.221,0.055312,0.053266,0,0,0
331.6,0.26098,11.239,0.055842,0.053987,0,0,0
332.6,0.26333,11.258,0.056438,0.054645,0,0,0
333.6,0.26555,11.277,0.057002,0.055427,0,0,0
334.6,0.26814,11.295,0.057441,0.055771,0,0,0
335.6,0.27109,11.314,0.058314,0.056429,0,0,0
336.6,0.27433,11.333,0.058907,0.056712,0,0,0
337.6,0.27708,11.35,0.059626,0.057087,0,0,0
338.6,0.27967,11.37,0.059905,0.057369,0,0,0
339.6,0.28169,11.387,0.060839,0.057963,0,0,0
340.6,0.28401,11.404,0.061216,0.058872,0,0,0
341.6,0.28596,11.422,0.061651,0.05965,0,0,0
342.6,0.28874,11.44,0.062274,0.060087,0,0,0
343.6,0.29202,11.458,0.062803,0.060865,0,0,0
344.6,0.29501,11.475,0.06327,0.061455,0,0,0
345.6,0.29775,11.493,0.06417,0.061923,0,0,0
346.6,0.30021,11.509,0.064357,0.062515,0,0,0
347.6,0.30262,11.527,0.065072,0.062796,0,0,0
348.6,0.30541,11.544,0.065321,0.063233,0,0,0
349.6,0.30832,11.56,0.066128,0.064041,0,0,0
350.6,0.31177,11.577,0.066563,0.064508,0,0,0
351.6,0.31488,11.595,0.067461,0.065159,0,0,0
352.6,0.31773,11.611,0.068113,0.06581,0,0,0
353.6,0.32011,11.628,0.068269,0.06646,0,0,0
354.6,0.32253,11.645,0.068516,0.067048,0,0,0
355.6,0.32518,11.661,0.06935,0.067605,0,0,0
356.6,0.32777,11.679,0.069538,0.06813,0,0,0
357.6,0.33072,11.694,0.070279,0.068843,0,0,0
358.6,0.33383,11.71,0.07096,0.06937,0,0,0
359.6,0.33671,11.727,0.07136,0.070142,0,0,0
360.6,0.3392,11.743,0.072378,0.070513,0,0,0
361.6,0.34162,11.758,0.072998,0.071004,0,0,0
362.6,0.34413,11.775,0.073399,0.071868,0,0,0
363.6,0.34731,11.791,0.073617,0.072114,0,0,0
364.6,0.35053,11.806,0.074171,0.072699,0,0,0
365.6,0.35411,11.821,0.074296,0.073437,0,0,0
366.6,0.35719,11.838,0.075097,0.074207,0,0,0
367.6,0.35977,11.853,0.075649,0.075068,0,0,0
368.6,0.36216,11.869,0.076418,0.075528,0,0,0
369.6,0.36497,11.884,0.077123,0.07602,0,0,0
370.6,0.36799,11.9,0.078044,0.07651,0,0,0
371.6,0.37137,11.915,0.078508,0.077002,0,0,0
372.6,0.37474,11.93,0.079122,0.077399,0,0,0
373.6,0.37733,11.944,0.079521,0.078104,0,0,0
374.6,0.37988,11.96,0.079796,0.07893,0,0,0
375.6,0.3823,11.974,0.080283,0.079909,0,0,0
376.6,0.38479,11.99,0.080711,0.080734,0,0,0
377.6,0.3877,12.005,0.081626,0.081465,0,0,0
378.6,0.39118,12.02,0.081723,0.081984,0,0,0
379.6,0.39443,12.034,0.082637,0.082566,0,0,0
380.6,0.39751,12.049,0.083492,0.083113,0,0,0
381.6,0.40019,12.064,0.0841,0.083357,0,0,0
382.6,0.40288,12.077,0.084253,0.084181,0,0,0
383.6,0.40576,12.093,0.084559,0.084911,0,0,0
384.6,0.40914,12.106,0.085318,0.085578,0,0,0
385.6,0.41268,12.12,0.085776,0.08655,0,0,0
386.6,0.41603,12.135,0.086322,0.086974,0,0,0
387.6,0.41921,12.149,0.08675,0.087521,0,0,0
388.6,0.42176,12.163,0.087418,0.087886,0,0,0
389.6,0.42428,12.177,0.087993,0.088884,0,0,0
390.6,0.42703,12.191,0.088327,0.089371,0,0,0
391.6,0.42981,12.204,0.089084,0.089946,0,0,0
392.6,0.43356,12.219,0.089661,0.090881,0,0,0
393.6,0.4365,12.232,0.089965,0.091094,0,0,0
394.6,0.43949,12.246,0.090573,0.09164,0,0,0
395.6,0.442,12.259,0.090995,0.092394,0,0,0
396.6,0.44452,12.273,0.09133,0.092698,0,0,0
397.6,0.44747,12.286,0.091999,0.093481,0,0,0
398.6,0.45098,12.3,0.092544,0.094205,0,0,0
399.6,0.45459,12.314,0.092607,0.095018,0,0,0
400.6,0.45807,12.327,0.092912,0.095922,0,0,0
401.6,0.46129,12.341,0.093545,0.096521,0,0,0
402.6,0.464,12.354,0.094122,0.096883,0,0,0
403.6,0.46682,12.367,0.094878,0.097305,0,0,0
404.6,0.4701,12.38,0.095573,0.097425,0,0,0
405.6,0.47384,12.394,0.096272,0.098177,0,0,0
406.6,0.47755,12.406,0.096875,0.098897,0,0,0
407.6,0.4806,12.419,0.097363,0.099678,0,0,0
408.6,0.48345,12.432,0.097929,0.10064,0,0,0
409.6,0.48613,12.444,0.098349,0.1015,0,0,0
410.6,0.48881,12.458,0.098742,0.10186,0,0,0
411.6,0.49193,12.47,0.099223,0.10222,0,0,0
412.6,0.49557,12.483,0.10024,0.10273,0,0,0
413.6,0.49908,12.497,0.10123,0.1032,0,0,0
414.6,0.5021,12.509,0.10183,0.10377,0,0,0
415.6,0.50501,12.521,0.10249,0.10443,0,0,0
416.6,0.50786,12.534,0.10318,0.10532,0,0,0
417.6,0.51091,12.547,0.10348,0.10604,0,0,0
418.6,0.51442,12.558,0.10381,0.10675,0,0,0
419.6,0.51823,12.572,0.10384,0.10729,0,0,0
420.6,0.52191,12.583,0.105,0.1077,0,0,0
421.6,0.52505,12.596,0.10539,0.10812,0,0,0
422.6,0.52813,12.608,0.10661,0.10892,0,0,0
423.6,0.53112,12.62,0.1072,0.10946,0,0,0
424.6,0.53433,12.632,0.10794,0.10987,0,0,0
425.6,0.53811,12.644,0.10866,0.11097,0,0,0
426.6,0.54168,12.656,0.10943,0.11174,0,0,0
427.6,0.54506,12.668,0.11,0.11251,0,0,0
428.6,0.54811,12.68,0.11086,0.11319,0,0,0
429.6,0.55089,12.691,0.11145,0.11381,0,0,0
430.6,0.55374,12.703,0.11227,0.11428,0,0,0
431.6,0.55705,12.715,0.11298,0.11517,0,0,0
432.6,0.5606,12.726,0.11354,0.11579,0,0,0
433.6,0.56421,12.737,0.11425,0.11626,0,0,0
434.6,0.56716,12.749,0.11499,0.1172,0,0,0
435.6,0.5703,12.76,0.11582,0.11776,0,0,0
436.6,0.57345,12.771,0.11641,0.11847,0,0,0
437.6,0.57643,12.784,0.11682,0.11953,0,0,0
438.6,0.57994,12.794,0.11785,0.12011,0,0,0
439.6,0.58372,12.805,0.11827,0.12082,0,0,0
440.6,0.5875,12.816,0.11906,0.12129,0,0,0
441.6,0.59074,12.828,0.12,0.12202,0,0,0
442.6,0.59392,12.839,0.12077,0.12278,0,0,0
443.6,0.59704,12.85,0.12088,0.12334,0,0,0
444.6,0.60038,12.862,0.12211,0.12393,0,0,0
445.6,0.60416,12.873,0.12256,0.12442,0,0,0
446.6,0.6081,12.884,0.1234,0.1253,0,0,0
447.6,0.61158,12.895,0.12442,0.12623,0,0,0
448.6,0.61496,12.907,0.12478,0.12731,0,0,0
449.6,0.61784,12.917,0.12554,0.12804,0,0,0
450.6,0.62089,12.928,0.12656,0.12877,0,0,0
451.6,0.6242,12.938,0.12697,0.12973,0,0,0
452.6,0.62761,12.949,0.12758,0.13016,0,0,0
453.6,0.63145,12.96,0.12826,0.13101,0,0,0
454.6,0.63506,12.971,0.12928,0.13159,0,0,0
455.6,0.63815,12.982,0.13013,0.13267,0,0,0
456.6,0.64116,12.992,0.13094,0.13342,0,0,0
457.6,0.64474,13.002,0.13181,0.13446,0,0,0
458.6,0.64795,13.013,0.13263,0.13536,0,0,0
459.6,0.65232,13.024,0.13318,0.13611,0,0,0
460.6,0.65587,13.034,0.13417,0.13672,0,0,0
461.6,0.65955,13.044,0.13495,0.13753,0,0,0
462.6,0.66266,13.054,0.13517,0.1381,0,0,0
463.6,0.66574,13.065,0.13618,0.13882,0,0,0
464.6,0.66922,13.075,0.13679,0.13966,0,0,0
465.6,0.67352,13.085,0.13749,0.14026,0,0,0
466.6,0.67743,13.095,0.13787,0.14135,0,0,0
467.6,0.68114,13.105,0.13859,0.1421,0,0,0
468.6,0.68426,13.116,0.13911,0.1427,0,0,0
469.6,0.6874,13.126,0.13992,0.14388,0,0,0
470.6,0.69068,13.136,0.1411,0.14508,0,0,0
471.6,0.69439,13.146,0.14162,0.14614,0,0,0
472.6,0.698,13.156,0.14265,0.14677,0,0,0
473.6,0.70181,13.166,0.14348,0.14774,0,0,0
474.6,0.70526,13.175,0.14422,0.14829,0,0,0
475.6,0.7084,13.186,0.1444,0.149,0,0,0
476.6,0.71161,13.195,0.14466,0.14966,0,0,0
477.6,0.71486,13.204,0.14564,0.15045,0,0,0
478.6,0.71874,13.214,0.1461,0.15142,0,0,0
479.6,0.72308,13.224,0.14724,0.15245,0,0,0
480.6,0.72682,13.235,0.14835,0.15361,0,0,0
481.6,0.73036,13.244,0.14918,0.1544,0,0,0
482.6,0.73364,13.254,0.15007,0.15539,0,0,0
483.6,0.73742,13.263,0.15081,0.1561,0,0,0
484.6,0.74119,13.273,0.15169,0.15661,0,0,0
485.6,0.74497,13.282,0.15217,0.15721,0,0,0
486.6,0.74921,13.292,0.15275,0.15828,0,0,0
487.6,0.75298,13.301,0.15354,0.15952,0,0,0
488.6,0.75633,13.311,0.15454,0.16093,0,0,0
489.6,0.75994,13.32,0.15604,0.16163,0,0,0
490.6,0.76352,13.329,0.15691,0.16217,0,0,0
491.6,0.76723,13.339,0.15765,0.16285,0,0,0
492.6,0.77143,13.348,0.15909,0.16355,0,0,0
493.6,0.77524,13.357,0.15969,0.1647,0,0,0
494.6,0.77849,13.366,0.16056,0.1656,0,0,0
495.6,0.78187,13.375,0.16194,0.16677,0,0,0
496.6,0.78525,13.384,0.16245,0.1677,0,0,0
497.6,0.78912,13.393,0.16317,0.16859,0,0,0
498.6,0.79326,13.402,0.16381,0.1691,0,0,0
499.6,0.79727,13.411,0.16457,0.16971,0,0,0
500.6,0.80071,13.42,0.16536,0.1701,0,0,0
501.6,0.80416,13.429,0.16662,0.17072,0,0,0
502.6,0.80767,13.437,0.16724,0.17194,0,0,0
503.6,0.81164,13.446,0.16875,0.17325,0,0,0
504.6,0.81585,13.455,0.16941,0.17439,0,0,0
505.6,0.81996,13.464,0.17016,0.17553,0,0,0
506.6,0.82386,13.472,0.17154,0.176,0,0,0
507.6,0.82751,13.481,0.17196,0.17664,0,0,0
508.6,0.83092,13.49,0.17307,0.17753,0,0,0
509.6,0.83469,13.499,0.17451,0.17817,0,0,0
510.6,0.83907,13.507,0.17541,0.17916,0,0,0
511.6,0.8433,13.516,0.17583,0.18049,0,0,0
512.6,0.84718,13.525,0.17682,0.18182,0,0,0
513.6,0.85102,13.533,0.17749,0.18262,0,0,0
514.6,0.85437,13.541,0.17825,0.18328,0,0,0
515.6,0.85784,13.55,0.1791,0.18361,0,0,0
516.6,0.86172,13.559,0.17954,0.1843,0,0,0
517.6,0.86609,13.567,0.18042,0.18518,0,0,0
518.6,0.87036,13.575,0.18128,0.186,0,0,0
519.6,0.87394,13.583,0.18241,0.18713,0,0,0
520.6,0.87732,13.592,0.18357,0.18862,0,0,0
521.6,0.88096,13.6,0.18426,0.18955,0,0,0
522.6,0.88497,13.608,0.18486,0.18998,0,0,0
523.6,0.88901,13.616,0.18547,0.19089,0,0,0
524.6,0.89318,13.625,0.18657,0.1919,0,0,0
525.6,0.89722,13.633,0.18711,0.19291,0,0,0
526.6,0.90096,13.641,0.18805,0.19416,0,0,0
527.6,0.90454,13.65,0.18904,0.1949,0,0,0
528.6,0.90845,13.657,0.18986,0.19618,0,0,0
529.6,0.91275,13.666,0.19097,0.19689,0,0,0
530.6,0.91706,13.673,0.1922,0.19786,0,0,0
531.6,0.92143,13.681,0.19286,0.19914,0,0,0
532.6,0.92521,13.69,0.19419,0.20082,0,0,0
533.6,0.92902,13.698,0.19557,0.20142,0,0,0
534.6,0.93319,13.706,0.19679,0.20272,0,0,0
535.6,0.93729,13.713,0.19681,0.20355,0,0,0
536.6,0.9418,13.721,0.19783,0.20455,0,0,0
537.6,0.94607,13.728,0.19839,0.20574,0,0,0
538.6,0.94998,13.736,0.19934,0.20681,0,0,0
539.6,0.95359,13.744,0.20042,0.2073,0,0,0
540.6,0.95746,13.752,0.2014,0.20803,0,0,0
541.6,0.96174,13.76,0.20257,0.20865,0,0,0
542.6,0.96624,13.767,0.2037,0.21004,0,0,0
543.6,0.97051,13.775,0.20435,0.21143,0,0,0
544.6,0.97438,13.782,0.20513,0.21266,0,0,0
545.6,0.97796,13.789,0.20645,0.21454,0,0,0
546.6,0.98177,13.796,0.20827,0.21603,0,0,0
547.6,0.98588,13.803,0.20927,0.21643,0,0,0
548.6,0.99051,13.811,0.21044,0.21723,0,0,0
549.6,0.99482,13.818,0.2114,0.21726,0,0,0
550.6,0.99883,13.826,0.2121,0.21816,0,0,0
551.6,1.0026,13.833,0.21259,0.21912,0,0,0
552.6,1.0063,13.84,0.21352,0.2205,0,0,0
553.6,1.0107,13.847,0.21475,0.22212,0,0,0
554.6,1.0153,13.854,0.21611,0.22339,0,0,0
555.6,1.0198,13.861,0.21803,0.22418,0,0,0
556.6,1.024,13.868,0.21874,0.2249,0,0,0
557.6,1.028,13.875,0.2197,0.22572,0,0,0
558.6,1.0321,13.883,0.22047,0.22651,0,0,0
559.6,1.0362,13.89,0.22111,0.22828,0,0,0
560.6,1.0408,13.896,0.22233,0.2293,0,0,0
561.6,1.0455,13.903,0.22379,0.23125,0,0,0
562.6,1.0498,13.91,0.22514,0.23269,0,0,0
563.6,1.0538,13.917,0.22677,0.23353,0,0,0
564.6,1.0576,13.923,0.22717,0.23429,0,0,0
565.6,1.062,13.93,0.22922,0.23528,0,0,0
566.6,1.0665,13.937,0.22954,0.23609,0,0,0
567.6,1.071,13.944,0.23059,0.23682,0,0,0
568.6,1.0754,13.949,0.23135,0.23795,0,0,0
569.6,1.0794,13.956,0.23232,0.23941,0,0,0
570.6,1.0832,13.963,0.2341,0.24011,0,0,0
571.6,1.0873,13.969,0.2358,0.24144,0,0,0
572.6,1.0918,13.976,0.23706,0.24245,0,0,0
573.6,1.0965,13.983,0.23773,0.24403,0,0,0
574.6,1.1007,13.99,0.23852,0.24496,0,0,0
575.6,1.1048,13.995,0.23927,0.24631,0,0,0
576.6,1.1087,14.002,0.24023,0.24773,0,0,0
577.6,1.1132,14.008,0.24164,0.24851,0,0,0
578.6,1.1178,14.014,0.24303,0.24975,0,0,0
579.6,1.1224,14.021,0.24474,0.25098,0,0,0
580.6,1.1268,14.027,0.24609,0.25157,0,0,0
581.6,1.1309,14.032,0.24671,0.25304,0,0,0
582.6,1.1351,14.039,0.24741,0.25456,0,0,0
583.6,1.1393,14.045,0.24814,0.25561,0,0,0
584.6,1.1443,14.051,0.24958,0.25684,0,0,0
585.6,1.149,14.057,0.25151,0.25817,0,0,0
586.6,1.1534,14.063,0.25248,0.25911,0,0,0
587.6,1.1578,14.069,0.25479,0.26047,0,0,0
588.6,1.1622,14.075,0.25613,0.26144,0,0,0
589.6,1.1663,14.081,0.25716,0.26271,0,0,0
590.6,1.1712,14.086,0.25802,0.26406,0,0,0
591.6,1.176,14.092,0.25954,0.26535,0,0,0
592.6,1.1805,14.098,0.2603,0.26634,0,0,0
593.6,1.1851,14.104,0.26142,0.26756,0,0,0
594.6,1.1891,14.11,0.26269,0.26925,0,0,0
595.6,1.1936,14.116,0.26373,0.27122,0,0,0
596.6,1.1983,14.122,0.26487,0.27284,0,0,0
597.6,1.203,14.127,0.26563,0.27377,0,0,0
598.6,1.2077,14.133,0.26685,0.27513,0,0,0
599.6,1.2121,14.139,0.26838,0.27601,0,0,0
600.6,1.2162,14.145,0.26954,0.27708,0,0,0
601.6,1.2211,14.15,0.27242,0.27826,0,0,0
602.6,1.2258,14.156,0.27388,0.28007,0,0,0
603.6,1.2307,14.161,0.27586,0.28211,0,0,0
604.6,1.2352,14.166,0.27703,0.28364,0,0,0
605.6,1.2396,14.171,0.27771,0.28565,0,0,0
606.6,1.2438,14.177,0.27854,0.2868,0,0,0
607.6,1.2488,14.181,0.27927,0.28831,0,0,0
608.6,1.2535,14.187,0.28112,0.28848,0,0,0
609.6,1.2586,14.192,0.28309,0.29025,0,0,0
610.6,1.2633,14.197,0.28484,0.2922,0,0,0
611.6,1.2677,14.202,0.28615,0.29393,0,0,0
612.6,1.2722,14.206,0.28638,0.29602,0,0,0
613.6,1.2771,14.211,0.28752,0.29789,0,0,0
614.6,1.2823,14.216,0.28832,0.29942,0,0,0
615.6,1.2872,14.221,0.29107,0.30103,0,0,0
616.6,1.2917,14.226,0.29346,0.3027,0,0,0
617.6,1.2963,14.231,0.2959,0.30387,0,0,0
618.6,1.3011,14.235,0.29864,0.30514,0,0,0
619.6,1.3063,14.241,0.30043,0.30721,0,0,0
620.6,1.3114,14.246,-Inf,0.30896,0,0,0
621.6,1.3164,14.25,-Inf,0.31071,0,0,0
622.6,1.321,14.254,-Inf,0.31289,0,0,0
623.6,1.3257,14.258,-Inf,0.31389,0,0,0
624.6,1.3302,14.262,-Inf,0.31495,0,0,0
625.6,1.3356,14.267,-Inf,0.31714,0,0,0
626.6,1.3408,14.272,-Inf,0.31909,0,0,0
627.6,1.3459,14.276,-Inf,0.32135,0,0,0
628.6,1.3504,14.28,-Inf,0.32248,0,0,0
629.6,1.355,14.283,-Inf,0.32402,0,0,0
630.6,1.36,14.287,-Inf,0.3254,0,0,0
631.6,1.3653,14.292,-Inf,0.32767,0,0,0
632.6,1.3704,14.296,-Inf,0.32925,0,0,0
633.6,1.3754,14.3,-Inf,0.33153,0,0,0
634.6,1.3802,14.304,-Inf,0.33307,0,0,0
635.6,1.3847,14.308,-Inf,0.33506,0,0,0
636.6,1.3899,14.312,-Inf,0.33681,0,0,0
637.6,1.3953,14.315,-Inf,0.33856,0,0,0
638.6,1.4002,14.319,-Inf,0.34085,0,0,0
639.6,1.4053,14.323,-Inf,0.34285,0,0,0
640.6,1.4099,14.326,-Inf,0.34407,0,0,0
641.6,1.4148,14.33,-Inf,0.34587,0,0,0
642.6,1.4202,14.333,-Inf,0.34863,0,0,0
643.6,1.4258,14.337,-Inf,-Inf,0,0,0
644.6,1.4309,14.34,-Inf,-Inf,0,0,0
645.6,1.4359,14.344,-Inf,-Inf,0,0,0
646.6,1.4409,14.347,-Inf,-Inf,0,0,0
647.6,1.4461,14.35,-Inf,-Inf,0,0,0
648.6,1.4518,14.353,-Inf,-Inf,0,0,0
649.6,1.4572,14.356,-Inf,-Inf,0,0,0
650.6,1.4625,14.358,-Inf,-Inf,0,0,0
651.6,1.4672,14.362,-Inf,-Inf,0,0,0
652.6,1.4725,14.364,-Inf,-Inf,0,0,0
653.6,1.4781,14.366,-Inf,-Inf,0,0,0
654.6,1.4836,14.369,-Inf,-Inf,0,0,0
655.6,1.4891,14.371,-Inf,-Inf,0,0,0
656.6,1.4946,14.373,-Inf,-Inf,0,0,0
657.6,1.4997,14.376,-Inf,-Inf,0,0,0
658.6,1.5051,14.378,-Inf,-Inf,0,0,0
659.6,1.5108,14.381,-Inf,-Inf,0,0,0
660.6,1.5165,14.383,-Inf,-Inf,0,0,0
661.6,1.522,14.384,-Inf,-Inf,0,0,0
662.6,1.5274,14.386,-Inf,-Inf,0,0,0
663.6,1.5329,14.388,-Inf,-Inf,0,0,0
664.6,1.5385,14.389,-Inf,-Inf,0,0,0
665.6,1.5446,14.391,-Inf,-Inf,0,0,0
666.6,1.5501,14.392,-Inf,-Inf,0,0,0
667.6,1.5558,14.393,-Inf,-Inf,0,0,0
668.6,1.5613,14.395,-Inf,-Inf,0,0,0
669.6,1.5669,14.396,-Inf,-Inf,0,0,0
670.6,1.5731,14.396,-Inf,-Inf,0,0,0
671.6,1.5793,14.397,-Inf,-Inf,0,0,0
672.6,1.5848,14.397,-Inf,-Inf,0,0,0
673.6,1.5905,14.398,-Inf,-Inf,0,0,0
674.6,1.5965,14.398,-Inf,-Inf,0,0,0
675.6,1.6025,14.397,-Inf,-Inf,0,0,0
676.6,1.6089,14.397,-Inf,-Inf,0,0,0
677.6,1.6149,14.396,-Inf,-Inf,0,0,0
678.6,1.6206,14.396,-Inf,-Inf,0,0,0
679.6,1.6266,14.395,-Inf,-Inf,0,0,0
680.6,1.6331,14.394,-Inf,-Inf,0,0,0
681.6,1.6397,14.391,-Inf,-Inf,0,0,0
682.6,1.646,14.388,-Inf,-Inf,0,0,0
683.6,1.6522,14.384,-Inf,-Inf,0,0,0
684.6,1.6584,14.38,-Inf,-Inf,0,0,0
685.6,1.6649,14.375,-Inf,-Inf,0,0,0
686.6,1.672,14.368,-Inf,-Inf,0,0,0
687.6,1.6791,14.359,-Inf,-Inf,0,0,0
688.6,1.6861,14.347,-Inf,-Inf,0,0,0
689.6,1.6987,14.313,-Inf,-Inf,0,0,0