File: polyN_optimization/DP600_results/DATA/CH_90_1.csv
Time[s],Displacement[mm],Force[kN],AxStrain_1,AxStrain_2,Thickness[mm],OuterWidth[mm],Diameter[mm]
0.59,0,-0.018201,0,0,1.5207,20,4.8394
1.59,0.000145,-0.023996,-0.00011201,0.00010999,0,0,0
2.59,0.000189,0.01271,-3.9001e-05,-0.00017602,0,0,0
3.59,0.000267,0.075705,-0.00014501,9.4995e-05,0,0,0
4.59,0.000655,0.128,-0.00012501,0.00011799,0,0,0
5.59,0.000335,0.18213,8.3996e-05,0.00011899,0,0,0
6.59,0.000208,0.22613,-9.7005e-05,9.0996e-05,0,0,0
7.59,0.000365,0.25885,-0.00015901,2.8e-05,0,0,0
8.59,0.000437,0.29385,-0.00021802,0.00014599,0,0,0
9.59,0.000552,0.33114,-0.00023603,3.1999e-05,0,0,0
10.59,0.000589,0.36942,-0.00028904,4.0999e-05,0,0,0
11.59,0.000757,0.40928,-0.00011201,-4.0001e-05,0,0,0
12.59,0.000939,0.44571,-0.00021002,1.7e-05,0,0,0
13.59,0.001156,0.48057,0.00019498,-1.9e-05,0,0,0
14.59,0.001296,0.51928,-1e-05,0.00019798,0,0,0
15.59,0.001516,0.55599,6.5998e-05,0.00013599,0,0,0
16.59,0.001324,0.59085,0.00010899,0.00030495,0,0,0
17.59,0.001566,0.62914,0.00010899,0.00034094,0,0,0
18.59,0.00151,0.66742,4.9999e-05,0.00039692,0,0,0
19.59,0.001645,0.70742,1e-05,0.00028096,0,0,0
20.59,0.001606,0.74957,-2.6e-05,0.00017898,0,0,0
21.59,0.001721,0.78871,-0.00010901,0.00018198,0,0,0
22.59,0.00188,0.82657,-4.0001e-05,0.00031095,0,0,0
23.59,0.002152,0.86899,1.3e-05,0.00041991,0,0,0
24.59,0.002513,0.90971,3.9999e-05,0.00026197,0,0,0
25.59,0.002744,0.94857,0.00016199,0.00035794,0,0,0
26.59,0.002837,0.98957,0.00016899,0.00032395,0,0,0
27.59,0.002864,1.0294,0.00024497,0.00031495,0,0,0
28.59,0.002748,1.0707,-3e-06,0.00052586,0,0,0
29.59,0.002794,1.1143,-0.00016901,0.00040392,0,0,0
30.59,0.002642,1.1551,-0.00014201,0.00055984,0,0,0
31.59,0.002983,1.1939,5.2999e-05,0.00027496,0,0,0
32.59,0.003238,1.2376,2e-05,0.00034094,0,0,0
33.59,0.003311,1.2797,9.5995e-05,0.0004499,0,0,0
34.59,0.003751,1.3193,0.00011899,0.00039092,0,0,0
35.59,0.003996,1.3616,0.00028496,0.00028796,0,0,0
36.59,0.004459,1.4024,0.00027796,0.00058883,0,0,0
37.59,0.004529,1.4444,7e-06,0.0004369,0,0,0
38.59,0.004158,1.4883,0.00042391,0.00065479,0,0,0
39.59,0.004377,1.5284,0.00017498,0.00060282,0,0,0
40.59,0.004075,1.5661,0.00027796,0.0004439,0,0,0
41.59,0.004148,1.61,0.00011599,0.00057284,0,0,0
42.59,0.004261,1.652,0.00034794,0.00049988,0,0,0
43.59,0.004439,1.6916,8.2997e-05,0.00034794,0,0,0
44.59,0.005022,1.7329,0.00011599,0.00048988,0,0,0
45.59,0.005443,1.7731,0.00027496,0.00067877,0,0,0
46.59,0.0058,1.8141,0.00049688,0.00027096,0,0,0
47.59,0.005833,1.8566,0.00027496,0.00053286,0,0,0
48.59,0.005926,1.8964,0.00024797,0.00070775,0,0,0
49.59,0.00574,1.9346,0.00040092,0.00065878,0,0,0
50.59,0.005529,1.977,0.00025197,0.00058583,0,0,0
51.59,0.005578,2.0177,7.8997e-05,0.00053586,0,0,0
52.59,0.005625,2.0566,0.00015899,0.00042991,0,0,0
53.59,0.005889,2.0976,-1e-05,0.00048288,0,0,0
54.59,0.006353,2.1371,0.00018198,0.00046689,0,0,0
55.59,0.006674,2.1774,0.00034794,0.00049688,0,0,0
56.59,0.007154,2.2196,0.00049288,0.00064579,0,0,0
57.59,0.007482,2.2587,0.00048688,0.00051986,0,0,0
58.59,0.007263,2.2959,0.0004539,0.00076471,0,0,0
59.59,0.007422,2.3383,0.00026496,0.0006258,0,0,0
60.59,0.007008,2.3783,0.00032095,0.00079468,0,0,0
61.59,0.006946,2.4166,0.00041092,0.00067177,0,0,0
62.59,0.006883,2.4573,0.00025497,0.00061581,0,0,0
63.59,0.007171,2.4964,0.00033794,0.0006318,0,0,0
64.59,0.007584,2.5374,0.0004369,0.00069176,0,0,0
65.59,0.007998,2.5793,0.00018498,0.00053586,0,0,0
66.58,0.008333,2.6177,0.00032795,0.00069476,0,0,0
67.58,0.008892,2.6549,0.00046989,0.00065479,0,0,0
68.58,0.009018,2.6963,0.00061881,0.00079768,0,0,0
69.58,0.00874,2.736,0.00050987,0.00082366,0,0,0
70.59,0.008564,2.7746,0.0006358,0.00074472,0,0,0
71.58,0.008442,2.8146,0.0004439,0.00065179,0,0,0
72.58,0.008323,2.8531,0.00054985,0.00080767,0,0,0
73.59,0.008458,2.8939,0.00027496,0.00073773,0,0,0
74.58,0.008783,2.9356,0.00034394,0.00060881,0,0,0
75.59,0.009177,2.9747,0.00035394,0.00083365,0,0,0
76.58,0.010147,3.0126,0.0006388,0.00067177,0,0,0
77.58,0.010322,3.055,0.00060282,0.00065878,0,0,0
78.59,0.010369,3.095,0.00071175,0.0010824,0,0,0
79.59,0.010266,3.1336,0.00056884,0.00078769,0,0,0
80.58,0.009971,3.1739,0.00067877,0.00088361,0,0,0
81.59,0.009607,3.2124,0.00056884,0.00082366,0,0,0
82.58,0.009445,3.2521,0.00055585,0.00081067,0,0,0
83.58,0.00965,3.2931,0.00041092,0.00075771,0,0,0
84.59,0.010008,3.3317,0.00049988,0.0006358,0,0,0
85.58,0.010789,3.3679,0.00049288,0.00082366,0,0,0
86.59,0.011176,3.41,0.00066178,0.00075771,0,0,0
87.59,0.011749,3.4496,0.00073773,0.00078469,0,0,0
88.59,0.012057,3.4879,0.0007747,0.00095954,0,0,0
89.59,0.012077,3.5276,0.00097952,0.00097952,0,0,0
90.59,0.011544,3.5654,0.00078769,0.00091958,0,0,0
91.59,0.011213,3.6047,0.00057883,0.0009995,0,0,0
92.59,0.011103,3.6456,0.00060582,0.00091958,0,0,0
93.59,0.01109,3.683,0.00054285,0.00073173,0,0,0
94.59,0.01165,3.7191,0.00059282,0.0010055,0,0,0
95.59,0.011964,3.7603,0.00030495,0.0008936,0,0,0
96.59,0.012742,3.7993,0.00056884,0.0011014,0,0,0
97.58,0.013417,3.8404,0.00090959,0.0010884,0,0,0
98.58,0.013543,3.8777,0.00081767,0.0011284,0,0,0
99.58,0.013626,3.9184,0.0008996,0.0011483,0,0,0
100.59,0.013331,3.9557,0.00082066,0.0013301,0,0,0
101.59,0.012838,3.9961,0.00066478,0.0013002,0,0,0
102.59,0.012583,4.0351,0.00085663,0.0011583,0,0,0
103.58,0.012798,4.0713,0.00068876,0.0011743,0,0,0
104.58,0.013202,4.11,0.0010095,0.0012742,0,0,0
105.59,0.013533,4.1501,0.00088361,0.0012542,0,0,0
106.58,0.014437,4.1876,0.00085064,0.0012572,0,0,0
107.59,0.015122,4.2254,0.00092357,0.0013301,0,0,0
108.59,0.015199,4.2649,0.0012073,0.001423,0,0,0
109.59,0.015384,4.3014,0.0011913,0.0014559,0,0,0
110.58,0.015172,4.3414,0.0011913,0.0015218,0,0,0
111.58,0.014864,4.3801,0.00095954,0.0012572,0,0,0
112.58,0.014434,4.4153,0.00082766,0.0013231,0,0,0
113.58,0.0145,4.4536,0.0008936,0.0012572,0,0,0
114.58,0.014599,4.4937,0.0008936,0.0014889,0,0,0
115.58,0.015261,4.5309,0.00086063,0.0013561,0,0,0
116.58,0.01599,4.5681,0.00082766,0.0013561,0,0,0
117.58,0.01642,4.6064,0.00095954,0.0014889,0,0,0
118.58,0.017082,4.6433,0.0012572,0.0015548,0,0,0
119.58,0.017049,4.6841,0.0012902,0.0016866,0,0,0
120.59,0.016884,4.7224,0.0012243,0.0019182,0,0,0
121.58,0.01642,4.7583,0.0011254,0.0015877,0,0,0
122.58,0.016089,4.7966,0.0011254,0.0015218,0,0,0
123.58,0.016321,4.8364,0.0008936,0.0017195,0,0,0
124.58,0.016652,4.8736,0.0010255,0.001423,0,0,0
125.58,0.017115,4.9111,0.0010255,0.001389,0,0,0
126.58,0.017744,4.9487,0.00092657,0.0015218,0,0,0
127.58,0.01834,4.9847,0.0012572,0.0016536,0,0,0
128.59,0.01887,5.0241,0.001423,0.0017195,0,0,0
129.59,0.019069,5.0621,0.0015218,0.0018523,0,0,0
130.59,0.018903,5.0973,0.0015548,0.0018852,0,0,0
131.59,0.018009,5.1353,0.0012572,0.0018193,0,0,0
132.59,0.018142,5.1744,0.0011913,0.0018193,0,0,0
133.59,0.018208,5.2106,0.0012243,0.0017864,0,0,0
134.59,0.018208,5.2471,0.001423,0.0018523,0,0,0
135.59,0.018837,5.2851,0.0011583,0.0017535,0,0,0
136.59,0.019565,5.3214,0.001389,0.0017864,0,0,0
137.59,0.02036,5.3614,0.0013561,0.0017535,0,0,0
138.59,0.020724,5.4001,0.0016207,0.0017864,0,0,0
139.59,0.020856,5.4349,0.0018523,0.002017,0,0,0
140.59,0.020889,5.4743,0.0018523,0.0019182,0,0,0
141.59,0.020922,5.514,0.0018523,0.0020509,0,0,0
142.59,0.020062,5.5513,0.0016207,0.0018193,0,0,0
143.59,0.020161,5.5889,0.0015548,0.0018523,0,0,0
144.59,0.020293,5.6269,0.001389,0.0019511,0,0,0
145.59,0.020724,5.6634,0.0014559,0.0018852,0,0,0
146.59,0.021452,5.7039,0.0015218,0.0017864,0,0,0
147.59,0.021982,5.7421,0.0017535,0.001984,0,0,0
148.59,0.022511,5.7783,0.0017535,0.0021826,0,0,0
149.59,0.022909,5.8163,0.0018523,0.0023482,0,0,0
150.59,0.023107,5.8557,0.0021826,0.0022485,0,0,0
151.59,0.023008,5.8933,0.001984,0.0023143,0,0,0
152.59,0.022809,5.9301,0.002017,0.0023482,0,0,0
153.59,0.022247,5.9677,0.0016866,0.0022155,0,0,0
154.59,0.022776,6.0044,0.0017864,0.002018,0,0,0
155.59,0.023306,6.0441,0.0017535,0.0022485,0,0,0
156.59,0.024067,6.0821,0.0018523,0.0022485,0,0,0
157.59,0.024498,6.117,0.0020838,0.002447,0,0,0
158.59,0.025094,6.1546,0.0021168,0.0024141,0,0,0
159.59,0.025292,6.194,0.0024799,0.0028759,0,0,0
160.59,0.025458,6.2306,0.0026116,0.0029088,0,0,0
161.59,0.025557,6.2671,0.002447,0.00281,0,0,0
162.59,0.025259,6.3054,0.0022814,0.0026784,0,0,0
163.59,0.02559,6.342,0.0023143,0.0027113,0,0,0
164.59,0.025557,6.3817,0.0021168,0.0027442,0,0,0
165.59,0.025822,6.4201,0.001984,0.0027442,0,0,0
166.59,0.026848,6.4553,0.0021168,0.0026784,0,0,0
167.59,0.027113,6.4933,0.0022485,0.002843,0,0,0
168.59,0.027874,6.5317,0.0026116,0.003173,0,0,0
169.59,0.028172,6.5683,0.0027113,0.003173,0,0,0
170.59,0.028305,6.6049,0.0029746,0.0035357,0,0,0
171.59,0.028503,6.6421,0.0027442,0.0034042,0,0,0
172.59,0.028702,6.6777,0.0029417,0.0033055,0,0,0
173.59,0.028967,6.7169,0.0025128,0.0032716,0,0,0
174.59,0.029132,6.7541,0.0026445,0.0032059,0,0,0
175.59,0.029662,6.7886,0.0025787,0.0031401,0,0,0
176.59,0.03039,6.8256,0.0024799,0.0032059,0,0,0
177.59,0.030655,6.8637,0.0026116,0.0034042,0,0,0
178.59,0.031053,6.9,0.0029417,0.0036015,0,0,0
179.59,0.031384,6.9354,0.0033055,0.0037011,0,0,0
180.58,0.031516,6.9724,0.0033713,0.0041295,0,0,0
181.59,0.03188,7.0074,0.00347,0.0040637,0,0,0
182.59,0.032244,7.0459,0.003173,0.0039323,0,0,0
183.59,0.032675,7.0824,0.0030414,0.0038655,0,0,0
184.59,0.032973,7.1163,0.0030085,0.0037998,0,0,0
185.59,0.033237,7.153,0.0030743,0.003734,0,0,0
186.59,0.033999,7.1911,0.0032059,0.0036683,0,0,0
187.59,0.034231,7.2263,0.0033713,0.0039651,0,0,0
188.59,0.034462,7.2614,0.0035357,0.0041295,0,0,0
189.59,0.03476,7.2981,0.0038984,0.0044262,0,0,0
190.59,0.035191,7.3327,0.004228,0.004888,0,0,0
191.59,0.03572,7.3711,0.004228,0.0049537,0,0,0
192.59,0.036449,7.4071,0.0039651,0.004888,0,0,0
193.58,0.037111,7.4403,0.0039651,0.00469,0,0,0
194.59,0.038038,7.4767,0.0038655,0.0046243,0,0,0
195.58,0.038667,7.5134,0.0038984,0.0045914,0,0,0
196.59,0.039031,7.5476,0.0037669,0.0047557,0,0,0
197.58,0.039163,7.5811,0.0040309,0.004888,0,0,0
198.59,0.039527,7.6161,0.0045586,0.0053815,0,0,0
199.58,0.039892,7.6507,0.0047557,0.005645,0,0,0
200.58,0.040289,7.6881,0.0052502,0.0060397,0,0,0
201.58,0.041017,7.7229,0.0052174,0.0061391,0,0,0
202.59,0.041845,7.7553,0.0049537,0.0062047,0,0,0
203.58,0.04254,7.7903,0.004888,0.0060397,0,0,0
204.59,0.043633,7.8257,0.0048552,0.0058757,0,0,0
205.58,0.044526,7.86,0.0048552,0.0056779,0,0,0
206.59,0.045122,7.8931,0.0047885,0.0057107,0,0,0
207.58,0.045122,7.9281,0.0047885,0.0060069,0,0,0
208.59,0.045056,7.9614,0.0051507,0.0063031,0,0,0
209.58,0.045453,7.9979,0.0059085,0.0066647,0,0,0
210.59,0.04595,8.0324,0.0062047,0.0073886,0,0,0
211.58,0.046645,8.0651,0.0063031,0.0074869,0,0,0
212.58,0.048002,8.0989,0.0061053,0.0074869,0,0,0
213.59,0.049029,8.1346,0.0062375,0.0073221,0,0,0
214.59,0.050485,8.1653,0.0059741,0.0069607,0,0,0
215.58,0.051578,8.1981,0.0056779,0.0068952,0,0,0
216.59,0.051942,8.233,0.0058429,0.0070263,0,0,0
217.58,0.052505,8.2663,0.006468,0.0071256,0,0,0
218.59,0.052968,8.2989,0.0065008,0.0075852,0,0,0
219.58,0.053134,8.3319,0.0071583,0.0083411,0,0,0
220.58,0.053895,8.3631,0.0076844,0.0088002,0,0,0
221.58,0.055087,8.3961,0.0078481,0.0090628,0,0,0
222.58,0.056378,8.4304,0.0077171,0.00926,0,0,0
223.58,0.057868,8.461,0.0076844,0.0091609,0,0,0
224.59,0.058993,8.4929,0.0073559,0.0088983,0,0,0
225.58,0.059887,8.527,0.0073559,0.008932,0,0,0
226.58,0.060715,8.56,0.0074541,0.0088002,0,0,0
227.58,0.061543,8.5911,0.0078481,0.0090955,0,0,0
228.59,0.06237,8.6236,0.0083738,0.0093908,0,0,0
229.58,0.063264,8.6539,0.0087675,0.010144,0,0,0
230.58,0.064191,8.6854,0.0091609,0.010702,0,0,0
231.58,0.065615,8.7179,0.0096859,0.011258,0,0,0
232.59,0.066476,8.748,0.0094888,0.011389,0,0,0
233.59,0.067601,8.7793,0.00926,0.011291,0,0,0
234.58,0.068528,8.8117,0.0091609,0.011193,0,0,0
235.58,0.069223,8.8419,0.0089974,0.010898,0,0,0
236.58,0.070415,8.8729,0.0091936,0.010866,0,0,0
237.58,0.071772,8.9039,0.0095552,0.01116,0,0,0
238.58,0.073229,8.9329,0.010211,0.011586,0,0,0
239.58,0.074752,8.9649,0.010636,0.012371,0,0,0
240.58,0.076506,8.9936,0.011291,0.012926,0,0,0
241.58,0.078095,9.022,0.011618,0.013547,0,0,0
242.58,0.078923,9.0527,0.011651,0.013743,0,0,0
243.58,0.079618,9.0827,0.011423,0.013874,0,0,0
244.58,0.080545,9.1119,0.011193,0.013645,0,0,0
245.58,0.081571,9.1419,0.011094,0.01358,0,0,0
246.58,0.082962,9.1711,0.011193,0.013417,0,0,0
247.58,0.084617,9.1996,0.011716,0.013711,0,0,0
248.58,0.086537,9.2303,0.01224,0.014004,0,0,0
249.58,0.088358,9.2576,0.012894,0.014787,0,0,0
250.58,0.089782,9.286,0.013547,0.015342,0,0,0
251.58,0.091172,9.316,0.013906,0.016092,0,0,0
252.58,0.092464,9.3457,0.014037,0.01658,0,0,0
253.58,0.093788,9.3741,0.014102,0.016646,0,0,0
254.58,0.095079,9.4031,0.013776,0.016612,0,0,0
255.58,0.096569,9.4319,0.013776,0.016482,0,0,0
256.58,0.09829,9.4596,0.013873,0.01658,0,0,0
257.58,0.10011,9.4894,0.014363,0.016678,0,0,0
258.58,0.10167,9.5171,0.015048,0.017231,0,0,0
259.58,0.10302,9.5454,0.015439,0.017817,0,0,0
260.58,0.10448,9.574,0.016092,0.018272,0,0,0
261.58,0.10574,9.6033,0.016711,0.018987,0,0,0
262.58,0.10769,9.6314,0.016938,0.019442,0,0,0
263.58,0.10974,9.6609,0.01697,0.019799,0,0,0
264.58,0.11203,9.6889,0.01697,0.01996,0,0,0
265.58,0.11431,9.7146,0.016677,0.020026,0,0,0
266.58,0.1163,9.7431,0.017069,0.020156,0,0,0
267.58,0.11825,9.7689,0.017588,0.020318,0,0,0
268.58,0.11948,9.7951,0.017849,0.020675,0,0,0
269.58,0.1212,9.8224,0.018531,0.021064,0,0,0
270.58,0.12252,9.8497,0.019279,0.021842,0,0,0
271.58,0.12405,9.8759,0.019636,0.02223,0,0,0
272.58,0.1261,9.9026,0.019993,0.022781,0,0,0
273.58,0.12858,9.9284,0.020156,0.023362,0,0,0
274.58,0.13047,9.9539,0.020382,0.023492,0,0,0
275.58,0.13252,9.9816,0.020317,0.023751,0,0,0
276.58,0.13421,10.007,0.020772,0.023847,0,0,0
277.58,0.13593,10.032,0.021096,0.024267,0,0,0
278.58,0.13782,10.058,0.021354,0.024558,0,0,0
279.58,0.14007,10.085,0.021873,0.025043,0,0,0
280.58,0.14278,10.111,0.022262,0.025269,0,0,0
281.58,0.14514,10.135,0.022876,0.025849,0,0,0
282.58,0.14719,10.161,0.023168,0.02643,0,0,0
283.58,0.14937,10.185,0.023491,0.02701,0,0,0
284.58,0.151,10.21,0.023976,0.0273,0,0,0
285.58,0.15232,10.234,0.024203,0.027558,0,0,0
286.58,0.15411,10.258,0.024235,0.028105,0,0,0
287.58,0.15633,10.282,0.024945,0.028266,0,0,0
288.58,0.15897,10.306,0.0253,0.028685,0,0,0
289.58,0.16093,10.329,0.025849,0.029038,0,0,0
290.58,0.16338,10.353,0.026043,0.02936,0,0,0
291.58,0.1654,10.377,0.026301,0.029906,0,0,0
292.58,0.16738,10.399,0.026914,0.030324,0,0,0
293.58,0.16937,10.424,0.027203,0.030806,0,0,0
294.58,0.17159,10.446,0.027428,0.03119,0,0,0
295.58,0.17417,10.468,0.027782,0.0318,0,0,0
296.58,0.17702,10.492,0.028234,0.032184,0,0,0
297.58,0.1796,10.516,0.028749,0.032249,0,0,0
298.58,0.18182,10.538,0.028909,0.032954,0,0,0
299.58,0.18367,10.561,0.029295,0.033306,0,0,0
300.58,0.18539,10.584,0.029616,0.033626,0,0,0
301.58,0.18698,10.606,0.030163,0.034043,0,0,0
302.58,0.18956,10.63,0.030581,0.03449,0,0,0
303.58,0.19201,10.65,0.03103,0.034907,0,0,0
304.58,0.1947,10.672,0.031222,0.035514,0,0,0
305.58,0.19701,10.695,0.031511,0.035865,0,0,0
306.58,0.19923,10.716,0.03196,0.036472,0,0,0
307.58,0.20168,10.738,0.032216,0.036567,0,0,0
308.58,0.20373,10.759,0.032698,0.036918,0,0,0
309.58,0.20595,10.781,0.033146,0.037461,0,0,0
310.58,0.20883,10.801,0.033562,0.037811,0,0,0
311.58,0.21188,10.824,0.034042,0.038481,0,0,0
312.58,0.21459,10.844,0.034426,0.038991,0,0,0
313.58,0.21688,10.864,0.03481,0.039245,0,0,0
314.58,0.2189,10.885,0.035257,0.0395,0,0,0
315.58,0.22102,10.906,0.03564,0.040009,0,0,0
316.58,0.22307,10.926,0.03596,0.040581,0,0,0
317.58,0.22539,10.947,0.036247,0.040899,0,0,0
318.58,0.22807,10.967,0.036663,0.041312,0,0,0
319.58,0.23065,10.986,0.037045,0.041757,0,0,0
320.58,0.23303,11.008,0.037396,0.042264,0,0,0
321.58,0.23522,11.027,0.038161,0.042804,0,0,0
322.58,0.23747,11.047,0.038607,0.043026,0,0,0
323.58,0.23979,11.067,0.038989,0.043692,0,0,0
324.58,0.24247,11.086,0.039626,0.044263,0,0,0
325.58,0.24512,11.106,0.039817,0.044611,0,0,0
326.58,0.24846,11.125,0.039976,0.044991,0,0,0
327.58,0.25111,11.145,0.040421,0.045275,0,0,0
328.58,0.25402,11.163,0.040898,0.045781,0,0,0
329.58,0.25581,11.184,0.041184,0.046256,0,0,0
330.58,0.25796,11.202,0.041407,0.046793,0,0,0
331.58,0.26038,11.221,0.042327,0.04714,0,0,0
332.58,0.26293,11.239,0.042804,0.047646,0,0,0
333.58,0.26568,11.259,0.04331,0.048214,0,0,0
334.58,0.26823,11.277,0.043627,0.04875,0,0,0
335.58,0.27064,11.296,0.043977,0.049161,0,0,0
336.58,0.27296,11.315,0.044388,0.049853,0,0,0
337.58,0.27538,11.333,0.044673,0.049948,0,0,0
338.58,0.27766,11.353,0.045053,0.050419,0,0,0
339.58,0.28061,11.371,0.045591,0.050954,0,0,0
340.58,0.28362,11.389,0.046129,0.051301,0,0,0
341.58,0.28683,11.407,0.046823,0.051835,0,0,0
342.58,0.28958,11.426,0.047329,0.052433,0,0,0
343.58,0.29206,11.443,0.047802,0.052998,0,0,0
344.58,0.29448,11.462,0.048307,0.053564,0,0,0
345.58,0.297,11.48,0.048623,0.054034,0,0,0
346.58,0.29991,11.497,0.049033,0.054441,0,0,0
347.58,0.30276,11.516,0.049317,0.054818,0,0,0
348.58,0.30584,11.533,0.049757,0.055382,0,0,0
349.58,0.30858,11.55,0.05045,0.055788,0,0,0
350.58,0.3107,11.568,0.050797,0.056571,0,0,0
351.58,0.31306,11.584,0.051488,0.056884,0,0,0
352.58,0.3154,11.601,0.05196,0.057571,0,0,0
353.58,0.31805,11.618,0.052589,0.057916,0,0,0
354.58,0.32133,11.635,0.05309,0.058665,0,0,0
355.58,0.32451,11.651,0.053656,0.058977,0,0,0
356.58,0.32739,11.669,0.054064,0.059508,0,0,0
357.58,0.33004,11.683,0.054409,0.060257,0,0,0
358.58,0.33242,11.7,0.055035,0.060911,0,0,0
359.58,0.33517,11.717,0.055662,0.061253,0,0,0
360.58,0.33808,11.732,0.055944,0.061845,0,0,0
361.58,0.3413,11.748,0.056538,0.062094,0,0,0
362.58,0.3448,11.764,0.056789,0.062685,0,0,0
363.58,0.34735,11.781,0.057319,0.063244,0,0,0
364.58,0.34967,11.796,0.057726,0.063772,0,0,0
365.58,0.35212,11.812,0.058226,0.064486,0,0,0
366.58,0.35441,11.828,0.058851,0.064828,0,0,0
367.58,0.35689,11.843,0.059537,0.065449,0,0,0
368.58,0.3602,11.859,0.060067,0.066038,0,0,0
369.58,0.36311,11.874,0.060286,0.066503,0,0,0
370.58,0.36583,11.889,0.06094,0.067153,0,0,0
371.58,0.36864,11.905,0.061376,0.06771,0,0,0
372.58,0.37113,11.92,0.061843,0.067989,0,0,0
373.58,0.37384,11.936,0.062123,0.068544,0,0,0
374.58,0.37642,11.951,0.062839,0.069317,0,0,0
375.58,0.37977,11.966,0.063398,0.069595,0,0,0
376.58,0.38294,11.98,0.063926,0.070367,0,0,0
377.58,0.38619,11.995,0.064547,0.07083,0,0,0
378.58,0.38907,12.01,0.064826,0.071324,0,0,0
379.58,0.39162,12.025,0.065416,0.071971,0,0,0
380.58,0.39417,12.04,0.065912,0.072371,0,0,0
381.58,0.39695,12.054,0.066346,0.072957,0,0,0
382.58,0.3999,12.07,0.067089,0.073479,0,0,0
383.58,0.40327,12.084,0.067707,0.074002,0,0,0
384.58,0.40599,12.098,0.068234,0.074401,0,0,0
385.58,0.40847,12.112,0.068697,0.075108,0,0,0
386.58,0.41102,12.127,0.069346,0.075661,0,0,0
387.58,0.41337,12.141,0.069779,0.075999,0,0,0
388.58,0.41629,12.156,0.070488,0.076612,0,0,0
389.58,0.41943,12.169,0.070828,0.077133,0,0,0
390.58,0.42297,12.184,0.071506,0.077776,0,0,0
391.58,0.42599,12.198,0.071845,0.078298,0,0,0
392.58,0.42897,12.212,0.072492,0.07897,0,0,0
393.58,0.43165,12.227,0.073383,0.079613,0,0,0
394.58,0.43426,12.24,0.073784,0.080317,0,0,0
395.58,0.43754,12.254,0.074367,0.080774,0,0,0
396.58,0.44082,12.268,0.074889,0.081446,0,0,0
397.58,0.44436,12.282,0.075442,0.081843,0,0,0
398.58,0.44734,12.295,0.075934,0.0823,0,0,0
399.58,0.45025,12.309,0.076455,0.082788,0,0,0
400.58,0.45267,12.323,0.077099,0.083275,0,0,0
401.58,0.45539,12.336,0.07759,0.083946,0,0,0
402.58,0.45817,12.35,0.078171,0.084525,0,0,0
403.58,0.46141,12.363,0.078692,0.085132,0,0,0
404.58,0.46479,12.376,0.07915,0.085741,0,0,0
405.58,0.4678,12.391,0.07967,0.086046,0,0,0
406.58,0.47048,12.404,0.080251,0.086773,0,0,0
407.58,0.47307,12.416,0.080617,0.087168,0,0,0
408.58,0.47585,12.431,0.081015,0.087683,0,0,0
409.58,0.47942,12.444,0.081778,0.088048,0,0,0
410.58,0.4826,12.457,0.08251,0.088805,0,0,0
411.58,0.48641,12.47,0.083089,0.08944,0,0,0
412.58,0.48959,12.483,0.083729,0.090015,0,0,0
413.58,0.4927,12.496,0.084246,0.09056,0,0,0
414.58,0.49541,12.51,0.084764,0.091195,0,0,0
415.58,0.49846,12.522,0.085372,0.091981,0,0,0
416.58,0.5018,12.535,0.085827,0.092554,0,0,0
417.58,0.50577,12.549,0.086374,0.092885,0,0,0
418.58,0.50902,12.561,0.08686,0.093671,0,0,0
419.58,0.5121,12.574,0.087922,0.094242,0,0,0
420.58,0.51511,12.587,0.088406,0.094725,0,0,0
421.58,0.51743,12.598,0.089437,0.095176,0,0,0
422.58,0.52014,12.611,0.08989,0.095928,0,0,0
423.58,0.52345,12.624,0.090405,0.096589,0,0,0
424.58,0.52743,12.636,0.090858,0.09716,0,0,0
425.58,0.5306,12.648,0.091523,0.097731,0,0,0
426.58,0.53375,12.661,0.092127,0.098302,0,0,0
427.58,0.53646,12.673,0.092972,0.098812,0,0,0
428.58,0.53944,12.685,0.093635,0.099292,0,0,0
429.58,0.54259,12.698,0.094479,0.099951,0,0,0
430.58,0.546,12.709,0.094961,0.10076,0,0,0
431.58,0.5501,12.722,0.095834,0.10136,0,0,0
432.58,0.55332,12.734,0.096314,0.10193,0,0,0
433.58,0.55693,12.746,0.096885,0.10273,0,0,0
434.58,0.55981,12.758,0.097577,0.10345,0,0,0
435.58,0.56298,12.77,0.098238,0.10405,0,0,0
436.58,0.56623,12.782,0.099197,0.10491,0,0,0
437.58,0.56984,12.793,0.099737,0.10551,0,0,0
438.58,0.57364,12.805,0.10019,0.10587,0,0,0
439.58,0.57676,12.816,0.10078,0.10688,0,0,0
440.58,0.5797,12.828,0.10132,0.10732,0,0,0
441.58,0.58229,12.84,0.10198,0.10807,0,0,0
442.58,0.58546,12.851,0.10276,0.1089,0,0,0
443.58,0.58877,12.862,0.10318,0.10949,0,0,0
444.58,0.59235,12.874,0.10398,0.11005,0,0,0
445.58,0.59596,12.885,0.10458,0.11089,0,0,0
446.58,0.59904,12.896,0.10529,0.11151,0,0,0
447.58,0.60212,12.908,0.10565,0.11242,0,0,0
448.58,0.60493,12.918,0.10652,0.11284,0,0,0
449.58,0.60834,12.93,0.10717,0.1137,0,0,0
450.58,0.61215,12.942,0.10782,0.11435,0,0,0
451.58,0.61576,12.953,0.10851,0.11514,0,0,0
452.58,0.61953,12.964,0.10943,0.11585,0,0,0
453.58,0.62294,12.975,0.11008,0.11653,0,0,0
454.58,0.62579,12.986,0.11088,0.11724,0,0,0
455.58,0.62903,12.996,0.11144,0.11788,0,0,0
456.58,0.63228,13.008,0.11218,0.11859,0,0,0
457.58,0.63642,13.019,0.11313,0.11912,0,0,0
458.58,0.63992,13.03,0.11372,0.11997,0,0,0
459.58,0.6435,13.041,0.11475,0.12079,0,0,0
460.58,0.64681,13.052,0.11523,0.12161,0,0,0
461.58,0.64959,13.062,0.11585,0.12252,0,0,0
462.58,0.65247,13.073,0.11685,0.12317,0,0,0
463.58,0.65602,13.084,0.11738,0.12404,0,0,0
464.58,0.65992,13.094,0.1177,0.12466,0,0,0
465.58,0.66327,13.105,0.11861,0.12507,0,0,0
466.58,0.66671,13.115,0.11938,0.1258,0,0,0
467.58,0.66989,13.125,0.11997,0.12647,0,0,0
468.58,0.6727,13.137,0.12067,0.12731,0,0,0
469.58,0.67624,13.146,0.12164,0.12831,0,0,0
470.58,0.67989,13.156,0.12246,0.12897,0,0,0
471.58,0.68393,13.167,0.12331,0.13014,0,0,0
472.58,0.6879,13.177,0.12389,0.13083,0,0,0
473.58,0.69108,13.187,0.12427,0.13162,0,0,0
474.58,0.69419,13.198,0.12468,0.1322,0,0,0
475.58,0.69763,13.208,0.1257,0.13275,0,0,0
476.58,0.70117,13.218,0.12646,0.13342,0,0,0
477.58,0.70498,13.229,0.1271,0.13437,0,0,0
478.58,0.70869,13.238,0.12812,0.13504,0,0,0
479.58,0.7126,13.247,0.129,0.13576,0,0,0
480.58,0.71551,13.258,0.12943,0.1368,0,0,0
481.58,0.71882,13.268,0.13031,0.13746,0,0,0
482.58,0.72226,13.278,0.1306,0.13816,0,0,0
483.58,0.72561,13.288,0.13121,0.13882,0,0,0
484.58,0.72948,13.298,0.13199,0.13957,0,0,0
485.58,0.73312,13.308,0.13254,0.1402,0,0,0
486.58,0.73657,13.318,0.1335,0.14106,0,0,0
487.58,0.73965,13.328,0.13437,0.14187,0,0,0
488.58,0.74296,13.337,0.13529,0.14264,0,0,0
489.58,0.7466,13.347,0.13619,0.14342,0,0,0
490.58,0.75044,13.356,0.13709,0.14416,0,0,0
491.58,0.75435,13.366,0.13775,0.14468,0,0,0
492.58,0.75822,13.376,0.13827,0.14545,0,0,0
493.58,0.76166,13.385,0.13887,0.14597,0,0,0
494.58,0.76471,13.395,0.13985,0.14706,0,0,0
495.58,0.76815,13.404,0.14031,0.148,0,0,0
496.58,0.77269,13.413,0.14132,0.1486,0,0,0
497.58,0.77653,13.422,0.1423,0.1496,0,0,0
498.58,0.7804,13.432,0.14319,0.15025,0,0,0
499.58,0.78388,13.441,0.14376,0.15099,0,0,0
500.58,0.78752,13.45,0.1445,0.15156,0,0,0
501.58,0.79053,13.459,0.14516,0.15236,0,0,0
502.58,0.79434,13.468,0.14576,0.15321,0,0,0
503.58,0.79818,13.478,0.14662,0.15386,0,0,0
504.58,0.80229,13.487,0.14739,0.1548,0,0,0
505.58,0.80593,13.495,0.14834,0.15562,0,0,0
506.58,0.80914,13.505,0.14933,0.15653,0,0,0
507.58,0.81235,13.513,0.15025,0.15741,0,0,0
508.58,0.81573,13.523,0.15099,0.15811,0,0,0
509.58,0.81944,13.532,0.15175,0.15893,0,0,0
510.58,0.82357,13.541,0.15241,0.15986,0,0,0
511.58,0.82718,13.549,0.15323,0.16085,0,0,0
512.58,0.83106,13.558,0.154,0.16158,0,0,0
513.58,0.83437,13.566,0.15485,0.16263,0,0,0
514.58,0.83784,13.575,0.15567,0.1635,0,0,0
515.58,0.84135,13.584,0.15649,0.164,0,0,0
516.58,0.84559,13.592,0.1572,0.16487,0,0,0
517.58,0.84969,13.601,0.15813,0.16543,0,0,0
518.58,0.8534,13.61,0.15904,0.16647,0,0,0
519.58,0.85694,13.619,0.15994,0.16723,0,0,0
520.58,0.86029,13.627,0.16065,0.16824,0,0,0
521.58,0.86439,13.636,0.16152,0.16885,0,0,0
522.58,0.86837,13.644,0.1622,0.16986,0,0,0
523.58,0.87231,13.653,0.16301,0.1705,0,0,0
524.58,0.87621,13.66,0.16394,0.17139,0,0,0
525.58,0.88015,13.669,0.16453,0.1722,0,0,0
526.58,0.88376,13.678,0.16554,0.17357,0,0,0
527.58,0.88681,13.687,0.16599,0.17418,0,0,0
528.58,0.89075,13.695,0.16722,0.1751,0,0,0
529.58,0.89465,13.703,0.16804,0.17582,0,0,0
530.58,0.89879,13.712,0.16904,0.17665,0,0,0
531.58,0.9025,13.72,0.16991,0.17757,0,0,0
532.58,0.90598,13.728,0.17105,0.17887,0,0,0
533.58,0.90945,13.736,0.17181,0.17923,0,0,0
534.58,0.91319,13.745,0.17306,0.18047,0,0,0
535.58,0.91763,13.753,0.17417,0.18119,0,0,0
536.58,0.92177,13.761,0.17528,0.18241,0,0,0
537.58,0.92601,13.769,0.17587,0.18373,0,0,0
538.58,0.92938,13.778,0.17651,0.18425,0,0,0
539.58,0.93336,13.786,0.17734,0.18549,0,0,0
540.58,0.9369,13.793,0.17803,0.18645,0,0,0
541.58,0.94107,13.8,0.17861,0.18736,0,0,0
542.58,0.94554,13.808,0.17947,0.18832,0,0,0
543.58,0.94991,13.817,0.18091,0.18917,0,0,0
544.58,0.95378,13.825,0.18193,0.19005,0,0,0
545.58,0.95746,13.833,0.18309,0.19125,0,0,0
546.58,0.96103,13.841,0.18452,0.19188,0,0,0
547.58,0.96547,13.848,0.18546,0.19286,0,0,0
548.58,0.96931,13.856,0.18587,0.19379,0,0,0
549.58,0.97365,13.864,0.1868,0.1948,0,0,0
550.58,0.97755,13.871,0.18768,0.19556,0,0,0
551.58,0.98103,13.878,0.18853,0.19693,0,0,0
552.58,0.9849,13.886,0.18949,0.19815,0,0,0
553.58,0.98878,13.894,0.19031,0.19915,0,0,0
554.58,0.99295,13.901,0.19143,0.20007,0,0,0
555.58,0.99715,13.909,0.19286,0.20094,0,0,0
556.58,1.001,13.916,0.19384,0.20178,0,0,0
557.58,1.0048,13.923,0.19482,0.20267,0,0,0
558.58,1.0085,13.931,0.1955,0.20373,0,0,0
559.58,1.0122,13.938,0.19675,0.20478,0,0,0
560.58,1.0167,13.946,0.19743,0.20559,0,0,0
561.58,1.021,13.953,0.19852,0.2068,0,0,0
562.58,1.0252,13.96,0.19925,0.20785,0,0,0
563.58,1.029,13.967,0.20047,0.20911,0,0,0
564.58,1.0328,13.975,0.20158,0.21013,0,0,0
565.58,1.0366,13.982,0.20261,0.21107,0,0,0
566.58,1.041,13.99,0.20337,0.21204,0,0,0
567.58,1.0456,13.997,0.20431,0.21295,0,0,0
568.58,1.0498,14.004,0.20552,0.21375,0,0,0
569.58,1.0538,14.011,0.20631,0.21465,0,0,0
570.58,1.0576,14.018,0.2069,0.21567,0,0,0
571.58,1.0617,14.024,0.20797,0.21644,0,0,0
572.58,1.0659,14.032,0.20932,0.21764,0,0,0
573.58,1.0705,14.039,0.21039,0.21865,0,0,0
574.58,1.075,14.045,0.21168,0.21985,0,0,0
575.58,1.0789,14.053,0.2124,0.22102,0,0,0
576.58,1.0828,14.06,0.21342,0.22187,0,0,0
577.58,1.0866,14.066,0.21435,0.22296,0,0,0
578.58,1.0907,14.074,0.21547,0.22428,0,0,0
579.58,1.095,14.08,0.21641,0.22502,0,0,0
580.58,1.0998,14.087,0.21769,0.22644,0,0,0
581.58,1.1036,14.094,0.21899,0.22763,0,0,0
582.58,1.1075,14.1,0.22058,0.22832,0,0,0
583.58,1.1112,14.107,0.22154,0.22937,0,0,0
584.58,1.1157,14.113,0.22281,0.23021,0,0,0
585.58,1.1196,14.119,0.22398,0.23119,0,0,0
586.58,1.1244,14.126,0.22459,0.23268,0,0,0
587.58,1.1285,14.133,0.22586,0.23381,0,0,0
588.58,1.1326,14.139,0.22702,0.23515,0,0,0
589.58,1.1365,14.146,0.2281,0.23622,0,0,0
590.58,1.1409,14.152,0.22947,0.23755,0,0,0
591.58,1.1453,14.158,0.23086,0.23872,0,0,0
592.58,1.1498,14.165,0.23189,0.23987,0,0,0
593.58,1.1541,14.171,0.23294,0.24096,0,0,0
594.58,1.1584,14.176,0.23383,0.24231,0,0,0
595.58,1.1621,14.183,0.23527,0.24348,0,0,0
596.58,1.1666,14.189,0.23683,0.24473,0,0,0
597.58,1.1712,14.196,0.23759,0.24597,0,0,0
598.58,1.1761,14.202,0.23921,0.24724,0,0,0
599.58,1.1806,14.208,0.24036,0.2482,0,0,0
600.58,1.1843,14.214,0.24176,0.24933,0,0,0
601.58,1.1887,14.221,0.24301,0.25047,0,0,0
602.58,1.1927,14.227,0.24467,0.25157,0,0,0
603.58,1.1976,14.233,0.2456,0.25299,0,0,0
604.58,1.2023,14.24,0.24635,0.25389,0,0,0
605.58,1.2067,14.246,0.24731,0.25487,0,0,0
606.58,1.2111,14.251,0.24847,0.25618,0,0,0
607.58,1.2151,14.257,0.24935,0.25746,0,0,0
608.58,1.2194,14.263,0.25084,0.25878,0,0,0
609.58,1.2241,14.268,0.25216,0.25996,0,0,0
610.58,1.2286,14.274,0.25336,0.26111,0,0,0
611.58,1.2329,14.28,0.25462,0.26175,0,0,0
612.58,1.2373,14.286,0.25585,0.26312,0,0,0
613.58,1.2414,14.292,0.25711,0.26437,0,0,0
614.58,1.2458,14.298,0.25795,0.26541,0,0,0
615.58,1.2505,14.303,0.25946,0.2668,0,0,0
616.58,1.2551,14.309,0.26122,0.26827,0,0,0
617.58,1.2595,14.314,0.26285,0.26994,0,0,0
618.58,1.2641,14.319,0.26412,0.27136,0,0,0
619.58,1.268,14.324,0.26557,0.27222,0,0,0
620.58,1.2728,14.33,0.26636,0.27337,0,0,0
621.58,1.2775,14.336,0.26768,0.27446,0,0,0
622.58,1.2823,14.341,0.26856,0.27529,0,0,0
623.58,1.287,14.347,0.27028,0.27647,0,0,0
624.58,1.2911,14.352,0.27152,0.2777,0,0,0
625.58,1.2957,14.357,0.27255,0.27923,0,0,0
626.58,1.3002,14.362,0.27397,0.28073,0,0,0
627.58,1.3048,14.367,0.27535,0.28208,0,0,0
628.58,1.3098,14.372,0.27648,0.28335,0,0,0
629.58,1.3146,14.378,0.27803,0.28485,0,0,0
630.58,1.3189,14.383,0.27981,0.28612,0,0,0
631.58,1.3237,14.388,0.28119,0.28738,0,0,0
632.58,1.3281,14.393,0.28333,0.28909,0,0,0
633.58,1.3331,14.397,0.28473,0.29063,0,0,0
634.58,1.3379,14.402,0.28595,0.2915,0,0,0
635.58,1.3422,14.407,0.28732,0.29303,0,0,0
636.58,1.3466,14.412,0.28911,0.29414,0,0,0
637.58,1.351,14.417,0.29064,0.29584,0,0,0
638.58,1.3555,14.422,0.29232,0.29741,0,0,0
639.58,1.3604,14.426,0.29376,0.29842,0,0,0
640.58,1.3653,14.431,0.29487,0.2997,0,0,0
641.58,1.3701,14.436,0.29615,0.30117,0,0,0
642.58,1.3743,14.44,0.29767,0.30266,0,0,0
643.58,1.3788,14.445,0.29885,0.30388,0,0,0
644.58,1.3835,14.449,0.30157,0.3053,0,0,0
645.58,1.3883,14.454,0.30329,0.30705,0,0,0
646.58,1.3933,14.459,0.30512,0.30861,0,0,0
647.58,1.3981,14.464,0.30677,0.30948,0,0,0
648.58,1.4026,14.468,0.30821,0.31123,0,0,0
649.58,1.4073,14.473,0.30957,0.31244,0,0,0
650.58,1.412,14.477,0.31091,0.31399,0,0,0
651.58,1.417,14.481,0.31246,0.31558,0,0,0
652.58,1.4223,14.485,0.31343,0.31737,0,0,0
653.58,1.4269,14.489,0.31565,0.31886,0,0,0
654.58,1.4315,14.493,0.31734,0.32078,0,0,0
655.58,1.436,14.498,0.31883,0.32206,0,0,0
656.58,1.4413,14.502,0.32066,0.32323,0,0,0
657.58,1.4464,14.505,0.32256,0.32505,0,0,0
658.58,1.4516,14.51,0.32421,0.32641,0,0,0
659.58,1.4562,14.514,0.32557,0.32801,0,0,0
660.58,1.4611,14.517,0.32739,0.32977,0,0,0
661.58,1.4658,14.521,0.32901,0.33156,0,0,0
662.58,1.4713,14.525,0.33141,0.33313,0,0,0
663.58,1.4766,14.528,0.33352,0.33457,0,0,0
664.58,1.4815,14.532,0.33509,0.33642,0,0,0
665.58,1.4861,14.536,0.33682,0.33833,0,0,0
666.58,1.491,14.54,0.33821,0.3401,0,0,0
667.58,1.496,14.543,0.34017,0.34208,0,0,0
668.58,1.5012,14.546,0.34259,0.34363,0,0,0
669.58,1.5065,14.549,0.34457,0.34527,0,0,0
670.58,1.5114,14.553,0.34687,0.34703,0,0,0
671.58,1.5161,14.556,0.3481,0.34797,0,0,0
672.58,1.5211,14.56,0.34934,0.34974,0,0,0
673.58,1.5265,14.563,0.35056,0.35102,0,0,0
674.58,1.5318,14.566,0.35277,0.35309,0,0,0
675.58,1.5372,14.57,0.35472,0.35477,0,0,0
676.58,1.542,14.572,0.35739,0.35657,0,0,0
677.58,1.547,14.575,0.35901,0.35861,0,0,0
678.58,1.552,14.579,0.35982,0.36062,0,0,0
679.58,1.5574,14.581,0.36109,0.36279,0,0,0
680.58,1.5628,14.584,0.36284,0.36447,0,0,0
681.58,1.568,14.586,0.36551,0.36617,0,0,0
682.58,1.5733,14.589,0.36821,0.36848,0,0,0
683.58,1.5782,14.592,0.36964,0.37004,0,0,0
684.58,1.5838,14.594,0.37187,0.3721,0,0,0
685.58,1.5893,14.596,0.3732,0.37383,0,0,0
686.58,1.5948,14.598,0.37559,0.37608,0,0,0
687.58,1.6,14.6,0.37802,0.37826,0,0,0
688.58,1.6053,14.602,0.38105,0.38014,0,0,0
689.58,1.6104,14.603,0.38299,0.38202,0,0,0
690.58,1.6158,14.605,0.38444,0.38355,0,0,0
691.58,1.6217,14.607,0.38635,0.38547,0,0,0
692.58,1.6272,14.609,0.38844,0.38702,0,0,0
693.58,1.6326,14.611,0.39232,0.38926,0,0,0
694.58,1.638,14.612,0.39482,0.392,0,0,0
695.58,1.6435,14.613,0.39663,0.39445,0,0,0
696.58,1.6495,14.614,0.39885,0.3963,0,0,0
697.58,1.6553,14.614,0.40069,0.39848,0,0,0
698.58,1.6609,14.616,-Inf,0.40097,0,0,0
699.58,1.6661,14.616,-Inf,0.40374,0,0,0
700.58,1.6719,14.616,-Inf,0.40639,0,0,0
701.58,1.678,14.616,-Inf,0.40956,0,0,0
702.58,1.6842,14.615,-Inf,0.41103,0,0,0
703.58,1.6901,14.615,-Inf,0.41197,0,0,0
704.58,1.6959,14.614,-Inf,0.41504,0,0,0
705.58,1.7011,14.613,-Inf,0.4182,0,0,0
706.58,1.7068,14.613,-Inf,0.42104,0,0,0
707.58,1.7125,14.611,-Inf,0.42301,0,0,0
708.58,1.7197,14.609,-Inf,0.42533,0,0,0
709.58,1.7258,14.606,-Inf,0.42704,0,0,0
710.58,1.732,14.602,-Inf,0.43032,0,0,0
711.58,1.7381,14.596,-Inf,0.43279,0,0,0
712.58,1.7455,14.59,-Inf,0.43613,0,0,0
713.58,1.752,14.583,-Inf,0.43889,0,0,0
714.58,1.758,14.576,-Inf,0.44183,0,0,0
715.58,1.7649,14.568,-Inf,0.44417,0,0,0
716.58,1.7721,14.558,-Inf,0.44759,0,0,0
717.58,1.7792,14.546,-Inf,0.45105,0,0,0
718.58,1.7869,14.532,-Inf,0.45478,0,0,0
719.58,1.7945,14.513,-Inf,0.45706,0,0,0
720.58,1.8034,14.484,-Inf,0.46137,0,0,0
721.58,1.8125,14.444,-Inf,-Inf,0,0,0
722.58,1.8215,14.403,-Inf,-Inf,0,0,0
723.58,1.8308,14.359,-Inf,-Inf,0,0,0