File: polyN_optimization/DP600_results/DATA/CH_90_3.csv
Time[s],Displacement[mm],Force[kN],AxStrain_1,AxStrain_2,Thickness[mm],OuterWidth[mm],Diameter[mm]
0.64,0,-0.0078792,0,0,1.5254,19.983,4.9262
1.64,8.2e-05,-0.0088506,-0.00010601,1.6e-05,0,0,0
2.64,0.000253,0.034432,-0.00018502,6.5998e-05,0,0,0
3.64,0.000331,0.10215,5.0999e-05,-0.00019302,0,0,0
4.64,0.000309,0.15043,4.8999e-05,-3.2001e-05,0,0,0
5.64,0.000308,0.18572,-5.2001e-05,-9.4004e-05,0,0,0
6.64,0.000459,0.22543,0.00025197,-0.00027704,0,0,0
7.64,0.000554,0.26158,0.00029396,-8.2003e-05,0,0,0
8.64,0.000602,0.29943,0.00018798,8.4996e-05,0,0,0
9.64,0.000692,0.33886,0.00013799,-3.1e-05,0,0,0
10.64,0.000845,0.37729,4.0999e-05,-5e-06,0,0,0
11.64,0.001044,0.41443,6.0998e-05,-5.8002e-05,0,0,0
12.64,0.000853,0.45315,0.00013599,-7.4003e-05,0,0,0
13.64,0.001358,0.48915,8.8996e-05,5.3999e-05,0,0,0
14.64,0.001179,0.52644,-0.00015201,7.8997e-05,0,0,0
15.64,0.001179,0.56615,3.5999e-05,7.9997e-05,0,0,0
16.64,0.001347,0.60086,7.2997e-05,3.9999e-05,0,0,0
17.64,0.001367,0.63886,0.00010599,-1.3e-05,0,0,0
18.64,0.001294,0.67986,0.00012199,-0.00012201,0,0,0
19.64,0.001503,0.72115,5.5998e-05,-0.00015601,0,0,0
20.64,0.001529,0.761,0.00016899,-3e-05,0,0,0
21.64,0.001847,0.80215,0.00010599,4.9999e-05,0,0,0
22.64,0.002,0.84101,0.00024197,0.00020498,0,0,0
23.64,0.002225,0.88301,0.00025197,3.2999e-05,0,0,0
24.64,0.002407,0.92672,0.00029096,0.00034094,0,0,0
25.64,0.002698,0.96586,-0.00011601,0.00040092,0,0,0
26.64,0.002595,1.0064,2e-05,6.2998e-05,0,0,0
27.64,0.002602,1.0496,1e-05,0.00019498,0,0,0
28.64,0.002509,1.0919,-9.9005e-05,6.5998e-05,0,0,0
29.64,0.002821,1.1324,0.00019498,0.00021198,0,0,0
30.64,0.002794,1.1741,0.00018898,0.00021198,0,0,0
31.64,0.002913,1.2147,0.00025197,0.00030795,0,0,0
32.64,0.003258,1.257,0.00022497,0.00037393,0,0,0
33.64,0.003354,1.3011,1e-05,0.00031095,0,0,0
34.64,0.00382,1.3396,0.00012199,0.00036093,0,0,0
35.64,0.004009,1.3797,0.00013599,0.00059882,0,0,0
36.64,0.004194,1.4236,0.00033794,0.0006288,0,0,0
37.64,0.004314,1.4659,0.00019198,0.00032795,0,0,0
38.64,0.003943,1.5067,0.00023797,0.00040092,0,0,0
39.64,0.003887,1.5487,0.00039692,0.00017898,0,0,0
40.64,0.004079,1.5883,0.00029096,0.00042991,0,0,0
41.64,0.004145,1.63,0.00026796,0.00033095,0,0,0
42.64,0.004463,1.6734,0.00039692,0.00048988,0,0,0
43.64,0.004724,1.7116,0.00041092,0.00076771,0,0,0
44.64,0.00535,1.7514,0.00071774,0.00066178,0,0,0
45.64,0.005757,1.7936,0.00028796,0.00049288,0,0,0
46.64,0.005942,1.8346,0.00027096,0.00046989,0,0,0
47.64,0.006019,1.8744,0.0004469,0.00075072,0,0,0
48.64,0.005959,1.9157,0.00037693,0.00058283,0,0,0
49.64,0.005578,1.9553,0.00039692,0.00036393,0,0,0
50.64,0.005539,1.9963,0.00053985,0.00051587,0,0,0
51.64,0.005499,2.0394,0.00061581,0.00049288,0,0,0
52.64,0.005906,2.0769,0.00065179,0.00064179,0,0,0
53.64,0.005926,2.1164,0.00054285,0.00079069,0,0,0
54.64,0.006456,2.1589,0.0006258,0.00062181,0,0,0
55.64,0.006687,2.2003,0.00076471,0.0007747,0,0,0
56.64,0.007389,2.2394,0.00066878,0.00067177,0,0,0
57.64,0.007641,2.2811,0.00061181,0.00083365,0,0,0
58.64,0.007098,2.3203,0.00051587,0.00053586,0,0,0
59.64,0.007098,2.3613,0.00042391,0.00071175,0,0,0
60.64,0.006969,2.4041,0.00083765,0.00060282,0,0,0
61.64,0.006773,2.4413,0.00075472,0.00050287,0,0,0
62.64,0.006797,2.4809,0.00065479,0.00055285,0,0,0
63.64,0.007134,2.5226,0.0006258,0.00070175,0,0,0
64.64,0.007568,2.5633,0.00068177,0.00081367,0,0,0
65.64,0.008012,2.6029,0.00070475,0.00045989,0,0,0
66.64,0.008495,2.6434,0.00072174,0.00076771,0,0,0
67.64,0.008773,2.6823,0.00067477,0.00083065,0,0,0
68.64,0.008879,2.7237,0.00087662,0.00083365,0,0,0
69.64,0.008581,2.7664,0.00073473,0.00087362,0,0,0
70.64,0.008313,2.8039,0.00068477,0.00074472,0,0,0
71.64,0.008118,2.8434,0.00072174,0.00071774,0,0,0
72.64,0.008127,2.8856,0.00078469,0.00054585,0,0,0
73.64,0.00818,2.9259,0.00087662,0.0006388,0,0,0
74.64,0.008525,2.9651,0.0008936,0.00076471,0,0,0
75.64,0.009273,3.0054,0.00068876,0.00075472,0,0,0
76.64,0.00975,3.0447,0.0007707,0.0010055,0,0,0
77.64,0.010283,3.085,0.00083065,0.00091958,0,0,0
78.64,0.010197,3.1267,0.00078769,0.00064879,0,0,0
79.64,0.009743,3.1643,0.00083765,0.00052286,0,0,0
80.64,0.009534,3.2031,0.00068177,0.00072474,0,0,0
81.64,0.009313,3.2446,0.00069176,0.00055884,0,0,0
82.64,0.009233,3.2853,0.00066478,0.0007747,0,0,0
83.64,0.009472,3.3241,0.0006258,0.00053985,0,0,0
84.64,0.009889,3.3641,0.00084364,0.00094256,0,0,0
85.64,0.010488,3.402,0.00080068,0.00086662,0,0,0
86.64,0.011216,3.4417,0.00087662,0.0010295,0,0,0
87.64,0.011623,3.4836,0.00094256,0.0010554,0,0,0
88.64,0.011855,3.5196,0.00078769,0.00095654,0,0,0
89.64,0.011852,3.5574,0.00086363,0.00094655,0,0,0
90.64,0.011203,3.5983,0.0010095,0.00073173,0,0,0
91.64,0.010912,3.6376,0.00072474,0.0006288,0,0,0
92.64,0.010746,3.6764,0.00098951,0.00082066,0,0,0
93.64,0.011021,3.7164,0.00078769,0.0007777,0,0,0
94.64,0.011123,3.754,0.00084764,0.00073173,0,0,0
95.64,0.011643,3.7944,0.00091658,0.0010125,0,0,0
96.64,0.012547,3.8354,0.00066878,0.00084664,0,0,0
97.64,0.013219,3.8719,0.0009995,0.0012043,0,0,0
98.64,0.013679,3.9104,0.0010654,0.0011683,0,0,0
99.64,0.013484,3.9513,0.00092957,0.00095255,0,0,0
100.64,0.013239,3.9906,0.0010624,0.00090959,0,0,0
101.64,0.012689,4.0284,0.00085064,0.00095654,0,0,0
102.64,0.01253,4.0681,0.00095255,0.0010355,0,0,0
103.64,0.012401,4.1057,0.00097652,0.0010095,0,0,0
104.64,0.012686,4.1447,0.0010355,0.00098252,0,0,0
105.64,0.01315,4.1857,0.0011014,0.00097253,0,0,0
106.64,0.013812,4.2211,0.0011054,0.0010584,0,0,0
107.64,0.014662,4.2593,0.0012772,0.001393,0,0,0
108.64,0.015027,4.2997,0.0010125,0.0012932,0,0,0
109.64,0.015308,4.3409,0.0013231,0.0014559,0,0,0
110.64,0.015195,4.3794,0.0012243,0.001389,0,0,0
111.64,0.014666,4.4156,0.00099251,0.0012243,0,0,0
112.64,0.014268,4.4563,0.0010584,0.0011583,0,0,0
113.64,0.014103,4.4956,0.0011913,0.001389,0,0,0
114.64,0.0145,4.5336,0.0012243,0.0013231,0,0,0
115.64,0.014633,4.5726,0.0010584,0.0011913,0,0,0
116.64,0.015593,4.6104,0.0012243,0.0016207,0,0,0
117.64,0.016586,4.6494,0.0012572,0.0016536,0,0,0
118.64,0.017082,4.6896,0.0012902,0.0017864,0,0,0
119.64,0.017413,4.7281,0.0012902,0.0017535,0,0,0
120.64,0.017281,4.7639,0.0013231,0.0018193,0,0,0
121.64,0.017049,4.8043,0.0014889,0.001423,0,0,0
122.64,0.016288,4.8433,0.001423,0.0016866,0,0,0
123.64,0.016122,4.8799,0.0011913,0.001423,0,0,0
124.64,0.016155,4.9186,0.001389,0.0014889,0,0,0
125.64,0.016586,4.9564,0.0015548,0.0014559,0,0,0
126.64,0.017149,4.9954,0.0014559,0.0016536,0,0,0
127.64,0.017811,5.0349,0.0016536,0.0017864,0,0,0
128.64,0.018705,5.0717,0.001389,0.0019182,0,0,0
129.64,0.019168,5.1079,0.0016866,0.0019182,0,0,0
130.64,0.019499,5.149,0.0019511,0.0020509,0,0,0
131.64,0.019102,5.187,0.0017864,0.0018852,0,0,0
132.64,0.018738,5.2236,0.0015877,0.0016207,0,0,0
133.64,0.018307,5.2619,0.0017864,0.0016207,0,0,0
134.64,0.018109,5.2994,0.0017535,0.0017535,0,0,0
135.64,0.018506,5.3387,0.0015877,0.0017864,0,0,0
136.64,0.018771,5.3789,0.0018193,0.0016866,0,0,0
137.64,0.019599,5.4164,0.0017195,0.0018852,0,0,0
138.64,0.020261,5.4526,0.0017535,0.0020509,0,0,0
139.64,0.020956,5.4933,0.0021497,0.0022485,0,0,0
140.64,0.021188,5.5326,0.002017,0.0024799,0,0,0
141.64,0.02132,5.5701,0.0022155,0.0020838,0,0,0
142.64,0.020724,5.6091,0.0018523,0.0021168,0,0,0
143.64,0.020294,5.6474,0.002017,0.001984,0,0,0
144.64,0.020095,5.6871,0.0019182,0.0018852,0,0,0
145.64,0.020327,5.7276,0.0018523,0.0018523,0,0,0
146.64,0.020724,5.7654,0.0018523,0.0019511,0,0,0
147.64,0.021452,5.8011,0.0018852,0.001984,0,0,0
148.64,0.022512,5.8423,0.0020509,0.0023472,0,0,0
149.64,0.02271,5.8813,0.0021168,0.0024799,0,0,0
150.64,0.02324,5.9181,0.0019511,0.0025787,0,0,0
151.64,0.023306,5.9576,0.0021168,0.0024799,0,0,0
152.64,0.022942,5.9954,0.0022155,0.0023143,0,0,0
153.64,0.022876,6.0344,0.0020509,0.0021168,0,0,0
154.64,0.022578,6.0753,0.001984,0.0020509,0,0,0
155.64,0.02271,6.1131,0.0018523,0.0021826,0,0,0
156.64,0.02324,6.1481,0.0020838,0.0021497,0,0,0
157.64,0.024001,6.1893,0.0021497,0.002017,0,0,0
158.64,0.024531,6.2283,0.0022814,0.0027113,0,0,0
159.64,0.025226,6.2651,0.0022814,0.0026784,0,0,0
160.64,0.025624,6.3039,0.0027113,0.0030743,0,0,0
161.64,0.025855,6.3414,0.0029417,0.0033384,0,0,0
162.64,0.025756,6.3804,0.0025458,0.0028759,0,0,0
163.64,0.025855,6.4199,0.0024799,0.0027442,0,0,0
164.64,0.025822,6.4567,0.0025128,0.0025787,0,0,0
165.64,0.025657,6.4919,0.0024141,0.0025787,0,0,0
166.64,0.026253,6.5323,0.0025128,0.0026116,0,0,0
167.64,0.026617,6.5706,0.0026445,0.0029746,0,0,0
168.64,0.027577,6.6061,0.0025787,0.0030414,0,0,0
169.64,0.027974,6.6443,0.003173,0.0031072,0,0,0
170.64,0.028537,6.6811,0.0031401,0.0035686,0,0,0
171.64,0.028835,6.7187,0.003173,0.0036015,0,0,0
172.64,0.029067,6.7579,0.0033384,0.0038984,0,0,0
173.64,0.029331,6.7947,0.0032387,0.0036683,0,0,0
174.64,0.029133,6.8291,0.003173,0.0033713,0,0,0
175.64,0.029298,6.8686,0.0030085,0.0032059,0,0,0
176.64,0.029563,6.9063,0.0029756,0.0033384,0,0,0
177.64,0.030027,6.9419,0.0029417,0.0034371,0,0,0
178.64,0.030523,6.9799,0.0033055,0.0036354,0,0,0
179.64,0.030888,7.016,0.0035357,0.0038326,0,0,0
180.64,0.031417,7.0537,0.0038655,0.0043605,0,0,0
181.64,0.031583,7.0926,0.0038984,0.0046243,0,0,0
182.64,0.032046,7.1287,0.0038326,0.0042948,0,0,0
183.64,0.032477,7.1636,0.0038984,0.0038984,0,0,0
184.64,0.032642,7.2026,0.0037669,0.0038655,0,0,0
185.64,0.033106,7.2403,0.0035357,0.003734,0,0,0
186.64,0.033337,7.2756,0.0037011,0.0035029,0,0,0
187.64,0.034066,7.3126,0.003734,0.003998,0,0,0
188.64,0.034297,7.3484,0.003734,0.0040637,0,0,0
189.64,0.034595,7.3854,0.0037669,0.004459,0,0,0
190.64,0.035257,7.4224,0.0043933,0.0047228,0,0,0
191.64,0.035456,7.4587,0.00469,0.0054143,0,0,0
192.64,0.035986,7.4941,0.0048552,0.0053158,0,0,0
193.64,0.036515,7.5304,0.0046571,0.0049537,0,0,0
194.64,0.037144,7.5651,0.0048552,0.00469,0,0,0
195.64,0.038237,7.6,0.0044919,0.0045914,0,0,0
196.64,0.038998,7.6369,0.00469,0.0046571,0,0,0
197.64,0.039462,7.6736,0.0048224,0.0048542,0,0,0
198.64,0.039429,7.7091,0.0047228,0.0050194,0,0,0
199.64,0.039859,7.7437,0.0050522,0.00548,0,0,0
200.64,0.040223,7.7786,0.0053815,0.0059085,0,0,0
201.64,0.040753,7.8139,0.0059085,0.0063359,0,0,0
202.64,0.041184,7.8496,0.0062375,0.0067641,0,0,0
203.64,0.04178,7.8831,0.0059085,0.006632,0,0,0
204.64,0.042839,7.9186,0.0058757,0.0063687,0,0,0
205.64,0.043931,7.9539,0.0055466,0.0058429,0,0,0
206.64,0.044958,7.9891,0.005645,0.0057763,0,0,0
207.64,0.045421,8.0241,0.0056122,0.0059741,0,0,0
208.64,0.045851,8.0577,0.0058757,0.0060725,0,0,0
209.64,0.045719,8.0913,0.0061719,0.0064352,0,0,0
210.64,0.045918,8.1266,0.0065664,0.0070263,0,0,0
211.64,0.046182,8.1616,0.0071583,0.0077171,0,0,0
212.64,0.046977,8.1946,0.0075852,0.0080455,0,0,0
213.64,0.048102,8.2291,0.0074869,0.0079136,0,0,0
214.64,0.049228,8.2631,0.0072566,0.0077499,0,0,0
215.64,0.051148,8.2969,0.0071911,0.0071911,0,0,0
216.64,0.052472,8.3306,0.0072248,0.0072566,0,0,0
217.64,0.053135,8.3637,0.0071256,0.0071583,0,0,0
218.64,0.053631,8.3976,0.0073559,0.0073886,0,0,0
219.64,0.05426,8.4316,0.0078154,0.0078809,0,0,0
220.64,0.05436,8.4649,0.0082429,0.0086693,0,0,0
221.64,0.054956,8.4971,0.0087675,0.0094888,0,0,0
222.64,0.055618,8.5311,0.0091292,0.009981,0,0,0
223.64,0.056975,8.5649,0.0093581,0.010144,0,0,0
224.64,0.058432,8.5981,0.0091609,0.0097513,0,0,0
225.64,0.05969,8.6311,0.0088993,0.0092927,0,0,0
226.64,0.061015,8.6637,0.0086366,0.0093254,0,0,0
227.64,0.061842,8.6959,0.0088339,0.0092263,0,0,0
228.64,0.062637,8.7281,0.0089974,0.0095879,0,0,0
229.64,0.063365,8.7616,0.0093581,0.010014,0,0,0
230.64,0.064292,8.7924,0.010046,0.010604,0,0,0
231.64,0.065285,8.8244,0.010768,0.011586,0,0,0
232.64,0.066642,8.8569,0.011292,0.012175,0,0,0
233.64,0.067635,8.8884,0.011356,0.012142,0,0,0
234.64,0.069092,8.9201,0.011291,0.012043,0,0,0
235.64,0.070052,8.9503,0.011128,0.011651,0,0,0
236.64,0.070814,8.9804,0.010703,0.011356,0,0,0
237.64,0.072105,9.0119,0.010997,0.011324,0,0,0
238.64,0.073263,9.0424,0.011161,0.011618,0,0,0
239.64,0.07419,9.0721,0.011652,0.012142,0,0,0
240.64,0.076177,9.1031,0.012306,0.012731,0,0,0
241.64,0.078097,9.1334,0.012731,0.013645,0,0,0
242.64,0.079719,9.1641,0.013417,0.014102,0,0,0
243.64,0.080911,9.1949,0.013907,0.014298,0,0,0
244.64,0.081772,9.224,0.013939,0.014428,0,0,0
245.64,0.082534,9.2531,0.013841,0.014266,0,0,0
246.64,0.083461,9.2831,0.013482,0.013939,0,0,0
247.64,0.084521,9.3136,0.013319,0.014135,0,0,0
248.64,0.085878,9.3406,0.013777,0.0142,0,0,0
249.64,0.088096,9.371,0.014233,0.014918,0,0,0
250.64,0.090083,9.4003,0.014853,0.015538,0,0,0
251.64,0.091606,9.4289,0.015734,0.016352,0,0,0
252.64,0.093393,9.4579,0.016417,0.016776,0,0,0
253.64,0.094684,9.4856,0.016906,0.017459,0,0,0
254.64,0.095909,9.5146,0.017297,0.017394,0,0,0
255.64,0.097498,9.5449,0.017199,0.017198,0,0,0
256.64,0.098789,9.571,0.017134,0.016938,0,0,0
257.64,0.10064,9.5989,0.016971,0.017069,0,0,0
258.64,0.10269,9.628,0.017362,0.01697,0,0,0
259.64,0.10418,9.6564,0.017688,0.017588,0,0,0
260.64,0.10548,9.6829,0.018467,0.018337,0,0,0
261.64,0.10673,9.7109,0.018988,0.018791,0,0,0
262.64,0.10806,9.7376,0.019961,0.019604,0,0,0
263.64,0.10991,9.7646,0.020318,0.020188,0,0,0
264.64,0.1114,9.7939,0.020578,0.02009,0,0,0
265.64,0.11369,9.819,0.020707,0.019993,0,0,0
266.64,0.11617,9.8451,0.020545,0.020025,0,0,0
267.64,0.11842,9.873,0.020513,0.020057,0,0,0
268.64,0.12021,9.8997,0.020805,0.020253,0,0,0
269.64,0.12173,9.9259,0.021065,0.020545,0,0,0
270.64,0.12329,9.9529,0.021519,0.021355,0,0,0
271.64,0.12455,9.9786,0.02249,0.021938,0,0,0
272.64,0.12597,10.005,0.023073,0.022586,0,0,0
273.64,0.12806,10.032,0.023592,0.023103,0,0,0
274.64,0.13044,10.056,0.024076,0.023492,0,0,0
275.64,0.13249,10.082,0.024108,0.023718,0,0,0
276.64,0.13428,10.109,0.024269,0.023847,0,0,0
277.64,0.13607,10.134,0.024528,0.024299,0,0,0
278.64,0.13789,10.159,0.024593,0.024429,0,0,0
279.64,0.13978,10.183,0.025012,0.025011,0,0,0
280.64,0.14173,10.207,0.025334,0.025494,0,0,0
281.64,0.14438,10.233,0.025819,0.026107,0,0,0
282.64,0.14729,10.259,0.026399,0.026397,0,0,0
283.64,0.14944,10.282,0.026786,0.026881,0,0,0
284.64,0.15117,10.305,0.027172,0.027236,0,0,0
285.64,0.15272,10.33,0.027527,0.02759,0,0,0
286.64,0.15424,10.354,0.027688,0.02804,0,0,0
287.64,0.15587,10.378,0.027817,0.028363,0,0,0
288.64,0.15782,10.403,0.028332,0.028685,0,0,0
289.64,0.1603,10.425,0.028429,0.029232,0,0,0
290.64,0.16262,10.449,0.028975,0.029457,0,0,0
291.64,0.16501,10.475,0.029426,0.030067,0,0,0
292.64,0.16699,10.497,0.029747,0.03026,0,0,0
293.64,0.16881,10.519,0.030165,0.030774,0,0,0
294.64,0.17097,10.543,0.030776,0.031158,0,0,0
295.64,0.17325,10.566,0.031353,0.03135,0,0,0
296.64,0.17596,10.589,0.031802,0.031832,0,0,0
297.64,0.17845,10.612,0.032027,0.032537,0,0,0
298.64,0.18136,10.634,0.032475,0.032666,0,0,0
299.64,0.18321,10.657,0.032731,0.033115,0,0,0
300.64,0.18507,10.681,0.033436,0.033467,0,0,0
301.64,0.18689,10.702,0.033724,0.033787,0,0,0
302.64,0.18845,10.724,0.034108,0.034075,0,0,0
303.64,0.19073,10.746,0.034588,0.034651,0,0,0
304.64,0.19351,10.769,0.035003,0.034874,0,0,0
305.64,0.19626,10.79,0.035355,0.035225,0,0,0
306.64,0.19881,10.812,0.036026,0.035769,0,0,0
307.64,0.20066,10.833,0.036473,0.036184,0,0,0
308.64,0.20298,10.855,0.03676,0.036854,0,0,0
309.64,0.20503,10.877,0.037047,0.037173,0,0,0
310.64,0.20785,10.897,0.037462,0.037651,0,0,0
311.64,0.2104,10.917,0.037653,0.037906,0,0,0
312.64,0.21368,10.939,0.038322,0.038544,0,0,0
313.64,0.21616,10.96,0.038737,0.038799,0,0,0
314.64,0.21841,10.981,0.039278,0.039213,0,0,0
315.64,0.22046,11.002,0.039692,0.039626,0,0,0
316.64,0.22245,11.021,0.040169,0.040136,0,0,0
317.64,0.22427,11.042,0.040582,0.040517,0,0,0
318.64,0.22698,11.064,0.041028,0.040994,0,0,0
319.64,0.22967,11.083,0.041409,0.04147,0,0,0
320.64,0.23198,11.103,0.041949,0.041851,0,0,0
321.64,0.23473,11.123,0.042267,0.042422,0,0,0
322.64,0.23659,11.143,0.043154,0.042803,0,0,0
323.64,0.2388,11.163,0.043504,0.043184,0,0,0
324.64,0.24116,11.183,0.043757,0.043564,0,0,0
325.64,0.24394,11.201,0.044486,0.044325,0,0,0
326.64,0.24702,11.222,0.044738,0.044514,0,0,0
327.64,0.24993,11.242,0.045339,0.044862,0,0,0
328.64,0.25265,11.26,0.045466,0.045401,0,0,0
329.64,0.25516,11.28,0.046161,0.045717,0,0,0
330.64,0.25728,11.299,0.046635,0.046349,0,0,0
331.64,0.2594,11.318,0.047236,0.046886,0,0,0
332.64,0.26175,11.337,0.047741,0.047202,0,0,0
333.64,0.2645,11.357,0.048088,0.047708,0,0,0
334.64,0.26754,11.376,0.048687,0.048055,0,0,0
335.64,0.27023,11.395,0.04897,0.048843,0,0,0
336.64,0.27231,11.413,0.049255,0.049032,0,0,0
337.64,0.2744,11.432,0.049664,0.049568,0,0,0
338.64,0.27688,11.45,0.0502,0.049884,0,0,0
339.64,0.27936,11.468,0.050609,0.050576,0,0,0
340.64,0.28248,11.487,0.051206,0.051143,0,0,0
341.64,0.28585,11.505,0.05171,0.051614,0,0,0
342.64,0.28867,11.524,0.05215,0.052054,0,0,0
343.64,0.29152,11.542,0.052872,0.052714,0,0,0
344.64,0.29387,11.56,0.053501,0.053436,0,0,0
345.64,0.29655,11.578,0.054097,0.053969,0,0,0
346.64,0.29903,11.596,0.054568,0.054409,0,0,0
347.64,0.30198,11.613,0.055007,0.054534,0,0,0
348.64,0.30496,11.63,0.055508,0.055004,0,0,0
349.64,0.3079,11.647,0.05604,0.055631,0,0,0
350.64,0.31032,11.665,0.056322,0.0561,0,0,0
351.64,0.31257,11.682,0.057292,0.056569,0,0,0
352.64,0.31456,11.699,0.057667,0.057195,0,0,0
353.64,0.31694,11.716,0.058416,0.057944,0,0,0
354.64,0.31986,11.733,0.059009,0.058538,0,0,0
355.64,0.323,11.75,0.059447,0.059006,0,0,0
356.64,0.32635,11.767,0.059602,0.059349,0,0,0
357.64,0.3291,11.783,0.06032,0.059942,0,0,0
358.64,0.33191,11.8,0.0606,0.060596,0,0,0
359.64,0.3341,11.817,0.061409,0.060815,0,0,0
360.64,0.33714,11.833,0.06172,0.061313,0,0,0
361.64,0.33999,11.849,0.062343,0.061967,0,0,0
362.64,0.34337,11.866,0.062592,0.062434,0,0,0
363.64,0.34648,11.882,0.0634,0.063179,0,0,0
364.64,0.34926,11.898,0.06399,0.063366,0,0,0
365.64,0.35175,11.914,0.064456,0.063895,0,0,0
366.64,0.3541,11.931,0.064983,0.064454,0,0,0
367.64,0.35655,11.948,0.065635,0.065075,0,0,0
368.64,0.3592,11.964,0.065914,0.065291,0,0,0
369.64,0.36231,11.98,0.066348,0.066005,0,0,0
370.64,0.36559,11.995,0.067059,0.066779,0,0,0
371.64,0.3685,12.011,0.067462,0.067058,0,0,0
372.64,0.37069,12.026,0.067989,0.067739,0,0,0
373.64,0.37333,12.041,0.068453,0.068295,0,0,0
374.64,0.37598,12.056,0.069226,0.068605,0,0,0
375.64,0.37939,12.073,0.069906,0.069469,0,0,0
376.64,0.38271,12.088,0.070337,0.069902,0,0,0
377.64,0.38608,12.104,0.070955,0.070488,0,0,0
378.64,0.38936,12.119,0.071602,0.071014,0,0,0
379.64,0.39208,12.133,0.072342,0.071599,0,0,0
380.64,0.39469,12.149,0.072896,0.072184,0,0,0
381.64,0.39721,12.163,0.073203,0.072585,0,0,0
382.64,0.40029,12.178,0.073881,0.073047,0,0,0
383.64,0.4039,12.193,0.074403,0.07357,0,0,0
384.64,0.40678,12.208,0.075049,0.074154,0,0,0
385.64,0.40952,12.223,0.075632,0.074799,0,0,0
386.64,0.41201,12.238,0.076184,0.075414,0,0,0
387.64,0.41432,12.252,0.076767,0.075659,0,0,0
388.64,0.41717,12.266,0.077288,0.076242,0,0,0
389.64,0.42029,12.281,0.077961,0.076918,0,0,0
390.64,0.42369,12.295,0.078512,0.077684,0,0,0
391.64,0.42701,12.31,0.079095,0.078082,0,0,0
392.64,0.42992,12.324,0.079828,0.078817,0,0,0
393.64,0.4327,12.339,0.080378,0.079245,0,0,0
394.64,0.43558,12.352,0.080807,0.079886,0,0,0
395.64,0.4385,12.366,0.081355,0.080345,0,0,0
396.64,0.44214,12.38,0.081844,0.080986,0,0,0
397.64,0.44558,12.394,0.082484,0.081352,0,0,0
398.64,0.44893,12.408,0.08288,0.082024,0,0,0
399.64,0.45194,12.422,0.083185,0.082543,0,0,0
400.64,0.45465,12.436,0.083854,0.083426,0,0,0
401.64,0.45724,12.449,0.084372,0.083791,0,0,0
402.64,0.45995,12.463,0.084951,0.084339,0,0,0
403.64,0.46346,12.478,0.085681,0.084918,0,0,0
404.64,0.46694,12.491,0.086107,0.085646,0,0,0
405.64,0.47012,12.505,0.086774,0.085951,0,0,0
406.64,0.4726,12.518,0.087503,0.086649,0,0,0
407.64,0.47548,12.531,0.087988,0.087043,0,0,0
408.64,0.47816,12.544,0.088504,0.087681,0,0,0
409.64,0.48127,12.558,0.089019,0.088257,0,0,0
410.64,0.48482,12.571,0.089685,0.088893,0,0,0
411.64,0.48819,12.584,0.09026,0.089559,0,0,0
412.64,0.49194,12.599,0.090774,0.090286,0,0,0
413.64,0.49475,12.611,0.09156,0.090739,0,0,0
414.64,0.49763,12.624,0.092015,0.091525,0,0,0
415.64,0.50064,12.637,0.092921,0.091948,0,0,0
416.64,0.50396,12.649,0.093614,0.092462,0,0,0
417.64,0.50776,12.662,0.094489,0.093216,0,0,0
418.64,0.51144,12.675,0.094669,0.093638,0,0,0
419.64,0.51432,12.687,0.095361,0.094241,0,0,0
420.64,0.51723,12.7,0.096024,0.094783,0,0,0
421.64,0.52024,12.713,0.096745,0.095565,0,0,0
422.64,0.52289,12.725,0.097136,0.096076,0,0,0
423.64,0.52584,12.738,0.097828,0.096948,0,0,0
424.64,0.52935,12.75,0.098607,0.097639,0,0,0
425.64,0.5328,12.762,0.098878,0.09833,0,0,0
426.64,0.53594,12.774,0.099627,0.09863,0,0,0
427.64,0.53875,12.787,0.10044,0.09911,0,0,0
428.64,0.5414,12.798,0.10136,0.09956,0,0,0
429.64,0.54465,12.81,0.10184,0.10034,0,0,0
430.64,0.54789,12.823,0.10223,0.10088,0,0,0
431.64,0.55144,12.835,0.10319,0.10168,0,0,0
432.64,0.55528,12.847,0.10331,0.1027,0,0,0
433.64,0.55852,12.858,0.10399,0.10342,0,0,0
434.64,0.5614,12.87,0.1048,0.1041,0,0,0
435.64,0.56478,12.882,0.10533,0.10455,0,0,0
436.64,0.56763,12.895,0.10581,0.10506,0,0,0
437.64,0.57134,12.905,0.10658,0.10545,0,0,0
438.64,0.57508,12.917,0.10747,0.10592,0,0,0
439.64,0.57872,12.929,0.10825,0.10655,0,0,0
440.64,0.58157,12.94,0.10854,0.10771,0,0,0
441.64,0.58438,12.952,0.10934,0.10812,0,0,0
442.64,0.58736,12.963,0.11023,0.10919,0,0,0
443.64,0.59044,12.975,0.11062,0.10967,0,0,0
444.64,0.59388,12.987,0.11109,0.11017,0,0,0
445.64,0.59736,12.999,0.11166,0.11085,0,0,0
446.64,0.60071,13.009,0.11266,0.11133,0,0,0
447.64,0.60382,13.021,0.11305,0.11192,0,0,0
448.64,0.6066,13.033,0.11367,0.11254,0,0,0
449.64,0.60988,13.044,0.11467,0.11346,0,0,0
450.64,0.61342,13.055,0.11506,0.11431,0,0,0
451.64,0.61686,13.066,0.11597,0.11508,0,0,0
452.64,0.62107,13.077,0.11665,0.11594,0,0,0
453.64,0.62471,13.089,0.11747,0.1165,0,0,0
454.64,0.62756,13.1,0.11783,0.11712,0,0,0
455.64,0.63083,13.111,0.11859,0.1177,0,0,0
456.64,0.63408,13.122,0.11939,0.11829,0,0,0
457.64,0.63785,13.133,0.12024,0.11876,0,0,0
458.64,0.64189,13.144,0.12088,0.1197,0,0,0
459.64,0.6456,13.154,0.12109,0.12082,0,0,0
460.64,0.64885,13.164,0.12182,0.12167,0,0,0
461.64,0.65176,13.175,0.12252,0.12234,0,0,0
462.64,0.65461,13.186,0.12331,0.12299,0,0,0
463.64,0.65808,13.197,0.1241,0.12369,0,0,0
464.64,0.66173,13.206,0.12486,0.12422,0,0,0
465.64,0.6655,13.217,0.12557,0.12477,0,0,0
466.64,0.66898,13.228,0.12656,0.12556,0,0,0
467.64,0.67186,13.238,0.1274,0.12664,0,0,0
468.64,0.6749,13.249,0.12804,0.12743,0,0,0
469.64,0.67811,13.259,0.12883,0.12813,0,0,0
470.64,0.68152,13.269,0.12915,0.12888,0,0,0
471.64,0.6857,13.28,0.13008,0.12935,0,0,0
472.64,0.6895,13.29,0.13037,0.1299,0,0,0
473.64,0.69278,13.3,0.13118,0.13031,0,0,0
474.64,0.69606,13.31,0.13179,0.13118,0,0,0
475.64,0.6996,13.321,0.13255,0.13208,0,0,0
476.64,0.70288,13.33,0.13347,0.13283,0,0,0
477.64,0.70659,13.34,0.13428,0.13405,0,0,0
478.64,0.71083,13.35,0.13498,0.13448,0,0,0
479.64,0.71457,13.361,0.13553,0.13512,0,0,0
480.64,0.71801,13.371,0.13616,0.13561,0,0,0
481.64,0.72116,13.381,0.13686,0.13616,0,0,0
482.64,0.72447,13.391,0.13749,0.137,0,0,0
483.64,0.72814,13.401,0.13798,0.13763,0,0,0
484.64,0.73195,13.411,0.13841,0.13873,0,0,0
485.64,0.73556,13.42,0.13948,0.13922,0,0,0
486.64,0.7388,13.431,0.14046,0.14046,0,0,0
487.64,0.74221,13.44,0.14115,0.1412,0,0,0
488.64,0.74536,13.45,0.1421,0.14221,0,0,0
489.64,0.7487,13.459,0.14267,0.14244,0,0,0
490.64,0.75281,13.469,0.14345,0.14313,0,0,0
491.64,0.75665,13.479,0.14428,0.14419,0,0,0
492.64,0.76032,13.488,0.14491,0.14485,0,0,0
493.64,0.76334,13.497,0.14537,0.14571,0,0,0
494.64,0.76698,13.506,0.1456,0.14599,0,0,0
495.64,0.77042,13.516,0.14645,0.14668,0,0,0
496.64,0.77423,13.525,0.14714,0.14771,0,0,0
497.64,0.77834,13.534,0.14817,0.14814,0,0,0
498.64,0.78198,13.544,0.14874,0.14896,0,0,0
499.64,0.78595,13.553,0.14968,0.14936,0,0,0
500.64,0.78943,13.562,0.15062,0.15062,0,0,0
501.64,0.79294,13.572,0.15165,0.15133,0,0,0
502.64,0.79622,13.581,0.15236,0.15221,0,0,0
503.64,0.80012,13.59,0.15301,0.15332,0,0,0
504.64,0.80426,13.599,0.15375,0.15445,0,0,0
505.64,0.8082,13.607,0.15463,0.15516,0,0,0
506.64,0.81131,13.617,0.15576,0.15624,0,0,0
507.64,0.81472,13.626,0.15658,0.15746,0,0,0
508.64,0.81803,13.634,0.15726,0.15794,0,0,0
509.64,0.82151,13.642,0.15803,0.15879,0,0,0
510.64,0.82548,13.651,0.15899,0.15941,0,0,0
511.64,0.82939,13.659,0.15978,0.16048,0,0,0
512.64,0.8329,13.669,0.16031,0.16099,0,0,0
513.64,0.83621,13.677,0.1613,0.16203,0,0,0
514.64,0.83942,13.687,0.1622,0.16315,0,0,0
515.64,0.843,13.696,0.16293,0.1645,0,0,0
516.64,0.84724,13.704,0.16375,0.16529,0,0,0
517.64,0.85148,13.713,0.16431,0.16585,0,0,0
518.64,0.85518,13.722,0.16502,0.16694,0,0,0
519.64,0.85903,13.73,0.16591,0.16734,0,0,0
520.64,0.86237,13.738,0.16675,0.16787,0,0,0
521.64,0.86581,13.747,0.16759,0.16876,0,0,0
522.64,0.86989,13.756,0.16812,0.16994,0,0,0
523.64,0.87406,13.764,0.16868,0.17142,0,0,0
524.64,0.8781,13.772,0.16935,0.1727,0,0,0
525.64,0.8818,13.781,0.1703,0.17328,0,0,0
526.64,0.88528,13.789,0.17164,0.17437,0,0,0
527.64,0.88889,13.798,0.17281,0.17515,0,0,0
528.64,0.8926,13.806,0.17343,0.17598,0,0,0
529.64,0.89657,13.814,0.1744,0.17687,0,0,0
530.64,0.90068,13.822,0.17562,0.17814,0,0,0
531.64,0.90425,13.83,0.17609,0.17903,0,0,0
532.64,0.90799,13.839,0.17709,0.18055,0,0,0
533.64,0.91111,13.848,0.17825,0.1819,0,0,0
534.64,0.91482,13.855,0.1795,0.18226,0,0,0
535.64,0.91892,13.863,0.18019,0.18372,0,0,0
536.64,0.92309,13.871,0.18121,0.18367,0,0,0
537.64,0.92687,13.879,0.18204,0.18444,0,0,0
538.64,0.93051,13.887,0.18309,0.18571,0,0,0
539.64,0.93445,13.895,0.18359,0.18697,0,0,0
540.64,0.93819,13.903,0.1848,0.18818,0,0,0
541.64,0.94206,13.911,0.18538,0.18922,0,0,0
542.64,0.9463,13.918,0.18642,0.19004,0,0,0
543.64,0.95051,13.926,0.18722,0.1913,0,0,0
544.64,0.95471,13.934,0.18796,0.19157,0,0,0
545.64,0.95812,13.942,0.18862,0.19269,0,0,0
546.64,0.9618,13.949,0.18928,0.19324,0,0,0
547.64,0.96597,13.957,0.19007,0.19447,0,0,0
548.64,0.97004,13.965,0.19133,0.19561,0,0,0
549.64,0.97431,13.972,0.19201,0.19642,0,0,0
550.64,0.97845,13.98,0.19335,0.19789,0,0,0
551.64,0.98199,13.987,0.19425,0.19846,0,0,0
552.64,0.98547,13.994,0.19572,0.19912,0,0,0
553.64,0.98911,14.002,0.19735,0.2002,0,0,0
554.64,0.99332,14.01,0.19798,0.20123,0,0,0
555.64,0.99755,14.017,0.1989,0.20169,0,0,0
556.64,1.0017,14.024,0.19955,0.20323,0,0,0
557.64,1.0053,14.032,0.20026,0.20439,0,0,0
558.64,1.0086,14.039,0.20153,0.20607,0,0,0
559.64,1.0124,14.046,0.20283,0.20666,0,0,0
560.64,1.0164,14.054,0.20439,0.20709,0,0,0
561.64,1.0208,14.061,0.20588,0.20838,0,0,0
562.64,1.0251,14.069,0.20706,0.20879,0,0,0
563.64,1.0291,14.076,0.20803,0.20962,0,0,0
564.64,1.0327,14.083,0.20854,0.21024,0,0,0
565.64,1.0367,14.09,0.2098,0.21195,0,0,0
566.64,1.0407,14.097,0.21101,0.21294,0,0,0
567.64,1.0452,14.104,0.212,0.21439,0,0,0
568.64,1.0496,14.111,0.21337,0.21573,0,0,0
569.64,1.0539,14.118,0.21478,0.21663,0,0,0
570.64,1.0574,14.125,0.21598,0.21762,0,0,0
571.64,1.0614,14.131,0.21662,0.21876,0,0,0
572.64,1.0656,14.139,0.21835,0.22028,0,0,0
573.64,1.0702,14.146,0.21849,0.22129,0,0,0
574.64,1.0744,14.152,0.21982,0.22237,0,0,0
575.64,1.0786,14.16,0.22146,0.22375,0,0,0
576.64,1.0823,14.167,0.22303,0.22391,0,0,0
577.64,1.086,14.173,0.22454,0.22545,0,0,0
578.64,1.0904,14.179,0.22538,0.22659,0,0,0
579.64,1.0944,14.186,0.22625,0.22767,0,0,0
580.64,1.0989,14.192,0.22712,0.22827,0,0,0
581.64,1.1029,14.199,0.22773,0.22946,0,0,0
582.64,1.1067,14.206,0.22907,0.2308,0,0,0
583.64,1.1103,14.212,0.23044,0.23133,0,0,0
584.64,1.1144,14.219,0.23186,0.23314,0,0,0
585.64,1.1186,14.225,0.23318,0.23419,0,0,0
586.64,1.1231,14.232,0.23443,0.2368,0,0,0
587.64,1.1274,14.239,0.23603,0.23764,0,0,0
588.64,1.1316,14.245,0.23658,0.23897,0,0,0
589.64,1.135,14.251,0.23783,0.24011,0,0,0
590.64,1.1393,14.258,0.23921,0.24082,0,0,0
591.64,1.1436,14.264,0.24,0.24158,0,0,0
592.64,1.1481,14.271,0.24184,0.24319,0,0,0
593.64,1.1528,14.277,0.24278,0.24446,0,0,0
594.64,1.1566,14.284,0.24439,0.24518,0,0,0
595.64,1.1609,14.29,0.24578,0.24668,0,0,0
596.64,1.1649,14.296,0.24661,0.24816,0,0,0
597.64,1.1694,14.302,0.24778,0.24984,0,0,0
598.64,1.1742,14.309,0.24919,0.25046,0,0,0
599.64,1.179,14.315,0.25025,0.25232,0,0,0
600.64,1.1833,14.321,0.25283,0.2543,0,0,0
601.64,1.1872,14.327,0.25426,0.25522,0,0,0
602.64,1.1912,14.333,0.25547,0.25717,0,0,0
603.64,1.1957,14.339,0.25637,0.25766,0,0,0
604.64,1.2005,14.345,0.25762,0.25896,0,0,0
605.64,1.2048,14.35,0.25908,0.25983,0,0,0
606.64,1.2094,14.356,0.26102,0.26175,0,0,0
607.64,1.2131,14.362,0.26194,0.2631,0,0,0
608.64,1.2172,14.369,0.26362,0.26417,0,0,0
609.64,1.2217,14.375,0.2642,0.26488,0,0,0
610.64,1.2263,14.38,0.26598,0.26569,0,0,0
611.64,1.2309,14.385,0.26704,0.26696,0,0,0
612.64,1.2349,14.391,0.26808,0.26863,0,0,0
613.64,1.2388,14.397,0.26968,0.27058,0,0,0
614.64,1.2433,14.402,0.27112,0.27242,0,0,0
615.64,1.2477,14.407,0.27311,0.27458,0,0,0
616.64,1.2522,14.413,0.27482,0.27627,0,0,0
617.64,1.257,14.419,0.27585,0.27753,0,0,0
618.64,1.2613,14.425,0.27613,0.27848,0,0,0
619.64,1.2654,14.43,0.27735,0.27933,0,0,0
620.64,1.2698,14.435,0.27928,-Inf,0,0,0
621.64,1.2744,14.44,-Inf,-Inf,0,0,0
622.64,1.2794,14.445,-Inf,-Inf,0,0,0
623.64,1.2841,14.451,-Inf,-Inf,0,0,0
624.64,1.2887,14.456,-Inf,-Inf,0,0,0
625.64,1.2928,14.461,-Inf,-Inf,0,0,0
626.64,1.297,14.467,-Inf,-Inf,0,0,0
627.64,1.3016,14.472,-Inf,-Inf,0,0,0
628.64,1.3067,14.476,-Inf,-Inf,0,0,0
629.64,1.3114,14.482,-Inf,-Inf,0,0,0
630.64,1.3159,14.488,-Inf,-Inf,0,0,0
631.64,1.3202,14.493,-Inf,-Inf,0,0,0
632.64,1.3246,14.497,-Inf,-Inf,0,0,0
633.64,1.3293,14.503,-Inf,-Inf,0,0,0
634.64,1.3344,14.508,-Inf,-Inf,0,0,0
635.64,1.3393,14.513,-Inf,-Inf,0,0,0
636.64,1.3436,14.517,-Inf,-Inf,0,0,0
637.64,1.348,14.522,-Inf,-Inf,0,0,0
638.64,1.3523,14.527,-Inf,-Inf,0,0,0
639.64,1.3571,14.531,-Inf,-Inf,0,0,0
640.64,1.3621,14.536,-Inf,-Inf,0,0,0
641.64,1.3668,14.541,-Inf,-Inf,0,0,0
642.64,1.3711,14.546,-Inf,-Inf,0,0,0
643.64,1.3755,14.55,-Inf,-Inf,0,0,0
644.64,1.3801,14.555,-Inf,-Inf,0,0,0
645.64,1.385,14.56,-Inf,-Inf,0,0,0
646.64,1.3898,14.564,-Inf,-Inf,0,0,0
647.64,1.3948,14.568,-Inf,-Inf,0,0,0
648.64,1.3993,14.573,-Inf,-Inf,0,0,0
649.64,1.4038,14.577,-Inf,-Inf,0,0,0
650.64,1.4083,14.581,-Inf,-Inf,0,0,0
651.64,1.4134,14.586,-Inf,-Inf,0,0,0
652.64,1.4186,14.59,-Inf,-Inf,0,0,0
653.64,1.4235,14.594,-Inf,-Inf,0,0,0
654.64,1.4282,14.598,-Inf,-Inf,0,0,0
655.64,1.4329,14.602,-Inf,-Inf,0,0,0
656.64,1.4377,14.607,-Inf,-Inf,0,0,0
657.64,1.443,14.61,-Inf,-Inf,0,0,0
658.64,1.4479,14.615,-Inf,-Inf,0,0,0
659.64,1.4528,14.619,-Inf,-Inf,0,0,0
660.64,1.4576,14.622,-Inf,-Inf,0,0,0
661.64,1.4623,14.626,-Inf,-Inf,0,0,0
662.64,1.4672,14.63,-Inf,-Inf,0,0,0
663.64,1.4726,14.633,-Inf,-Inf,0,0,0
664.64,1.4777,14.637,-Inf,-Inf,0,0,0
665.64,1.4827,14.641,-Inf,-Inf,0,0,0
666.64,1.4872,14.645,-Inf,-Inf,0,0,0
667.64,1.4922,14.649,-Inf,-Inf,0,0,0
668.64,1.4976,14.652,-Inf,-Inf,0,0,0
669.64,1.5028,14.656,-Inf,-Inf,0,0,0
670.64,1.508,14.659,-Inf,-Inf,0,0,0
671.64,1.5131,14.663,-Inf,-Inf,0,0,0
672.64,1.5178,14.666,-Inf,-Inf,0,0,0
673.64,1.5225,14.669,-Inf,-Inf,0,0,0
674.64,1.5283,14.672,-Inf,-Inf,0,0,0
675.64,1.5337,14.676,-Inf,-Inf,0,0,0
676.64,1.5388,14.679,-Inf,-Inf,0,0,0
677.64,1.5438,14.682,-Inf,-Inf,0,0,0
678.64,1.5488,14.686,-Inf,-Inf,0,0,0
679.64,1.554,14.688,-Inf,-Inf,0,0,0
680.64,1.5595,14.691,-Inf,-Inf,0,0,0
681.64,1.565,14.694,-Inf,-Inf,0,0,0
682.64,1.5701,14.696,-Inf,-Inf,0,0,0
683.64,1.5753,14.698,-Inf,-Inf,0,0,0
684.64,1.5802,14.701,-Inf,-Inf,0,0,0
685.64,1.5859,14.703,-Inf,-Inf,0,0,0
686.64,1.5915,14.705,-Inf,-Inf,0,0,0
687.64,1.5969,14.708,-Inf,-Inf,0,0,0
688.64,1.6019,14.71,-Inf,-Inf,0,0,0
689.64,1.6069,14.712,-Inf,-Inf,0,0,0
690.64,1.6127,14.714,-Inf,-Inf,0,0,0
691.64,1.6181,14.716,-Inf,-Inf,0,0,0
692.64,1.6236,14.718,-Inf,-Inf,0,0,0
693.64,1.629,14.72,-Inf,-Inf,0,0,0
694.64,1.6342,14.721,-Inf,-Inf,0,0,0
695.64,1.6396,14.722,-Inf,-Inf,0,0,0
696.64,1.6451,14.724,-Inf,-Inf,0,0,0
697.64,1.6511,14.725,-Inf,-Inf,0,0,0
698.64,1.6569,14.726,-Inf,-Inf,0,0,0
699.64,1.6621,14.728,-Inf,-Inf,0,0,0
700.64,1.6674,14.729,-Inf,-Inf,0,0,0
701.64,1.6729,14.73,-Inf,-Inf,0,0,0
702.64,1.6791,14.731,-Inf,-Inf,0,0,0
703.64,1.6848,14.732,-Inf,-Inf,0,0,0
704.64,1.6906,14.733,-Inf,-Inf,0,0,0
705.64,1.696,14.733,-Inf,-Inf,0,0,0
706.64,1.7017,14.733,-Inf,-Inf,0,0,0
707.64,1.7078,14.733,-Inf,-Inf,0,0,0
708.64,1.714,14.733,-Inf,-Inf,0,0,0
709.64,1.7198,14.733,-Inf,-Inf,0,0,0
710.64,1.7255,14.734,-Inf,-Inf,0,0,0
711.64,1.7313,14.733,-Inf,-Inf,0,0,0
712.64,1.7376,14.733,-Inf,-Inf,0,0,0
713.64,1.7441,14.732,-Inf,-Inf,0,0,0
714.64,1.7505,14.73,-Inf,-Inf,0,0,0
715.64,1.7562,14.729,-Inf,-Inf,0,0,0
716.64,1.762,14.727,-Inf,-Inf,0,0,0
717.64,1.7685,14.725,-Inf,-Inf,0,0,0
718.64,1.7751,14.723,-Inf,-Inf,0,0,0
719.64,1.7817,14.721,-Inf,-Inf,0,0,0
720.64,1.7879,14.718,-Inf,-Inf,0,0,0
721.64,1.7938,14.715,-Inf,-Inf,0,0,0
722.64,1.8005,14.711,-Inf,-Inf,0,0,0
723.64,1.8072,14.707,-Inf,-Inf,0,0,0
724.64,1.8138,14.703,-Inf,-Inf,0,0,0
725.64,1.8204,14.698,-Inf,-Inf,0,0,0
726.64,1.8268,14.693,-Inf,-Inf,0,0,0
727.64,1.8335,14.687,-Inf,-Inf,0,0,0
728.64,1.8403,14.68,-Inf,-Inf,0,0,0
729.64,1.8477,14.673,-Inf,-Inf,0,0,0
730.64,1.8542,14.664,-Inf,-Inf,0,0,0
731.64,1.8609,14.653,-Inf,-Inf,0,0,0
732.64,1.8682,14.642,-Inf,-Inf,0,0,0
733.64,1.8758,14.629,-Inf,-Inf,0,0,0
734.64,1.883,14.611,-Inf,-Inf,0,0,0
735.64,1.891,14.591,-Inf,-Inf,0,0,0
736.64,1.8991,14.566,-Inf,-Inf,0,0,0
737.64,1.9083,14.53,-Inf,-Inf,0,0,0
738.64,1.9176,14.488,-Inf,-Inf,0,0,0