File: polyN_optimization/DP600_results/DATA/NT20_45_1.csv
Time[s],Displacement[mm],Force[kN],AxStrain_1,AxStrain_2,Thickness[mm],OuterWidth[mm],InnerWidth[mm]
0.57,0,-0.018135,0,0,1.5332,20,20.467
1.57,-0.000175,-0.016987,-7.0002e-05,0,0,0,0
2.57,0.00029,0.024008,-0.00011801,0,0,0,0
3.57,0.000449,0.087432,-7e-06,0,0,0,0
4.57,0.000619,0.14386,-0.00011801,0,0,0,0
5.57,0.000744,0.18929,-0.00011501,0,0,0,0
6.57,0.000687,0.22615,-9.9005e-05,0,0,0,0
7.57,0.000887,0.25943,-0.00023203,0,0,0,0
8.57,0.000963,0.293,3.4999e-05,0,0,0,0
9.57,0.001021,0.33029,0.00016299,0,0,0,0
10.57,0.001161,0.36872,8.2997e-05,0,0,0,0
11.57,0.001424,0.40429,9.4995e-05,0,0,0,0
12.57,0.001604,0.44015,-8.5004e-05,0,0,0,0
13.57,0.001841,0.47743,-5.1001e-05,0,0,0,0
14.57,0.001751,0.51344,-7.6003e-05,0,0,0,0
15.57,0.001914,0.55215,4.3999e-05,0,0,0,0
16.57,0.00184,0.58915,-0.00024003,0,0,0,0
17.57,0.001971,0.62458,1.7e-05,0,0,0,0
18.57,0.002016,0.66358,8e-06,0,0,0,0
19.57,0.002292,0.70444,4.9999e-05,0,0,0,0
20.57,0.002292,0.74329,-2.2e-05,0,0,0,0
21.57,0.002737,0.78215,7.1997e-05,0,0,0,0
22.57,0.003002,0.81985,7.1997e-05,0,0,0,0
23.57,0.003128,0.85942,-0.00014401,0,0,0,0
24.57,0.003689,0.90157,5.2999e-05,0,0,0,0
25.57,0.003778,0.94115,-0.00010201,0,0,0,0
26.57,0.003681,0.98243,6e-06,0,0,0,0
27.57,0.003829,1.0249,-7.7003e-05,0,0,0,0
28.57,0.003694,1.0677,-3.6001e-05,0,0,0,0
29.57,0.00385,1.1076,7.0997e-05,0,0,0,0
30.57,0.004122,1.1477,1.2e-05,0,0,0,0
31.57,0.004397,1.1894,-2.7e-05,0,0,0,0
32.57,0.004453,1.2287,0.00010999,0,0,0,0
33.57,0.004786,1.2719,0.00026896,0,0,0,0
34.57,0.005634,1.3131,0.00020498,0,0,0,0
35.57,0.005842,1.3516,9.0996e-05,0,0,0,0
36.57,0.005687,1.3936,0.00010199,0,0,0,0
37.57,0.005713,1.4363,3.1999e-05,0,0,0,0
38.57,0.00545,1.4766,0.00011699,0,0,0,0
39.57,0.005491,1.5164,0.00017898,0,0,0,0
40.57,0.005604,1.5574,8.0997e-05,0,0,0,0
41.57,0.005746,1.5967,3.8999e-05,0,0,0,0
42.57,0.006325,1.6394,2.7e-05,0,0,0,0
43.57,0.006731,1.6811,0.00031195,0,0,0,0
44.57,0.007321,1.7189,0.00015099,0,0,0,0
45.57,0.007748,1.7596,0.00018298,0,0,0,0
46.57,0.00784,1.8017,0.00015799,0,0,0,0
47.57,0.007963,1.8413,-2.8e-05,0,0,0,0
48.57,0.007542,1.8811,0.00012799,0,0,0,0
49.57,0.007411,1.9224,3e-06,0,0,0,0
50.57,0.007223,1.961,5.5998e-05,0,0,0,0
51.57,0.007423,2.0039,0.00022797,0,0,0,0
52.57,0.007799,2.0444,0.00025697,0,0,0,0
53.57,0.008451,2.0819,0.00029696,0,0,0,0
54.57,0.009008,2.1226,0.00021898,0,0,0,0
55.57,0.009717,2.164,0.00029896,0,0,0,0
56.57,0.01002,2.2029,3.8999e-05,0,0,0,0
57.57,0.010051,2.2429,0.00020998,0,0,0,0
58.57,0.009543,2.2839,0.00033794,0,0,0,0
59.57,0.009334,2.3227,0.00027396,0,0,0,0
60.57,0.009265,2.3651,0.00034694,0,0,0,0
61.57,0.009447,2.4054,0.00022797,0,0,0,0
62.57,0.009645,2.4426,0.00047589,0,0,0,0
63.57,0.010259,2.4826,0.00032395,0,0,0,0
64.57,0.011185,2.5247,0.00046189,0,0,0,0
65.57,0.011477,2.5639,0.0004539,0,0,0,0
66.57,0.012077,2.6031,0.00033394,0,0,0,0
67.57,0.012254,2.6434,0.00034294,0,0,0,0
68.57,0.011999,2.6827,0.00038493,0,0,0,0
69.57,0.011673,2.7254,0.00032795,0,0,0,0
70.57,0.01146,2.7664,0.00026896,0,0,0,0
71.57,0.01131,2.8043,0.0004359,0,0,0,0
72.57,0.011492,2.8446,0.00046489,0,0,0,0
73.57,0.011947,2.886,0.00050887,0,0,0,0
74.57,0.012793,2.9246,0.00068576,0,0,0,0
75.57,0.013749,2.9634,0.00058583,0,0,0,0
76.57,0.013833,3.0041,0.00070575,0,0,0,0
77.57,0.014179,3.042,0.00055784,0,0,0,0
78.57,0.014067,3.0844,0.00046189,0,0,0,0
79.57,0.013854,3.1247,0.0004389,0,0,0,0
80.57,0.013606,3.1616,0.00041991,0,0,0,0
81.57,0.013482,3.2016,0.00047689,0,0,0,0
82.57,0.013782,3.243,0.00060682,0,0,0,0
83.57,0.014129,3.2816,0.00053086,0,0,0,0
84.57,0.014861,3.3201,0.00074572,0,0,0,0
85.57,0.015613,3.3601,0.00076571,0,0,0,0
86.57,0.016369,3.398,0.0006378,0,0,0,0
87.57,0.016759,3.4399,0.00042891,0,0,0,0
88.57,0.016672,3.4784,0.0006398,0,0,0,0
89.57,0.016328,3.5146,0.00053786,0,0,0,0
90.57,0.016028,3.5543,0.00052686,0,0,0,0
91.57,0.015738,3.5957,0.00059083,0,0,0,0
92.57,0.015747,3.6346,0.00059182,0,0,0,0
93.57,0.016194,3.6731,0.00083465,0,0,0,0
94.57,0.016919,3.7131,0.00070375,0,0,0,0
95.57,0.017732,3.7504,0.00072274,0,0,0,0
96.57,0.018242,3.7904,0.0007737,0,0,0,0
97.57,0.019022,3.8301,0.00081966,0,0,0,0
98.57,0.019277,3.8663,0.00053086,0,0,0,0
99.57,0.01921,3.9053,0.00064179,0,0,0,0
100.57,0.018692,3.9457,0.00057783,0,0,0,0
101.57,0.018308,3.9833,0.00068576,0,0,0,0
102.57,0.018493,4.0211,0.00071375,0,0,0,0
103.57,0.018855,4.0611,0.00070275,0,0,0,0
104.57,0.019544,4.098,0.0007797,0,0,0,0
105.57,0.020591,4.1389,0.00071874,0,0,0,0
106.57,0.021188,4.1779,0.00073673,0,0,0,0
107.57,0.021827,4.2133,0.00084165,0,0,0,0
108.57,0.022044,4.2523,0.00083165,0,0,0,0
109.57,0.022136,4.2927,0.00053885,0,0,0,0
110.57,0.021969,4.3306,0.00080068,0,0,0,0
111.57,0.021534,4.3681,0.00067077,0,0,0,0
112.57,0.021437,4.4064,0.00070175,0,0,0,0
113.57,0.022035,4.443,0.00073373,0,0,0,0
114.57,0.022669,4.4839,0.00086363,0,0,0,0
115.57,0.023496,4.5217,0.00093356,0,0,0,0
116.57,0.024333,4.5573,0.0008956,0,0,0,0
117.57,0.024866,4.5953,0.0011014,0,0,0,0
118.57,0.025353,4.6347,0.00096154,0,0,0,0
119.57,0.025425,4.6719,0.00087262,0,0,0,0
120.57,0.025528,4.7084,0.00093856,0,0,0,0
121.57,0.025466,4.7454,0.00070875,0,0,0,0
122.57,0.025495,4.7814,0.0010395,0,0,0,0
123.57,0.02587,4.8201,0.00093856,0,0,0,0
124.57,0.026242,4.8554,0.0012432,0,0,0,0
125.57,0.027305,4.892,0.0012023,0,0,0,0
126.57,0.027867,4.9281,0.0013032,0,0,0,0
127.57,0.028603,4.9666,0.0014989,0,0,0,0
128.57,0.028862,5.0036,0.0015748,0,0,0,0
129.57,0.029303,5.0399,0.0015059,0,0,0,0
130.57,0.029771,5.0769,0.0013351,0,0,0,0
131.57,0.030327,5.1114,0.0014749,0,0,0,0
132.57,0.030658,5.1499,0.0012722,0,0,0,0
133.57,0.030829,5.1869,0.0015119,0,0,0,0
134.57,0.031627,5.2206,0.0015358,0,0,0,0
135.57,0.03213,5.258,0.0014709,0,0,0,0
136.57,0.032556,5.2954,0.0017704,0,0,0,0
137.57,0.033352,5.331,0.0017994,0,0,0,0
138.57,0.03371,5.3661,0.0019042,0,0,0,0
139.57,0.034476,5.4014,0.0020609,0,0,0,0
140.57,0.035243,5.4354,0.002009,0,0,0,0
141.57,0.03597,5.4731,0.0016686,0,0,0,0
142.57,0.036703,5.5087,0.0019631,0,0,0,0
143.57,0.037936,5.5416,0.0018712,0,0,0,0
144.57,0.038535,5.577,0.0020369,0,0,0,0
145.57,0.039236,5.6131,0.0020948,0,0,0,0
146.57,0.039798,5.6466,0.0021317,0,0,0,0
147.57,0.04007,5.6801,0.0022984,0,0,0,0
148.57,0.040932,5.7149,0.0024949,0,0,0,0
149.57,0.041767,5.7471,0.0027642,0,0,0,0
150.57,0.042935,5.7824,0.0026355,0,0,0,0
151.57,0.044295,5.8171,0.0026704,0,0,0,0
152.57,0.046129,5.848,0.0025657,0,0,0,0
153.57,0.047497,5.8817,0.002442,0,0,0,0
154.57,0.048368,5.9164,0.0029108,0,0,0,0
155.57,0.049405,5.9483,0.0027512,0,0,0,0
156.57,0.050007,5.9799,0.003174,0,0,0,0
157.57,0.050554,6.0129,0.003476,0,0,0,0
158.57,0.051525,6.0439,0.003743,0,0,0,0
159.57,0.052528,6.0779,0.003743,0,0,0,0
160.57,0.054109,6.1099,0.0039382,0,0,0,0
161.57,0.056037,6.139,0.0039462,0,0,0,0
162.57,0.058198,6.171,0.0037848,0,0,0,0
163.57,0.059541,6.2031,0.0037798,0,0,0,0
164.57,0.061036,6.233,0.0039841,0,0,0,0
165.57,0.062442,6.2629,0.0040817,0,0,0,0
166.57,0.063633,6.2931,0.0044083,0,0,0,0
167.57,0.065272,6.3216,0.0047368,0,0,0,0
168.57,0.066637,6.3526,0.0052552,0,0,0,0
169.57,0.068794,6.3821,0.0054263,0,0,0,0
170.57,0.070394,6.4097,0.0059592,0,0,0,0
171.57,0.071952,6.4394,0.0055297,0,0,0,0
172.57,0.073426,6.4696,0.0055615,0,0,0,0
173.57,0.07525,6.4974,0.0054322,0,0,0,0
174.57,0.076943,6.5246,0.0054352,0,0,0,0
175.57,0.078965,6.5529,0.0056351,0,0,0,0
176.57,0.080995,6.5799,0.005828,0,0,0,0
177.57,0.083853,6.6091,0.0064184,0,0,0,0
178.57,0.086246,6.6373,0.0067124,0,0,0,0
179.57,0.088506,6.6624,0.0071067,0,0,0,0
180.57,0.090562,6.69,0.0075375,0,0,0,0
181.57,0.092027,6.7179,0.0075048,0,0,0,0
182.57,0.094024,6.7437,0.0072477,0,0,0,0
183.57,0.096087,6.7696,0.0072189,0,0,0,0
184.57,0.098377,6.7959,0.0071524,0,0,0,0
185.57,0.10101,6.8206,0.0073886,0,0,0,0
186.57,0.10304,6.8476,0.0075474,0,0,0,0
187.57,0.10526,6.8736,0.0080366,0,0,0,0
188.57,0.10733,6.8974,0.0087932,0,0,0,0
189.57,0.10926,6.9227,0.0091233,0,0,0,0
190.57,0.11179,6.9486,0.0096463,0,0,0,0
191.57,0.11452,6.9727,0.0096533,0,0,0,0
192.57,0.11777,6.9961,0.0097236,0,0,0,0
193.57,0.12064,7.0209,0.0095334,0,0,0,0
194.57,0.12347,7.0443,0.0093323,0,0,0,0
195.57,0.1256,7.0699,0.0094373,0,0,0,0
196.57,0.12793,7.0946,0.0097632,0,0,0,0
197.57,0.1303,7.1164,0.010262,0,0,0,0
198.57,0.13292,7.1397,0.010817,0,0,0,0
199.57,0.13589,7.1643,0.011441,0,0,0,0
200.57,0.13885,7.1871,0.011871,0,0,0,0
201.57,0.14085,7.2089,0.012004,0,0,0,0
202.57,0.14358,7.2323,0.011845,0,0,0,0
203.57,0.14571,7.254,0.011782,0,0,0,0
204.57,0.14811,7.2779,0.011752,0,0,0,0
205.57,0.15091,7.3009,0.011587,0,0,0,0
206.57,0.15424,7.3214,0.011828,0,0,0,0
207.57,0.15752,7.3439,0.012245,0,0,0,0
208.57,0.16055,7.3663,0.012831,0,0,0,0
209.57,0.16357,7.3877,0.013647,0,0,0,0
210.57,0.16643,7.4089,0.014172,0,0,0,0
211.57,0.16896,7.4306,0.014465,0,0,0,0
212.57,0.17218,7.4513,0.014367,0,0,0,0
213.57,0.17557,7.4739,0.014174,0,0,0,0
214.57,0.17922,7.4956,0.013913,0,0,0,0
215.57,0.18225,7.5154,0.013912,0,0,0,0
216.57,0.18507,7.5364,0.014272,0,0,0,0
217.57,0.18743,7.558,0.014726,0,0,0,0
218.57,0.19003,7.5789,0.015244,0,0,0,0
219.57,0.19308,7.5989,0.016125,0,0,0,0
220.57,0.19681,7.6199,0.016386,0,0,0,0
221.57,0.20016,7.6397,0.016519,0,0,0,0
222.57,0.20315,7.6609,0.01664,0,0,0,0
223.57,0.20617,7.6819,0.016679,0,0,0,0
224.57,0.20899,7.7004,0.016485,0,0,0,0
225.57,0.21228,7.7201,0.016679,0,0,0,0
226.57,0.21594,7.7407,0.016554,0,0,0,0
227.57,0.21979,7.7601,0.0171,0,0,0,0
228.57,0.2235,7.7791,0.017589,0,0,0,0
229.57,0.22697,7.7989,0.018172,0,0,0,0
230.57,0.23008,7.817,0.018888,0,0,0,0
231.57,0.2331,7.8376,0.018984,0,0,0,0
232.57,0.23639,7.8566,0.019087,0,0,0,0
233.57,0.24011,7.8734,0.01902,0,0,0,0
234.57,0.24433,7.8924,0.019083,0,0,0,0
235.57,0.24775,7.9117,0.01905,0,0,0,0
236.57,0.25087,7.9299,0.019278,0,0,0,0
237.57,0.25403,7.948,0.019607,0,0,0,0
238.57,0.25692,7.9663,0.02012,0,0,0,0
239.57,0.26014,7.9837,0.020572,0,0,0,0
240.57,0.26387,8.0026,0.02129,0,0,0,0
241.57,0.26769,8.0206,0.021416,0,0,0,0
242.57,0.2714,8.0371,0.02168,0,0,0,0
243.57,0.27453,8.0549,0.021754,0,0,0,0
244.57,0.27765,8.0727,0.021745,0,0,0,0
245.57,0.28113,8.0901,0.021914,0,0,0,0
246.57,0.28502,8.1069,0.022269,0,0,0,0
247.57,0.28902,8.1243,0.022432,0,0,0,0
248.57,0.29313,8.1407,0.022887,0,0,0,0
249.57,0.29701,8.1586,0.023371,0,0,0,0
250.57,0.30027,8.1756,0.02389,0,0,0,0
251.57,0.30386,8.1911,0.024118,0,0,0,0
252.57,0.30771,8.2079,0.024274,0,0,0,0
253.57,0.31206,8.2254,0.024406,0,0,0,0
254.57,0.31623,8.2414,0.024797,0,0,0,0
255.57,0.32006,8.2576,0.024737,0,0,0,0
256.57,0.32365,8.274,0.02503,0,0,0,0
257.57,0.3272,8.2894,0.025484,0,0,0,0
258.57,0.33086,8.3069,0.025677,0,0,0,0
259.57,0.33471,8.3236,0.026162,0,0,0,0
260.57,0.33933,8.3379,0.026773,0,0,0,0
261.57,0.34291,8.3539,0.02691,0,0,0,0
262.57,0.34652,8.3707,0.027074,0,0,0,0
263.57,0.35005,8.3861,0.027337,0,0,0,0
264.57,0.35346,8.4013,0.027465,0,0,0,0
265.57,0.35781,8.4166,0.027893,0,0,0,0
266.57,0.3622,8.4317,0.028212,0,0,0,0
267.57,0.36634,8.4479,0.028604,0,0,0,0
268.57,0.37019,8.4633,0.029047,0,0,0,0
269.57,0.37387,8.4776,0.02919,0,0,0,0
270.57,0.37766,8.4926,0.029695,0,0,0,0
271.57,0.38197,8.5077,0.029853,0,0,0,0
272.57,0.38648,8.5229,0.030058,0,0,0,0
273.57,0.39109,8.5366,0.030352,0,0,0,0
274.57,0.39517,8.5516,0.030762,0,0,0,0
275.57,0.39908,8.5657,0.031217,0,0,0,0
276.57,0.403,8.5806,0.031351,0,0,0,0
277.57,0.40737,8.5953,0.031898,0,0,0,0
278.57,0.41182,8.6081,0.032245,0,0,0,0
279.57,0.41679,8.6221,0.032566,0,0,0,0
280.57,0.42087,8.6374,0.032852,0,0,0,0
281.57,0.42486,8.6511,0.033018,0,0,0,0
282.57,0.42867,8.6646,0.033319,0,0,0,0
283.57,0.43255,8.6786,0.033853,0,0,0,0
284.57,0.43739,8.6914,0.033993,0,0,0,0
285.57,0.4421,8.7056,0.034499,0,0,0,0
286.57,0.44604,8.7193,0.034663,0,0,0,0
287.57,0.44986,8.7316,0.034789,0,0,0,0
288.57,0.45401,8.7456,0.035429,0,0,0,0
289.57,0.45801,8.7594,0.03583,0,0,0,0
290.57,0.46259,8.7721,0.036099,0,0,0,0
291.57,0.46727,8.7853,0.036412,0,0,0,0
292.57,0.47161,8.7983,0.036769,0,0,0,0
293.57,0.4753,8.8111,0.037279,0,0,0,0
294.57,0.47927,8.8246,0.037576,0,0,0,0
295.57,0.48362,8.8373,0.037856,0,0,0,0
296.57,0.48835,8.8496,0.038154,0,0,0,0
297.57,0.49333,8.8621,0.038498,0,0,0,0
298.57,0.49779,8.8754,0.038911,0,0,0,0
299.57,0.50206,8.8879,0.039066,0,0,0,0
300.57,0.50617,8.9,0.039663,0,0,0,0
301.57,0.51067,8.9123,0.040142,0,0,0,0
302.57,0.51548,8.9241,0.040466,0,0,0,0
303.57,0.52069,8.9366,0.041004,0,0,0,0
304.57,0.52523,8.9493,0.041324,0,0,0,0
305.57,0.52948,8.9606,0.041612,0,0,0,0
306.57,0.53392,8.9726,0.041638,0,0,0,0
307.57,0.53836,8.9849,0.04227,0,0,0,0
308.57,0.54358,8.9959,0.042524,0,0,0,0
309.57,0.54858,9.008,0.042968,0,0,0,0
310.57,0.55305,9.0193,0.043477,0,0,0,0
311.57,0.55746,9.0301,0.043695,0,0,0,0
312.57,0.56171,9.043,0.044294,0,0,0,0
313.57,0.56606,9.0539,0.044862,0,0,0,0
314.57,0.57116,9.0641,0.045215,0,0,0,0
315.57,0.57624,9.0759,0.045497,0,0,0,0
316.57,0.58053,9.0879,0.04569,0,0,0,0
317.57,0.58459,9.0986,0.045789,0,0,0,0
318.57,0.58911,9.1093,0.046355,0,0,0,0
319.57,0.59335,9.1203,0.046502,0,0,0,0
320.57,0.59849,9.1309,0.047199,0,0,0,0
321.57,0.6035,9.1419,0.047858,0,0,0,0
322.57,0.60794,9.1529,0.048336,0,0,0,0
323.57,0.61229,9.1633,0.048677,0,0,0,0
324.57,0.61647,9.1736,0.049028,0,0,0,0
325.57,0.62108,9.1844,0.04937,0,0,0,0
326.57,0.62628,9.1949,0.049285,0,0,0,0
327.57,0.63146,9.205,0.050003,0,0,0,0
328.57,0.636,9.2156,0.050256,0,0,0,0
329.57,0.64044,9.2261,0.050725,0,0,0,0
330.57,0.64452,9.2366,0.051193,0,0,0,0
331.57,0.6498,9.247,0.051695,0,0,0,0
332.57,0.65533,9.2566,0.052294,0,0,0,0
333.57,0.66054,9.2669,0.052607,0,0,0,0
334.57,0.66485,9.2776,0.053151,0,0,0,0
335.57,0.66975,9.2869,0.05362,0,0,0,0
336.57,0.67435,9.2966,0.053781,0,0,0,0
337.57,0.67963,9.3063,0.054345,0,0,0,0
338.57,0.6851,9.3156,0.054405,0,0,0,0
339.57,0.69,9.3263,0.054905,0,0,0,0
340.57,0.69474,9.3363,0.055467,0,0,0,0
341.57,0.69928,9.3446,0.055963,0,0,0,0
342.57,0.70409,9.3541,0.056469,0,0,0,0
343.57,0.70969,9.3634,0.056906,0,0,0,0
344.57,0.71516,9.3727,0.057443,0,0,0,0
345.57,0.72014,9.3817,0.0577,0,0,0,0
346.57,0.72461,9.3911,0.058134,0,0,0,0
347.57,0.72921,9.4004,0.058452,0,0,0,0
348.57,0.73418,9.409,0.058883,0,0,0,0
349.57,0.73986,9.4184,0.059446,0,0,0,0
350.57,0.74493,9.4277,0.059878,0,0,0,0
351.57,0.74969,9.4364,0.060319,0,0,0,0
352.57,0.7544,9.4447,0.060788,0,0,0,0
353.57,0.7592,9.4537,0.061162,0,0,0,0
354.57,0.76445,9.4631,0.061696,0,0,0,0
355.57,0.76985,9.4717,0.062162,0,0,0,0
356.57,0.77505,9.4804,0.062512,0,0,0,0
357.57,0.77962,9.4887,0.063168,0,0,0,0
358.57,0.78429,9.4977,0.063634,0,0,0,0
359.57,0.7891,9.506,0.064039,0,0,0,0
360.57,0.7944,9.5144,0.064592,0,0,0,0
361.57,0.7998,9.5227,0.065095,0,0,0,0
362.57,0.80448,9.5307,0.065184,0,0,0,0
363.57,0.80939,9.5389,0.065652,0,0,0,0
364.57,0.81429,9.5464,0.066337,0,0,0,0
365.57,0.81932,9.5551,0.066864,0,0,0,0
366.57,0.82515,9.5637,0.067399,0,0,0,0
367.57,0.83039,9.572,0.067868,0,0,0,0
368.57,0.83492,9.58,0.068293,0,0,0,0
369.57,0.83966,9.5873,0.06857,0,0,0,0
370.57,0.84497,9.595,0.069257,0,0,0,0
371.57,0.85071,9.6026,0.069623,0,0,0,0
372.57,0.85638,9.6103,0.070032,0,0,0,0
373.57,0.86127,9.618,0.070557,0,0,0,0
374.57,0.86615,9.6253,0.071075,0,0,0,0
375.57,0.87162,9.633,0.071626,0,0,0,0
376.57,0.87682,9.6409,0.072223,0,0,0,0
377.57,0.88235,9.6493,0.072525,0,0,0,0
378.57,0.88832,9.656,0.073275,0,0,0,0
379.57,0.89325,9.663,0.073648,0,0,0,0
380.57,0.89812,9.6703,0.074048,0,0,0,0
381.57,0.90349,9.6776,0.074446,0,0,0,0
382.57,0.90869,9.6853,0.075156,0,0,0,0
383.57,0.91469,9.6916,0.075827,0,0,0,0
384.57,0.92023,9.6983,0.076231,0,0,0,0
385.57,0.92507,9.706,0.076807,0,0,0,0
386.57,0.92974,9.7133,0.077419,0,0,0,0
387.57,0.93544,9.7203,0.077768,0,0,0,0
388.57,0.94107,9.7273,0.078497,0,0,0,0
389.57,0.94684,9.7336,0.078834,0,0,0,0
390.57,0.95217,9.7403,0.079326,0,0,0,0
391.57,0.95691,9.7473,0.080031,0,0,0,0
392.57,0.96231,9.7543,0.080518,0,0,0,0
393.57,0.96782,9.761,0.081038,0,0,0,0
394.57,0.97354,9.7676,0.08165,0,0,0,0
395.57,0.97915,9.7743,0.08202,0,0,0,0
396.57,0.98411,9.78,0.082723,0,0,0,0
397.57,0.98894,9.7867,0.08336,0,0,0,0
398.57,0.9943,9.7933,0.083758,0,0,0,0
399.57,1.0003,9.7996,0.084371,0,0,0,0
400.57,1.0063,9.8063,0.084915,0,0,0,0
401.57,1.0115,9.813,0.085438,0,0,0,0
402.57,1.0163,9.819,0.086021,0,0,0,0
403.57,1.0216,9.8253,0.086623,0,0,0,0
404.57,1.0273,9.8313,0.087139,0,0,0,0
405.57,1.0329,9.837,0.087831,0,0,0,0
406.57,1.0387,9.843,0.088494,0,0,0,0
407.57,1.0437,9.8486,0.089019,0,0,0,0
408.57,1.049,9.8553,0.089257,0,0,0,0
409.57,1.0542,9.8613,0.090191,0,0,0,0
410.57,1.0602,9.8666,0.090713,0,0,0,0
411.57,1.0662,9.8729,0.091137,0,0,0,0
412.57,1.0715,9.8793,0.091829,0,0,0,0
413.57,1.0766,9.8843,0.092648,0,0,0,0
414.57,1.0818,9.89,0.093254,0,0,0,0
415.57,1.0874,9.8957,0.093798,0,0,0,0
416.57,1.0939,9.9007,0.094339,0,0,0,0
417.57,1.0992,9.906,0.094657,0,0,0,0
418.57,1.1048,9.912,0.095235,0,0,0,0
419.57,1.1097,9.9169,0.095928,0,0,0,0
420.57,1.1154,9.923,0.096618,0,0,0,0
421.57,1.1215,9.9283,0.097183,0,0,0,0
422.57,1.1274,9.9333,0.097763,0,0,0,0
423.57,1.1331,9.9386,0.098453,0,0,0,0
424.57,1.138,9.944,0.099046,0,0,0,0
425.57,1.1434,9.949,0.099596,0,0,0,0
426.57,1.1494,9.9533,0.10046,0,0,0,0
427.57,1.1555,9.9584,0.10109,0,0,0,0
428.57,1.1611,9.9637,0.10128,0,0,0,0
429.57,1.1665,9.9684,0.10187,0,0,0,0
430.57,1.1718,9.973,0.10235,0,0,0,0
431.57,1.1776,9.978,0.10319,0,0,0,0
432.57,1.1836,9.9827,0.1036,0,0,0,0
433.57,1.1894,9.9877,0.10446,0,0,0,0
434.57,1.1952,9.9923,0.10536,0,0,0,0
435.57,1.2003,9.9977,0.1058,0,0,0,0
436.57,1.2058,10.002,0.10661,0,0,0,0
437.57,1.2121,10.006,0.10712,0,0,0,0
438.57,1.2183,10.011,0.1076,0,0,0,0
439.57,1.2238,10.015,0.10838,0,0,0,0
440.57,1.2295,10.02,0.1089,0,0,0,0
441.57,1.2347,10.024,0.10938,0,0,0,0
442.57,1.2408,10.029,0.11006,0,0,0,0
443.57,1.2471,10.033,0.11084,0,0,0,0
444.57,1.2529,10.038,0.11163,0,0,0,0
445.57,1.2585,10.042,0.11234,0,0,0,0
446.57,1.2639,10.047,0.11308,0,0,0,0
447.57,1.2698,10.051,0.11353,0,0,0,0
448.57,1.2764,10.055,0.1143,0,0,0,0
449.57,1.2826,10.059,0.11492,0,0,0,0
450.57,1.288,10.062,0.11559,0,0,0,0
451.57,1.2935,10.067,0.11624,0,0,0,0
452.57,1.299,10.071,0.11686,0,0,0,0
453.57,1.3055,10.075,0.11771,0,0,0,0
454.57,1.3119,10.079,0.11851,0,0,0,0
455.57,1.3175,10.083,0.11913,0,0,0,0
456.57,1.3231,10.086,0.12005,0,0,0,0
457.57,1.3286,10.09,0.12072,0,0,0,0
458.57,1.3347,10.093,0.12157,0,0,0,0
459.57,1.3411,10.097,0.12206,0,0,0,0
460.57,1.347,10.1,0.12303,0,0,0,0
461.57,1.3527,10.104,0.12356,0,0,0,0
462.57,1.3581,10.107,0.12426,0,0,0,0
463.57,1.3642,10.111,0.12505,0,0,0,0
464.57,1.3706,10.115,0.12593,0,0,0,0
465.57,1.3766,10.118,0.12651,0,0,0,0
466.57,1.3821,10.121,0.12724,0,0,0,0
467.57,1.3878,10.124,0.12817,0,0,0,0
468.57,1.3936,10.128,0.12907,0,0,0,0
469.57,1.4,10.131,0.12983,0,0,0,0
470.57,1.4062,10.134,0.13076,0,0,0,0
471.57,1.4122,10.138,0.13134,0,0,0,0
472.57,1.4177,10.14,0.1318,0,0,0,0
473.57,1.4233,10.143,0.13282,0,0,0,0
474.57,1.4295,10.146,0.13335,0,0,0,0
475.57,1.436,10.149,0.13416,0,0,0,0
476.57,1.4419,10.153,0.13506,0,0,0,0
477.57,1.4476,10.155,0.1359,0,0,0,0
478.57,1.4534,10.158,0.13692,0,0,0,0
479.57,1.4596,10.161,0.13759,0,0,0,0
480.57,1.4661,10.164,0.13851,0,0,0,0
481.57,1.4724,10.167,0.13937,0,0,0,0
482.57,1.4784,10.169,0.14006,0,0,0,0
483.57,1.4837,10.172,0.14067,0,0,0,0
484.57,1.4896,10.174,0.14151,0,0,0,0
485.57,1.4962,10.177,0.14252,0,0,0,0
486.57,1.503,10.179,0.14332,0,0,0,0
487.57,1.5086,10.182,0.1441,0,0,0,0
488.57,1.5142,10.184,0.14501,0,0,0,0
489.57,1.5202,10.187,0.14604,0,0,0,0
490.57,1.5267,10.189,0.14692,0,0,0,0
491.57,1.5333,10.191,0.14804,0,0,0,0
492.57,1.539,10.194,0.14904,0,0,0,0
493.57,1.545,10.196,0.14982,0,0,0,0
494.57,1.5509,10.198,0.15079,0,0,0,0
495.57,1.5573,10.2,0.15164,0,0,0,0
496.57,1.5639,10.202,0.15238,0,0,0,0
497.57,1.5699,10.204,0.15329,0,0,0,0
498.57,1.5757,10.206,0.15422,0,0,0,0
499.57,1.5818,10.208,0.15508,0,0,0,0
500.57,1.588,10.21,0.15621,0,0,0,0
501.57,1.5947,10.211,0.1574,0,0,0,0
502.57,1.6008,10.213,0.15842,0,0,0,0
503.57,1.6068,10.215,0.15921,0,0,0,0
504.57,1.6123,10.217,0.16,0,0,0,0
505.57,1.6188,10.218,0.16087,0,0,0,0
506.57,1.6256,10.22,0.16174,0,0,0,0
507.57,1.632,10.222,0.16258,0,0,0,0
508.57,1.6379,10.223,0.16349,0,0,0,0
509.57,1.6435,10.225,0.16462,0,0,0,0
510.57,1.6495,10.225,0.16557,0,0,0,0
511.57,1.6565,10.227,0.16655,0,0,0,0
512.57,1.6631,10.229,0.16765,0,0,0,0
513.57,1.6689,10.23,0.1686,0,0,0,0
514.57,1.6748,10.232,0.16969,0,0,0,0
515.57,1.681,10.233,0.17064,0,0,0,0
516.57,1.6876,10.234,0.17176,0,0,0,0
517.57,1.6945,10.235,0.17276,0,0,0,0
518.57,1.7004,10.236,0.1736,0,0,0,0
519.57,1.7061,10.237,0.17482,0,0,0,0
520.57,1.7125,10.239,0.1758,0,0,0,0
521.57,1.7193,10.24,0.17679,0,0,0,0
522.57,1.7262,10.241,0.17786,0,0,0,0
523.57,1.7324,10.242,0.17883,0,0,0,0
524.57,1.7383,10.243,0.18015,0,0,0,0
525.57,1.7447,10.243,0.18123,0,0,0,0
526.57,1.7513,10.244,0.18223,0,0,0,0
527.57,1.758,10.244,0.18345,0,0,0,0
528.57,1.7645,10.245,0.18444,0,0,0,0
529.57,1.7704,10.246,0.18551,0,0,0,0
530.57,1.7765,10.247,0.1867,0,0,0,0
531.57,1.7836,10.247,0.18793,0,0,0,0
532.57,1.7904,10.248,0.18909,0,0,0,0
533.57,1.7968,10.248,0.19037,0,0,0,0
534.57,1.803,10.249,0.19141,0,0,0,0
535.57,1.8092,10.249,0.19256,0,0,0,0
536.57,1.8159,10.248,0.19378,0,0,0,0
537.57,1.8231,10.249,0.19481,0,0,0,0
538.57,1.8296,10.25,0.19566,0,0,0,0
539.57,1.8357,10.249,0.19697,0,0,0,0
540.57,1.8419,10.249,0.19822,0,0,0,0
541.57,1.8489,10.249,0.19931,0,0,0,0
542.57,1.8556,10.249,0.20042,0,0,0,0
543.57,1.8623,10.249,0.20161,0,0,0,0
544.57,1.868,10.249,0.20282,0,0,0,0
545.57,1.8745,10.248,0.20403,0,0,0,0
546.57,1.8813,10.248,0.20527,0,0,0,0
547.57,1.8885,10.248,0.20667,0,0,0,0
548.57,1.8951,10.247,0.20812,0,0,0,0
549.57,1.9009,10.247,0.20949,0,0,0,0
550.57,1.9068,10.246,0.21067,0,0,0,0
551.57,1.9139,10.246,0.21193,0,0,0,0
552.57,1.9215,10.245,0.21322,0,0,0,0
553.57,1.9279,10.244,0.2141,0,0,0,0
554.57,1.934,10.244,0.21533,0,0,0,0
555.57,1.9403,10.243,0.21677,0,0,0,0
556.57,1.9471,10.242,0.2182,0,0,0,0
557.57,1.9545,10.242,0.21969,0,0,0,0
558.57,1.9609,10.241,0.22108,0,0,0,0
559.57,1.9675,10.24,0.2228,0,0,0,0
560.57,1.9734,10.239,0.22408,0,0,0,0
561.57,1.9806,10.238,0.22566,0,0,0,0
562.57,1.9877,10.237,0.22705,0,0,0,0
563.57,1.9946,10.236,0.22877,0,0,0,0
564.57,2.0007,10.234,0.23033,0,0,0,0
565.57,2.0071,10.233,0.23191,0,0,0,0
566.57,2.014,10.232,0.23314,0,0,0,0
567.57,2.0213,10.23,0.23433,0,0,0,0
568.57,2.0279,10.228,0.236,0,0,0,0
569.57,2.0341,10.227,0.23728,0,0,0,0
570.57,2.0406,10.225,0.23884,0,0,0,0
571.57,2.0478,10.223,0.24035,0,0,0,0
572.57,2.0545,10.222,0.24189,0,0,0,0
573.57,2.0613,10.22,0.24347,0,0,0,0
574.57,2.0676,10.218,0.24491,0,0,0,0
575.57,2.0741,10.217,0.24654,0,0,0,0
576.57,2.0812,10.214,0.24815,0,0,0,0
577.57,2.0885,10.212,0.24983,0,0,0,0
578.57,2.0949,10.209,0.25152,0,0,0,0
579.57,2.1013,10.207,0.25307,0,0,0,0
580.57,2.1078,10.205,0.25478,0,0,0,0
581.57,2.115,10.203,0.25652,0,0,0,0
582.57,2.122,10.201,0.25829,0,0,0,0
583.57,2.1287,10.198,0.25977,0,0,0,0
584.57,2.135,10.196,0.26176,0,0,0,0
585.57,2.1417,10.193,0.26361,0,0,0,0
586.57,2.1488,10.191,0.26534,0,0,0,0
587.57,2.1559,10.188,0.26686,0,0,0,0
588.57,2.1626,10.185,0.26866,0,0,0,0
589.57,2.169,10.182,0.27041,0,0,0,0
590.57,2.1753,10.179,0.27185,0,0,0,0
591.57,2.183,10.176,0.27356,0,0,0,0
592.57,2.1901,10.174,0.27542,0,0,0,0
593.57,2.1965,10.17,0.27758,0,0,0,0
594.57,2.2027,10.167,0.27954,0,0,0,0
595.57,2.2096,10.163,0.28142,0,0,0,0
596.57,2.2169,10.16,0.28304,0,0,0,0
597.57,2.2243,10.157,0.28503,0,0,0,0
598.57,2.2307,10.153,0.28687,0,0,0,0
599.57,2.2375,10.15,0.28876,0,0,0,0
600.57,2.2443,10.146,0.29079,0,0,0,0
601.57,2.2517,10.143,0.29267,0,0,0,0
602.57,2.2587,10.139,0.29471,0,0,0,0
603.57,2.2652,10.134,0.29665,0,0,0,0
604.57,2.2719,10.13,0.29869,0,0,0,0
605.57,2.2788,10.126,0.30076,0,0,0,0
606.57,2.2862,10.122,0.30279,0,0,0,0
607.57,2.2931,10.118,0.30504,0,0,0,0
608.57,2.2998,10.114,0.30716,0,0,0,0
609.57,2.3066,10.109,0.3094,0,0,0,0
610.57,2.3137,10.105,0.31158,0,0,0,0
611.57,2.3211,10.099,0.31371,0,0,0,0
612.57,2.3279,10.095,0.31586,0,0,0,0
613.57,2.3346,10.09,0.31789,0,0,0,0
614.57,2.3412,10.085,0.31977,0,0,0,0
615.57,2.3484,10.08,0.32189,0,0,0,0
616.57,2.3558,10.075,0.32436,0,0,0,0
617.57,2.3625,10.07,0.32649,0,0,0,0
618.57,2.3692,10.065,0.32862,0,0,0,0
619.57,2.3761,10.059,0.33105,0,0,0,0
620.57,2.3833,10.054,0.33309,0,0,0,0
621.57,2.3908,10.048,0.33532,0,0,0,0
622.57,2.3975,10.042,0.33768,0,0,0,0
623.57,2.404,10.037,0.33983,0,0,0,0
624.57,2.4109,10.031,0.34262,0,0,0,0
625.57,2.4182,10.025,0.34483,0,0,0,0
626.57,2.4258,10.019,0.34705,0,0,0,0
627.57,2.4324,10.012,0.34941,0,0,0,0
628.57,2.439,10.006,0.35195,0,0,0,0
629.57,2.4459,9.9997,0.35423,0,0,0,0
630.57,2.4534,9.9927,0.35665,0,0,0,0
631.57,2.4606,9.9864,0.35918,0,0,0,0
632.57,2.4674,9.9797,0.3612,0,0,0,0
633.57,2.4738,9.9727,0.36401,0,0,0,0
634.57,2.481,9.9664,0.36645,0,0,0,0
635.57,2.4886,9.959,0.36927,0,0,0,0
636.57,2.496,9.951,0.37167,0,0,0,0
637.57,2.5024,9.9444,0.37453,0,0,0,0
638.57,2.5089,9.9367,0.37706,0,0,0,0
639.57,2.5162,9.9291,0.38028,0,0,0,0
640.57,2.5238,9.9217,0.38227,0,0,0,0
641.57,2.5311,9.914,0.38485,0,0,0,0
642.57,2.5379,9.906,0.38738,0,0,0,0
643.57,2.5449,9.8981,0.39005,0,0,0,0
644.57,2.5522,9.8887,0.39254,0,0,0,0
645.57,2.5602,9.8801,0.39551,0,0,0,0
646.57,2.567,9.8714,0.39825,0,0,0,0
647.57,2.5737,9.8627,0.40083,0,0,0,0
648.57,2.5807,9.8534,0.40373,0,0,0,0
649.57,2.5881,9.8441,0.40666,0,0,0,0
650.57,2.5958,9.8351,0.40954,0,0,0,0
651.57,2.6032,9.8254,0.41229,0,0,0,0
652.57,2.6099,9.8159,0.41479,0,0,0,0
653.57,2.6167,9.8054,0.41761,0,0,0,0
654.57,2.6246,9.795,0.42053,0,0,0,0
655.57,2.6322,9.7861,0.42346,0,0,0,0
656.57,2.6393,9.7751,0.4264,0,0,0,0
657.57,2.646,9.7636,0.42919,0,0,0,0
658.57,2.653,9.7531,0.43216,0,0,0,0
659.57,2.6609,9.7424,0.43526,0,0,0,0
660.57,2.6685,9.7301,0.43828,0,0,0,0
661.57,2.6754,9.7189,0.44129,0,0,0,0
662.57,2.682,9.707,0.44402,0,0,0,0
663.57,2.6894,9.695,0.44757,0,0,0,0
664.57,2.6976,9.6831,0.45061,0,0,0,0
665.57,2.7051,9.6706,0.45363,0,0,0,0
666.57,2.7121,9.6574,0.45626,0,0,0,0
667.57,2.7191,9.6451,0.45955,0,0,0,0
668.57,2.7267,9.6317,0.46288,0,0,0,0
669.57,2.7345,9.6184,0.46636,0,0,0,0
670.57,2.7416,9.6041,0.4693,0,0,0,0
671.57,2.7488,9.5894,0.47277,0,0,0,0
672.57,2.7563,9.5751,0.47597,0,0,0,0
673.57,2.7642,9.5606,0.4793,0,0,0,0
674.57,2.7719,9.5447,0.48197,0,0,0,0
675.57,2.7789,9.5303,0.48508,0,0,0,0
676.57,2.786,9.5146,0.48868,0,0,0,0
677.57,2.794,9.4986,0.4923,0,0,0,0
678.57,2.8018,9.4821,0.49577,0,0,0,0
679.57,2.8095,9.4654,0.49885,0,0,0,0
680.57,2.8168,9.4474,0.5023,0,0,0,0
681.57,2.824,9.4294,0.50548,0,0,0,0
682.57,2.8318,9.412,0.50849,0,0,0,0
683.57,2.8403,9.3921,0.51127,0,0,0,0
684.57,2.8477,9.3733,0.51426,0,0,0,0
685.57,2.8549,9.3546,0.51811,0,0,0,0
686.57,2.8625,9.3346,0.52177,0,0,0,0
687.57,2.8708,9.3136,0.52545,0,0,0,0
688.57,2.8789,9.2929,0.52851,0,0,0,0
689.57,2.8865,9.2709,0.53159,0,0,0,0
690.57,2.894,9.2484,0.53538,0,0,0,0
691.57,2.902,9.2267,0.5393,0,0,0,0
692.57,2.9107,9.2019,0.54288,0,0,0,0
693.57,2.9184,9.1784,0.5464,0,0,0,0
694.57,2.926,9.154,0.55006,0,0,0,0
695.57,2.9337,9.128,0.5534,0,0,0,0
696.57,2.9423,9.1013,0.55696,0,0,0,0
697.57,2.9508,9.0749,0.56032,0,0,0,0
698.57,2.9588,9.0469,0.56433,0,0,0,0
699.57,2.9666,9.0171,0.56763,0,0,0,0
700.57,2.975,8.9871,-Inf,0,0,0,0
701.57,2.9844,8.9519,-Inf,0,0,0,0
702.57,2.9938,8.9148,-Inf,0,0,0,0
703.07,3.0011,8.8913,-Inf,0,0,0,0