File: polyN_optimization/DP600_results/DATA/NT20_00_3.csv
Time[s],Displacement[mm],Force[kN],AxStrain_1,AxStrain_2,Thickness[mm],OuterWidth[mm],InnerWidth[mm]
0.62,0,-0.018675,0,0,1.5309,20,10
1.62,5.4e-05,-0.021568,0.00037093,0,0,0,0
2.62,0.000509,0.015996,0.00027396,0,0,0,0
3.62,0.00061,0.078705,0.00028496,0,0,0,0
4.62,0.000687,0.13057,0.0004519,0,0,0,0
5.62,0.000925,0.18428,0.00028996,0,0,0,0
6.62,0.000893,0.23685,0.00041991,0,0,0,0
7.62,0.001251,0.27942,0.00019898,0,0,0,0
8.62,0.001111,0.31557,0.00033694,0,0,0,0
9.62,0.001146,0.348,0.00027296,0,0,0,0
10.62,0.001348,0.38328,0.00027296,0,0,0,0
11.62,0.001627,0.42171,0.00013499,0,0,0,0
12.62,0.002063,0.45871,0.00012499,0,0,0,0
13.62,0.002447,0.49257,8.5996e-05,0,0,0,0
14.62,0.002412,0.52914,3e-05,0,0,0,0
15.62,0.002791,0.56756,0.00039092,0,0,0,0
16.62,0.002579,0.60285,0.00051587,0,0,0,0
17.62,0.002642,0.64085,0.00024497,0,0,0,0
18.62,0.002533,0.67914,0.00025197,0,0,0,0
19.62,0.002529,0.71756,0.00036093,0,0,0,0
20.62,0.002662,0.75942,0.00024797,0,0,0,0
21.62,0.002936,0.79971,0.00015899,0,0,0,0
22.62,0.003016,0.83757,0.00016599,0,0,0,0
23.62,0.003539,0.87785,0.00031095,0,0,0,0
24.62,0.004029,0.92071,0.00026197,0,0,0,0
25.62,0.004343,0.96,0.00024797,0,0,0,0
26.62,0.004512,1.0006,0.00043391,0,0,0,0
27.62,0.004797,1.0404,0.00029796,0,0,0,0
28.62,0.004526,1.0803,0.00035394,0,0,0,0
29.62,0.004115,1.1224,0.00047289,0,0,0,0
30.62,0.004459,1.1634,0.00029796,0,0,0,0
31.62,0.004453,1.2016,0.00037393,0,0,0,0
32.62,0.004641,1.2433,0.00027496,0,0,0,0
33.62,0.005108,1.287,0.00020198,0,0,0,0
34.62,0.005383,1.3266,0.00017898,0,0,0,0
35.62,0.006187,1.3679,0.00023797,0,0,0,0
36.62,0.006661,1.4084,0.00016199,0,0,0,0
37.62,0.006876,1.4483,0.00049988,0,0,0,0
38.62,0.006737,1.4911,0.00043391,0,0,0,0
39.62,0.006568,1.5324,0.00061181,0,0,0,0
40.62,0.006386,1.5706,0.00050687,0,0,0,0
41.62,0.006317,1.6116,0.00059282,0,0,0,0
42.62,0.006485,1.6543,0.00033794,0,0,0,0
43.62,0.006903,1.6939,0.00058583,0,0,0,0
44.62,0.007426,1.7356,0.00049688,0,0,0,0
45.62,0.007925,1.7751,0.00039692,0,0,0,0
46.62,0.0087,1.815,0.00048988,0,0,0,0
47.62,0.009372,1.8574,0.00064579,0,0,0,0
48.62,0.009193,1.8981,0.00071774,0,0,0,0
49.62,0.008508,1.9356,0.00053286,0,0,0,0
50.62,0.008462,1.9766,0.00067477,0,0,0,0
51.62,0.008303,2.019,0.00060582,0,0,0,0
52.62,0.008704,2.0576,0.00070475,0,0,0,0
53.62,0.008819,2.0979,0.00057284,0,0,0,0
54.62,0.009452,2.1371,0.00074772,0,0,0,0
55.62,0.010081,2.1774,0.00053586,0,0,0,0
56.62,0.011008,2.2213,0.00053985,0,0,0,0
57.62,0.011501,2.2596,0.00048288,0,0,0,0
58.62,0.011614,2.2996,0.00087062,0,0,0,0
59.62,0.011077,2.3389,0.00060282,0,0,0,0
60.62,0.010988,2.3791,0.00074472,0,0,0,0
61.62,0.01062,2.4194,0.00067177,0,0,0,0
62.62,0.01073,2.458,0.00080368,0,0,0,0
63.62,0.010822,2.5004,0.00068876,0,0,0,0
64.62,0.011352,2.539,0.0006318,0,0,0,0
65.62,0.011902,2.5786,0.00072174,0,0,0,0
66.62,0.012948,2.6196,0.00057883,0,0,0,0
67.62,0.013236,2.6599,0.00068876,0,0,0,0
68.62,0.01405,2.6991,0.00076771,0,0,0,0
69.62,0.013994,2.7394,0.00071474,0,0,0,0
70.62,0.01354,2.7797,0.00082066,0,0,0,0
71.62,0.013266,2.818,0.00090659,0,0,0,0
72.62,0.013123,2.8601,0.00082766,0,0,0,0
73.62,0.013008,2.8987,0.00074172,0,0,0,0
74.62,0.013547,2.9379,0.00085064,0,0,0,0
75.62,0.014057,2.9783,0.00067477,0,0,0,0
76.62,0.014914,3.0186,0.00057883,0,0,0,0
77.62,0.015659,3.0581,0.00074472,0,0,0,0
78.62,0.016219,3.0977,0.00076071,0,0,0,0
79.62,0.016414,3.1381,0.00072474,0,0,0,0
80.62,0.016441,3.176,0.00096254,0,0,0,0
81.62,0.015908,3.2174,0.0010025,0,0,0,0
82.62,0.015709,3.255,0.0009995,0,0,0,0
83.62,0.015507,3.2936,0.00079768,0,0,0,0
84.62,0.015679,3.3333,0.00079069,0,0,0,0
85.62,0.01651,3.3726,0.00091658,0,0,0,0
86.62,0.017196,3.4104,0.00073473,0,0,0,0
87.62,0.018344,3.4501,0.00068177,0,0,0,0
88.62,0.018914,3.4894,0.0010654,0,0,0,0
89.62,0.018943,3.5267,0.00095255,0,0,0,0
90.62,0.019251,3.5674,0.0011084,0,0,0,0
91.62,0.018891,3.6044,0.0010055,0,0,0,0
92.62,0.01854,3.642,0.0011114,0,0,0,0
93.62,0.018225,3.6806,0.0011973,0,0,0,0
94.62,0.018679,3.7186,0.0010914,0,0,0,0
95.62,0.01899,3.7556,0.00086063,0,0,0,0
96.62,0.01997,3.7931,0.00094955,0,0,0,0
97.62,0.020748,3.8311,0.0011014,0,0,0,0
98.62,0.021705,3.8674,0.00083765,0,0,0,0
99.62,0.022234,3.9071,0.0010395,0,0,0,0
100.62,0.022012,3.9441,0.0012372,0,0,0,0
101.62,0.021993,3.9806,0.0013201,0,0,0,0
102.62,0.022032,4.0183,0.0011943,0,0,0,0
103.62,0.021453,4.0563,0.0011413,0,0,0,0
104.62,0.021956,4.0924,0.0009955,0,0,0,0
105.62,0.022248,4.1301,0.0010784,0,0,0,0
106.62,0.02334,4.1681,0.0011543,0,0,0,0
107.62,0.024075,4.2037,0.0010225,0,0,0,0
108.62,0.024625,4.2429,0.0011114,0,0,0,0
109.62,0.025207,4.2784,0.0012972,0,0,0,0
110.62,0.025555,4.3146,0.0014949,0,0,0,0
111.62,0.025955,4.3523,0.0013231,0,0,0,0
112.62,0.025793,4.3893,0.001423,0,0,0,0
113.62,0.025714,4.4249,0.0012572,0,0,0,0
114.62,0.025492,4.4619,0.001389,0,0,0,0
115.62,0.02579,4.4984,0.0013231,0,0,0,0
116.62,0.02675,4.5334,0.0012243,0,0,0,0
117.62,0.027876,4.5719,0.0011913,0,0,0,0
118.62,0.028703,4.6071,0.0013561,0,0,0,0
119.62,0.029067,4.643,0.0015548,0,0,0,0
120.62,0.02973,4.6793,0.0016866,0,0,0,0
121.62,0.029961,4.7156,0.0019182,0,0,0,0
122.62,0.030193,4.7511,0.0019182,0,0,0,0
123.62,0.030293,4.7871,0.0016866,0,0,0,0
124.62,0.030756,4.8234,0.0018852,0,0,0,0
125.62,0.031518,4.8584,0.0016866,0,0,0,0
126.62,0.03208,4.8961,0.0017535,0,0,0,0
127.62,0.032544,4.9304,0.0016866,0,0,0,0
128.62,0.033107,4.965,0.0017535,0,0,0,0
129.62,0.033835,5,0.0017535,0,0,0,0
130.62,0.034166,5.0353,0.0022485,0,0,0,0
131.62,0.03463,5.0691,0.0022814,0,0,0,0
132.62,0.035259,5.1041,0.0022485,0,0,0,0
133.62,0.036186,5.1399,0.0020509,0,0,0,0
134.62,0.037113,5.1731,0.002017,0,0,0,0
135.62,0.038007,5.2099,0.002017,0,0,0,0
136.62,0.038736,5.2431,0.0022155,0,0,0,0
137.62,0.039034,5.2787,0.0020838,0,0,0,0
138.62,0.03963,5.3126,0.0022155,0,0,0,0
139.62,0.039961,5.3476,0.0025128,0,0,0,0
140.62,0.040524,5.381,0.00281,0,0,0,0
141.62,0.040789,5.4146,0.0029427,0,0,0,0
142.62,0.04208,5.4489,0.002843,0,0,0,0
143.62,0.043967,5.4836,0.0026784,0,0,0,0
144.62,0.045589,5.5159,0.0027771,0,0,0,0
145.62,0.047046,5.5499,0.0026784,0,0,0,0
146.62,0.048039,5.5839,0.00281,0,0,0,0
147.62,0.048834,5.6171,0.002843,0,0,0,0
148.62,0.049264,5.6501,0.0031072,0,0,0,0
149.62,0.049661,5.682,0.0033384,0,0,0,0
150.62,0.050357,5.7139,0.0035029,0,0,0,0
151.62,0.051681,5.7476,0.0038994,0,0,0,0
152.62,0.053403,5.7799,0.0039651,0,0,0,0
153.62,0.055157,5.8101,0.0038326,0,0,0,0
154.62,0.056945,5.8429,0.0037998,0,0,0,0
155.62,0.058501,5.8741,0.0037011,0,0,0,0
156.62,0.059891,5.9049,0.003998,0,0,0,0
157.62,0.060984,5.9356,0.0038994,0,0,0,0
158.62,0.062242,5.965,0.0041633,0,0,0,0
159.62,0.063798,5.9949,0.0042948,0,0,0,0
160.62,0.065255,6.0251,0.0048552,0,0,0,0
161.62,0.067407,6.0551,0.0053158,0,0,0,0
162.62,0.068665,6.0839,0.005481,0,0,0,0
163.62,0.070453,6.1131,0.0054153,0,0,0,0
164.62,0.072241,6.1421,0.005283,0,0,0,0
165.62,0.073466,6.1716,0.0051189,0,0,0,0
166.62,0.074757,6.2001,0.0051845,0,0,0,0
167.62,0.076876,6.228,0.0054481,0,0,0,0
168.62,0.079492,6.2563,0.0055794,0,0,0,0
169.62,0.081876,6.2841,0.0060735,0,0,0,0
170.62,0.084425,6.3121,0.006468,0,0,0,0
171.62,0.086445,6.3381,0.00706,0,0,0,0
172.62,0.088266,6.3634,0.0071593,0,0,0,0
173.62,0.089889,6.3913,0.0072576,0,0,0,0
174.62,0.091709,6.4183,0.0072248,0,0,0,0
175.62,0.09363,6.4431,0.00706,0,0,0,0
176.62,0.095914,6.4694,0.0071921,0,0,0,0
177.62,0.098398,6.4971,0.0072248,0,0,0,0
178.62,0.10082,6.5221,0.0074879,0,0,0,0
179.62,0.10274,6.5481,0.0078819,0,0,0,0
180.62,0.10482,6.5733,0.0086376,0,0,0,0
181.62,0.10694,6.5984,0.0089984,0,0,0,0
182.62,0.10916,6.6243,0.0094571,0,0,0,0
183.62,0.11191,6.6496,0.0095562,0,0,0,0
184.62,0.11512,6.6731,0.0093264,0,0,0,0
185.62,0.11807,6.6981,0.008933,0,0,0,0
186.62,0.12061,6.7244,0.0090975,0,0,0,0
187.62,0.1228,6.7477,0.0092947,0,0,0,0
188.62,0.12512,6.7729,0.0095572,0,0,0,0
189.62,0.1275,6.7963,0.010147,0,0,0,0
190.62,0.12989,6.8197,0.01054,0,0,0,0
191.62,0.13287,6.845,0.011032,0,0,0,0
192.62,0.13571,6.8693,0.011424,0,0,0,0
193.62,0.1384,6.8914,0.011424,0,0,0,0
194.62,0.14058,6.9151,0.011392,0,0,0,0
195.62,0.14283,6.9397,0.011327,0,0,0,0
196.62,0.14552,6.9621,0.011162,0,0,0,0
197.62,0.14797,6.9851,0.011195,0,0,0,0
198.62,0.15131,7.0076,0.011752,0,0,0,0
199.62,0.15479,7.0297,0.012014,0,0,0,0
200.62,0.15773,7.0523,0.012734,0,0,0,0
201.62,0.16078,7.0746,0.013288,0,0,0,0
202.62,0.16339,7.0961,0.01368,0,0,0,0
203.62,0.16617,7.1199,0.013844,0,0,0,0
204.62,0.16932,7.1446,0.013714,0,0,0,0
205.62,0.17233,7.1644,0.013354,0,0,0,0
206.62,0.17594,7.1851,0.013289,0,0,0,0
207.62,0.17909,7.2077,0.013354,0,0,0,0
208.62,0.18167,7.2294,0.013714,0,0,0,0
209.62,0.18429,7.2506,0.014399,0,0,0,0
210.62,0.1866,7.2719,0.014855,0,0,0,0
211.62,0.18959,7.292,0.015606,0,0,0,0
212.62,0.1926,7.313,0.015834,0,0,0,0
213.62,0.19657,7.334,0.015996,0,0,0,0
214.62,0.19968,7.3544,0.016029,0,0,0,0
215.62,0.20243,7.3746,0.015996,0,0,0,0
216.62,0.20551,7.3934,0.015801,0,0,0,0
217.62,0.20866,7.4129,0.015866,0,0,0,0
218.62,0.21174,7.435,0.016159,0,0,0,0
219.62,0.21535,7.4541,0.016583,0,0,0,0
220.62,0.21942,7.4741,0.017201,0,0,0,0
221.62,0.22266,7.4936,0.017852,0,0,0,0
222.62,0.22584,7.5136,0.018371,0,0,0,0
223.62,0.22902,7.5333,0.018437,0,0,0,0
224.62,0.23203,7.5523,0.018502,0,0,0,0
225.62,0.23561,7.5716,0.018339,0,0,0,0
226.62,0.23932,7.5907,0.018209,0,0,0,0
227.62,0.24346,7.61,0.018599,0,0,0,0
228.62,0.24657,7.6299,0.018859,0,0,0,0
229.62,0.24948,7.6479,0.019347,0,0,0,0
230.62,0.25227,7.6659,0.019736,0,0,0,0
231.62,0.25531,7.6859,0.020223,0,0,0,0
232.62,0.25919,7.7041,0.020612,0,0,0,0
233.62,0.26286,7.7216,0.020775,0,0,0,0
234.62,0.26657,7.7403,0.020807,0,0,0,0
235.62,0.26988,7.7577,0.020677,0,0,0,0
236.62,0.27306,7.7757,0.021002,0,0,0,0
237.62,0.27657,7.795,0.021131,0,0,0,0
238.62,0.27988,7.8111,0.021552,0,0,0,0
239.62,0.28399,7.8286,0.021909,0,0,0,0
240.62,0.28836,7.8471,0.022265,0,0,0,0
241.62,0.29197,7.8641,0.022816,0,0,0,0
242.62,0.29564,7.8806,0.023139,0,0,0,0
243.62,0.29905,7.8983,0.023334,0,0,0,0
244.62,0.3024,7.9137,0.023398,0,0,0,0
245.62,0.30657,7.9304,0.023366,0,0,0,0
246.62,0.31061,7.9483,0.023721,0,0,0,0
247.62,0.31465,7.9641,0.023948,0,0,0,0
248.62,0.31822,7.9806,0.024335,0,0,0,0
249.62,0.3214,7.9971,0.024658,0,0,0,0
250.62,0.32501,8.0139,0.024917,0,0,0,0
251.62,0.32872,8.03,0.025305,0,0,0,0
252.62,0.33266,8.0459,0.025756,0,0,0,0
253.62,0.3366,8.0617,0.025822,0,0,0,0
254.62,0.34038,8.0784,0.026079,0,0,0,0
255.62,0.34375,8.0956,0.026273,0,0,0,0
256.62,0.347,8.1101,0.026338,0,0,0,0
257.62,0.35074,8.1256,0.026983,0,0,0,0
258.62,0.35508,8.1419,0.027143,0,0,0,0
259.62,0.35925,8.1576,0.027531,0,0,0,0
260.62,0.36365,8.1719,0.027885,0,0,0,0
261.62,0.36706,8.188,0.028272,0,0,0,0
262.62,0.37077,8.2024,0.028658,0,0,0,0
263.62,0.37461,8.2181,0.028883,0,0,0,0
264.62,0.37882,8.2343,0.029012,0,0,0,0
265.62,0.38365,8.2481,0.029237,0,0,0,0
266.62,0.38792,8.2629,0.029751,0,0,0,0
267.62,0.3918,8.2781,0.029815,0,0,0,0
268.62,0.39557,8.2929,0.03033,0,0,0,0
269.62,0.39958,8.3073,0.030491,0,0,0,0
270.62,0.40352,8.3216,0.030908,0,0,0,0
271.62,0.40825,8.3354,0.031197,0,0,0,0
272.62,0.41282,8.3504,0.031647,0,0,0,0
273.62,0.41706,8.3656,0.032193,0,0,0,0
274.62,0.42051,8.3789,0.032129,0,0,0,0
275.62,0.42441,8.3926,0.032578,0,0,0,0
276.62,0.42835,8.4069,0.032641,0,0,0,0
277.62,0.43273,8.4209,0.032995,0,0,0,0
278.62,0.43736,8.4346,0.033187,0,0,0,0
279.62,0.4412,8.4486,0.033603,0,0,0,0
280.62,0.44504,8.4617,0.034052,0,0,0,0
281.62,0.44878,8.4754,0.034403,0,0,0,0
282.62,0.45279,8.4896,0.034723,0,0,0,0
283.62,0.45756,8.5026,0.035107,0,0,0,0
284.62,0.4622,8.5153,0.035394,0,0,0,0
285.62,0.4665,8.5289,0.035907,0,0,0,0
286.62,0.47034,8.5423,0.036129,0,0,0,0
287.62,0.47425,8.5546,0.036257,0,0,0,0
288.62,0.47829,8.5683,0.036577,0,0,0,0
289.62,0.48322,8.5809,0.036961,0,0,0,0
290.62,0.48819,8.5939,0.037311,0,0,0,0
291.62,0.49253,8.6073,0.037949,0,0,0,0
292.62,0.49693,8.6189,0.038426,0,0,0,0
293.62,0.5007,8.6306,0.038747,0,0,0,0
294.62,0.50508,8.6439,0.039127,0,0,0,0
295.62,0.50978,8.6569,0.039477,0,0,0,0
296.62,0.51474,8.6689,0.039447,0,0,0,0
297.62,0.51958,8.6816,0.039891,0,0,0,0
298.62,0.52368,8.6939,0.04005,0,0,0,0
299.62,0.52776,8.7064,0.040497,0,0,0,0
300.62,0.53229,8.7193,0.041036,0,0,0,0
301.62,0.537,8.7299,0.041609,0,0,0,0
302.62,0.54239,8.7423,0.041862,0,0,0,0
303.62,0.54673,8.7549,0.042211,0,0,0,0
304.62,0.5508,8.7666,0.042592,0,0,0,0
305.62,0.55488,8.778,0.042973,0,0,0,0
306.62,0.55902,8.7896,0.043068,0,0,0,0
307.62,0.56398,8.8011,0.043291,0,0,0,0
308.62,0.56898,8.8129,0.043512,0,0,0,0
309.62,0.57339,8.8246,0.044051,0,0,0,0
310.62,0.57743,8.8356,0.044685,0,0,0,0
311.62,0.58144,8.8463,0.045128,0,0,0,0
312.62,0.586,8.8579,0.045666,0,0,0,0
313.62,0.59094,8.8696,0.046204,0,0,0,0
314.62,0.5962,8.8803,0.046488,0,0,0,0
315.62,0.60067,8.8913,0.046424,0,0,0,0
316.62,0.60461,8.9019,0.046772,0,0,0,0
317.62,0.60892,8.9129,0.046993,0,0,0,0
318.62,0.61372,8.9243,0.047592,0,0,0,0
319.62,0.61889,8.9339,0.047845,0,0,0,0
320.62,0.62408,8.9443,0.048224,0,0,0,0
321.62,0.62869,8.9553,0.048948,0,0,0,0
322.62,0.63263,8.9656,0.04939,0,0,0,0
323.62,0.63736,8.9763,0.049705,0,0,0,0
324.62,0.64223,8.9866,0.049926,0,0,0,0
325.62,0.64772,8.9969,0.050335,0,0,0,0
326.62,0.65292,9.0071,0.050524,0,0,0,0
327.62,0.65743,9.0176,0.050934,0,0,0,0
328.62,0.6617,9.0273,0.051152,0,0,0,0
329.62,0.66607,9.037,0.051812,0,0,0,0
330.62,0.67087,9.0469,0.052315,0,0,0,0
331.62,0.6767,9.0573,0.05285,0,0,0,0
332.62,0.6816,9.067,0.053258,0,0,0,0
333.62,0.686,9.077,0.053697,0,0,0,0
334.62,0.69044,9.0866,0.053918,0,0,0,0
335.62,0.69504,9.0959,0.054168,0,0,0,0
336.62,0.69994,9.1063,0.054607,0,0,0,0
337.62,0.70554,9.1159,0.055046,0,0,0,0
338.62,0.71044,9.1249,0.055578,0,0,0,0
339.62,0.71507,9.1346,0.056205,0,0,0,0
340.62,0.71918,9.1443,0.056517,0,0,0,0
341.62,0.72395,9.1536,0.057081,0,0,0,0
342.62,0.72941,9.164,0.057424,0,0,0,0
343.62,0.73471,9.1729,0.057674,0,0,0,0
344.62,0.73954,9.1821,0.058175,0,0,0,0
345.62,0.74401,9.1919,0.058488,0,0,0,0
346.62,0.74845,9.1999,0.058924,0,0,0,0
347.62,0.75358,9.209,0.05933,0,0,0,0
348.62,0.75905,9.2186,0.060016,0,0,0,0
349.62,0.76421,9.2276,0.060514,0,0,0,0
350.62,0.76911,9.2363,0.061012,0,0,0,0
351.62,0.77368,9.2453,0.061356,0,0,0,0
352.62,0.77832,9.2539,0.061729,0,0,0,0
353.62,0.78365,9.2626,0.06201,0,0,0,0
354.62,0.78911,9.2713,0.062476,0,0,0,0
355.62,0.79424,9.2793,0.062912,0,0,0,0
356.62,0.79898,9.287,0.063439,0,0,0,0
357.62,0.80375,9.2956,0.063812,0,0,0,0
358.62,0.80871,9.3043,0.064309,0,0,0,0
359.62,0.81415,9.3123,0.064837,0,0,0,0
360.62,0.81964,9.321,0.065363,0,0,0,0
361.62,0.82484,9.3286,0.065644,0,0,0,0
362.62,0.82951,9.3369,0.066078,0,0,0,0
363.62,0.83408,9.3456,0.066605,0,0,0,0
364.62,0.83928,9.3533,0.067255,0,0,0,0
365.62,0.84507,9.3613,0.067503,0,0,0,0
366.62,0.85057,9.3696,0.067998,0,0,0,0
367.62,0.8555,9.3773,0.068337,0,0,0,0
368.62,0.86037,9.385,0.068925,0,0,0,0
369.62,0.86514,9.393,0.069512,0,0,0,0
370.62,0.87064,9.4003,0.069822,0,0,0,0
371.62,0.87633,9.4084,0.070346,0,0,0,0
372.62,0.88186,9.4156,0.07081,0,0,0,0
373.62,0.88676,9.423,0.071426,0,0,0,0
374.62,0.89136,9.4309,0.071949,0,0,0,0
375.62,0.89666,9.4381,0.072258,0,0,0,0
376.62,0.90212,9.4454,0.072782,0,0,0,0
377.62,0.90789,9.4527,0.073151,0,0,0,0
378.62,0.91282,9.4597,0.073735,0,0,0,0
379.62,0.91775,9.4674,0.07435,0,0,0,0
380.62,0.92259,9.4744,0.07469,0,0,0,0
381.62,0.92769,9.4807,0.075365,0,0,0,0
382.62,0.93342,9.4887,0.075887,0,0,0,0
383.62,0.93905,9.4964,0.076347,0,0,0,0
384.62,0.94408,9.5027,0.076807,0,0,0,0
385.62,0.94865,9.51,0.077145,0,0,0,0
386.62,0.95355,9.5174,0.077727,0,0,0,0
387.62,0.95921,9.5237,0.078524,0,0,0,0
388.62,0.96491,9.5311,0.078922,0,0,0,0
389.62,0.97014,9.5377,0.079441,0,0,0,0
390.62,0.97524,9.5447,0.080083,0,0,0,0
391.62,0.97974,9.5514,0.080663,0,0,0,0
392.62,0.9853,9.5574,0.081213,0,0,0,0
393.62,0.99133,9.5644,0.081548,0,0,0,0
394.62,0.99706,9.571,0.082098,0,0,0,0
395.62,1.0019,9.5774,0.082525,0,0,0,0
396.62,1.0067,9.5837,0.08289,0,0,0,0
397.62,1.0119,9.5904,0.0835,0,0,0,0
398.62,1.0175,9.5964,0.084018,0,0,0,0
399.62,1.0234,9.602,0.084779,0,0,0,0
400.62,1.029,9.6087,0.085235,0,0,0,0
401.62,1.034,9.6154,0.085752,0,0,0,0
402.62,1.0388,9.6217,0.086297,0,0,0,0
403.62,1.0442,9.6273,0.086723,0,0,0,0
404.62,1.0503,9.6327,0.087087,0,0,0,0
405.62,1.056,9.6384,0.087542,0,0,0,0
406.62,1.0612,9.6451,0.088179,0,0,0,0
407.62,1.0663,9.651,0.088756,0,0,0,0
408.62,1.0716,9.657,0.089574,0,0,0,0
409.62,1.0776,9.6634,0.09015,0,0,0,0
410.62,1.0834,9.6687,0.090873,0,0,0,0
411.62,1.0892,9.6747,0.091328,0,0,0,0
412.62,1.0943,9.6807,0.091901,0,0,0,0
413.62,1.0995,9.6864,0.092082,0,0,0,0
414.62,1.1052,9.6917,0.092746,0,0,0,0
415.62,1.1111,9.6971,0.09326,0,0,0,0
416.62,1.1169,9.702,0.094194,0,0,0,0
417.62,1.1223,9.708,0.094826,0,0,0,0
418.62,1.127,9.7133,0.095489,0,0,0,0
419.62,1.1327,9.7186,0.096121,0,0,0,0
420.62,1.1386,9.7243,0.096662,0,0,0,0
421.62,1.1448,9.7289,0.097112,0,0,0,0
422.62,1.1503,9.7343,0.097473,0,0,0,0
423.62,1.1554,9.7397,0.097984,0,0,0,0
424.62,1.1605,9.7443,0.098674,0,0,0,0
425.62,1.1661,9.7493,0.099484,0,0,0,0
426.62,1.1724,9.7543,0.10011,0,0,0,0
427.62,1.1782,9.7593,0.10086,0,0,0,0
428.62,1.1834,9.7646,0.10173,0,0,0,0
429.62,1.1885,9.7696,0.10224,0,0,0,0
430.62,1.1939,9.7746,0.10271,0,0,0,0
431.62,1.2002,9.78,0.10322,0,0,0,0
432.62,1.2064,9.7843,0.1037,0,0,0,0
433.62,1.2118,9.789,0.10433,0,0,0,0
434.62,1.2166,9.7933,0.10513,0,0,0,0
435.62,1.2221,9.7983,0.10594,0,0,0,0
436.62,1.2279,9.8026,0.10653,0,0,0,0
437.62,1.2341,9.8073,0.10728,0,0,0,0
438.62,1.2399,9.8116,0.10781,0,0,0,0
439.62,1.245,9.8156,0.10855,0,0,0,0
440.62,1.2502,9.82,0.10903,0,0,0,0
441.62,1.2557,9.8247,0.10959,0,0,0,0
442.62,1.262,9.8286,0.11025,0,0,0,0
443.62,1.2679,9.8333,0.11081,0,0,0,0
444.62,1.2732,9.8376,0.11158,0,0,0,0
445.62,1.2782,9.8416,0.11229,0,0,0,0
446.62,1.2836,9.8456,0.113,0,0,0,0
447.62,1.2892,9.8496,0.11365,0,0,0,0
448.62,1.2954,9.8536,0.11421,0,0,0,0
449.62,1.3014,9.858,0.11486,0,0,0,0
450.62,1.3064,9.862,0.11533,0,0,0,0
451.62,1.3115,9.8656,0.11616,0,0,0,0
452.62,1.3173,9.87,0.11684,0,0,0,0
453.62,1.3237,9.874,0.11739,0,0,0,0
454.62,1.3296,9.878,0.1181,0,0,0,0
455.62,1.335,9.8817,0.11884,0,0,0,0
456.62,1.3401,9.8854,0.11948,0,0,0,0
457.62,1.3458,9.889,0.12013,0,0,0,0
458.62,1.352,9.8926,0.12077,0,0,0,0
459.62,1.358,9.8966,0.1216,0,0,0,0
460.62,1.3638,9.9003,0.12215,0,0,0,0
461.62,1.3692,9.9036,0.12294,0,0,0,0
462.62,1.3744,9.9077,0.1235,0,0,0,0
463.62,1.3804,9.9107,0.12423,0,0,0,0
464.62,1.3869,9.9137,0.12508,0,0,0,0
465.62,1.3927,9.9177,0.12578,0,0,0,0
466.62,1.3982,9.921,0.12665,0,0,0,0
467.62,1.4034,9.9237,0.1273,0,0,0,0
468.62,1.4092,9.9274,0.12823,0,0,0,0
469.62,1.4156,9.9307,0.1289,0,0,0,0
470.62,1.4218,9.934,0.12939,0,0,0,0
471.62,1.4273,9.9373,0.13012,0,0,0,0
472.62,1.4325,9.9403,0.13082,0,0,0,0
473.62,1.4382,9.9437,0.1316,0,0,0,0
474.62,1.4442,9.9463,0.1323,0,0,0,0
475.62,1.451,9.9493,0.13314,0,0,0,0
476.62,1.457,9.9523,0.13406,0,0,0,0
477.62,1.4622,9.9557,0.13482,0,0,0,0
478.62,1.4677,9.9583,0.13563,0,0,0,0
479.62,1.4737,9.9617,0.13621,0,0,0,0
480.62,1.4805,9.9647,0.1371,0,0,0,0
481.62,1.4865,9.9673,0.13802,0,0,0,0
482.62,1.4921,9.9699,0.1386,0,0,0,0
483.62,1.4974,9.9726,0.13949,0,0,0,0
484.62,1.5033,9.9757,0.14036,0,0,0,0
485.61,1.5102,9.978,0.14116,0,0,0,0
486.62,1.5164,9.981,0.14203,0,0,0,0
487.62,1.5223,9.984,0.14292,0,0,0,0
488.62,1.5276,9.9863,0.14349,0,0,0,0
489.62,1.5335,9.989,0.14421,0,0,0,0
490.62,1.5399,9.991,0.14507,0,0,0,0
491.62,1.5467,9.9933,0.14621,0,0,0,0
492.62,1.5525,9.996,0.14721,0,0,0,0
493.62,1.5579,9.998,0.14813,0,0,0,0
494.62,1.5636,10,0.14887,0,0,0,0
495.62,1.5701,10.003,0.14978,0,0,0,0
496.62,1.5767,10.005,0.15046,0,0,0,0
497.61,1.5829,10.007,0.15126,0,0,0,0
498.62,1.5887,10.01,0.15206,0,0,0,0
499.62,1.5944,10.012,0.15294,0,0,0,0
500.62,1.6004,10.014,0.15357,0,0,0,0
501.62,1.6073,10.016,0.15467,0,0,0,0
502.62,1.6137,10.018,0.15581,0,0,0,0
503.61,1.6193,10.02,0.15646,0,0,0,0
504.62,1.6251,10.022,0.15733,0,0,0,0
505.62,1.6313,10.024,0.15838,0,0,0,0
506.61,1.638,10.026,0.15917,0,0,0,0
507.61,1.6445,10.027,0.1601,0,0,0,0
508.62,1.6505,10.029,0.16081,0,0,0,0
509.62,1.6561,10.03,0.16177,0,0,0,0
510.62,1.662,10.032,0.16269,0,0,0,0
511.62,1.6688,10.034,0.16345,0,0,0,0
512.61,1.6755,10.036,0.16458,0,0,0,0
513.61,1.6814,10.037,0.16539,0,0,0,0
514.62,1.6872,10.039,0.16621,0,0,0,0
515.62,1.6932,10.04,0.1671,0,0,0,0
516.61,1.6998,10.041,0.16803,0,0,0,0
517.61,1.7066,10.043,0.16915,0,0,0,0
518.61,1.7126,10.044,0.1697,0,0,0,0
519.61,1.7183,10.046,0.17082,0,0,0,0
520.61,1.7241,10.047,0.17174,0,0,0,0
521.62,1.7306,10.048,0.17288,0,0,0,0
522.62,1.7377,10.05,0.1738,0,0,0,0
523.62,1.744,10.051,0.17492,0,0,0,0
524.61,1.7498,10.052,0.17592,0,0,0,0
525.61,1.7558,10.053,0.17689,0,0,0,0
526.61,1.7621,10.054,0.17778,0,0,0,0
527.61,1.769,10.055,0.1788,0,0,0,0
528.62,1.7755,10.056,0.17991,0,0,0,0
529.61,1.7815,10.057,0.18093,0,0,0,0
530.62,1.7875,10.059,0.18206,0,0,0,0
531.62,1.7941,10.059,0.18325,0,0,0,0
532.61,1.8009,10.06,0.18419,0,0,0,0
533.61,1.8076,10.061,0.18545,0,0,0,0
534.62,1.8135,10.061,0.18649,0,0,0,0
535.61,1.8194,10.062,0.18757,0,0,0,0
536.62,1.826,10.063,0.18869,0,0,0,0
537.62,1.8329,10.063,0.19023,0,0,0,0
538.61,1.8395,10.064,0.19146,0,0,0,0
539.61,1.8457,10.064,0.19247,0,0,0,0
540.61,1.8516,10.064,0.19367,0,0,0,0
541.61,1.8581,10.065,0.19468,0,0,0,0
542.61,1.8654,10.065,0.19563,0,0,0,0
543.61,1.8718,10.066,0.19677,0,0,0,0
544.61,1.8781,10.066,0.19775,0,0,0,0
545.61,1.8841,10.066,0.19924,0,0,0,0
546.62,1.8907,10.067,0.20049,0,0,0,0
547.61,1.8979,10.067,0.20193,0,0,0,0
548.61,1.9047,10.067,0.20317,0,0,0,0
549.61,1.9107,10.067,0.20425,0,0,0,0
550.61,1.9169,10.066,0.20552,0,0,0,0
551.61,1.9234,10.066,0.20651,0,0,0,0
552.62,1.9304,10.066,0.20788,0,0,0,0
553.61,1.9373,10.066,0.20901,0,0,0,0
554.62,1.9435,10.066,0.21041,0,0,0,0
555.61,1.9497,10.065,0.21172,0,0,0,0
556.61,1.9561,10.065,0.21285,0,0,0,0
557.61,1.9635,10.065,0.21413,0,0,0,0
558.61,1.97,10.064,0.21544,0,0,0,0
559.61,1.9763,10.064,0.21667,0,0,0,0
560.61,1.9824,10.063,0.21765,0,0,0,0
561.61,1.9889,10.063,0.21909,0,0,0,0
562.61,1.9961,10.062,0.22047,0,0,0,0
563.61,2.003,10.062,0.22164,0,0,0,0
564.61,2.0093,10.061,0.22299,0,0,0,0
565.61,2.0153,10.06,0.22466,0,0,0,0
566.61,2.0221,10.06,0.22601,0,0,0,0
567.61,2.0292,10.058,0.22751,0,0,0,0
568.61,2.0361,10.057,0.22888,0,0,0,0
569.61,2.0424,10.057,0.23017,0,0,0,0
570.61,2.0486,10.056,0.23146,0,0,0,0
571.61,2.0553,10.055,0.23283,0,0,0,0
572.61,2.0625,10.054,0.2344,0,0,0,0
573.61,2.0694,10.053,0.23594,0,0,0,0
574.61,2.0758,10.051,0.2373,0,0,0,0
575.61,2.0818,10.05,0.23876,0,0,0,0
576.61,2.0887,10.048,0.24017,0,0,0,0
577.61,2.0959,10.047,0.24162,0,0,0,0
578.61,2.1029,10.046,0.24324,0,0,0,0
579.61,2.1092,10.044,0.24469,0,0,0,0
580.61,2.1151,10.043,0.24653,0,0,0,0
581.61,2.122,10.041,0.24811,0,0,0,0
582.61,2.1294,10.039,0.24968,0,0,0,0
583.61,2.1363,10.038,0.25107,0,0,0,0
584.61,2.1427,10.036,0.25233,0,0,0,0
585.61,2.149,10.034,0.2538,0,0,0,0
586.61,2.1556,10.032,0.25534,0,0,0,0
587.61,2.1631,10.03,0.25708,0,0,0,0
588.61,2.17,10.028,0.25851,0,0,0,0
589.62,2.176,10.026,0.26022,0,0,0,0
590.61,2.1825,10.024,0.26203,0,0,0,0
591.61,2.1892,10.022,0.26361,0,0,0,0
592.61,2.1968,10.02,0.26529,0,0,0,0
593.61,2.2035,10.018,0.26694,0,0,0,0
594.61,2.2101,10.015,0.26876,0,0,0,0
595.61,2.2164,10.013,0.2705,0,0,0,0
596.61,2.2233,10.01,0.27224,0,0,0,0
597.61,2.2305,10.007,0.27391,0,0,0,0
598.61,2.2377,10.005,0.27549,0,0,0,0
599.61,2.2438,10.002,0.27758,0,0,0,0
600.62,2.25,9.9997,0.27921,0,0,0,0
601.61,2.2568,9.997,0.28103,0,0,0,0
602.61,2.2643,9.9947,0.28281,0,0,0,0
603.61,2.2714,9.9917,0.28448,0,0,0,0
604.61,2.2776,9.9883,0.28629,0,0,0,0
605.61,2.2842,9.9857,0.28811,0,0,0,0
606.61,2.2915,9.9827,0.29007,0,0,0,0
607.61,2.2992,9.9793,0.29205,0,0,0,0
608.61,2.3057,9.976,0.29422,0,0,0,0
609.61,2.3122,9.9727,0.29602,0,0,0,0
610.61,2.3187,9.969,0.29752,0,0,0,0
611.61,2.326,9.965,0.29958,0,0,0,0
612.61,2.3333,9.9613,0.3013,0,0,0,0
613.61,2.3399,9.9583,0.30309,0,0,0,0
614.61,2.3462,9.9546,0.30531,0,0,0,0
615.61,2.3526,9.951,0.30755,0,0,0,0
616.61,2.3602,9.947,0.30969,0,0,0,0
617.61,2.3677,9.943,0.31204,0,0,0,0
618.61,2.3745,9.9393,0.31398,0,0,0,0
619.61,2.3807,9.9353,0.31613,0,0,0,0
620.62,2.3872,9.931,0.31789,0,0,0,0
621.61,2.3948,9.9266,0.3201,0,0,0,0
622.61,2.4021,9.9223,0.32248,0,0,0,0
623.61,2.4088,9.918,0.3249,0,0,0,0
624.61,2.415,9.9137,0.32736,0,0,0,0
625.61,2.4219,9.9087,0.32939,0,0,0,0
626.61,2.4294,9.9044,0.33134,0,0,0,0
627.61,2.4369,9.9,0.33338,0,0,0,0
628.61,2.4431,9.8953,0.33551,0,0,0,0
629.61,2.4495,9.8903,0.33795,0,0,0,0
630.61,2.4566,9.8853,0.34035,0,0,0,0
631.61,2.4641,9.8803,0.34268,0,0,0,0
632.61,2.4711,9.8757,0.34489,0,0,0,0
633.61,2.4777,9.87,0.34725,0,0,0,0
634.61,2.4842,9.8646,0.34938,0,0,0,0
635.61,2.4912,9.8593,0.35157,0,0,0,0
636.61,2.4986,9.853,0.35374,0,0,0,0
637.61,2.506,9.8473,0.35627,0,0,0,0
638.61,2.5122,9.842,0.35854,0,0,0,0
639.61,2.519,9.8364,0.36089,0,0,0,0
640.61,2.5259,9.8311,0.36322,0,0,0,0
641.62,2.5335,9.8247,0.36575,0,0,0,0
642.61,2.5407,9.8187,0.36816,0,0,0,0
643.61,2.5471,9.8127,0.37077,0,0,0,0
644.61,2.5537,9.8061,0.37323,0,0,0,0
645.61,2.5608,9.7997,0.37606,0,0,0,0
646.61,2.5684,9.7937,0.37882,0,0,0,0
647.61,2.5755,9.7867,0.38134,0,0,0,0
648.61,2.5819,9.7804,0.38398,0,0,0,0
649.61,2.5887,9.7737,0.38666,0,0,0,0
650.61,2.5962,9.7667,0.38944,0,0,0,0
651.61,2.6038,9.7597,0.39222,0,0,0,0
652.61,2.6108,9.752,0.39483,0,0,0,0
653.61,2.6174,9.7447,0.39777,0,0,0,0
654.61,2.6242,9.737,0.40031,0,0,0,0
655.61,2.632,9.7294,0.40316,0,0,0,0
656.61,2.6392,9.7214,0.4059,0,0,0,0
657.61,2.646,9.7134,0.40883,0,0,0,0
658.61,2.6528,9.7057,0.4116,0,0,0,0
659.61,2.6598,9.6974,0.41429,0,0,0,0
660.61,2.6674,9.6887,0.4169,0,0,0,0
661.61,2.6751,9.6807,0.41951,0,0,0,0
662.61,2.6818,9.6714,0.4226,0,0,0,0
663.61,2.6883,9.6624,0.42572,0,0,0,0
664.61,2.6956,9.6541,0.42852,0,0,0,0
665.61,2.703,9.6444,0.43115,0,0,0,0
666.61,2.7104,9.6351,0.43407,0,0,0,0
667.61,2.717,9.6261,0.43688,0,0,0,0
668.61,2.7239,9.6161,0.43976,0,0,0,0
669.61,2.7313,9.6064,0.44277,0,0,0,0
670.61,2.7393,9.5967,0.44559,0,0,0,0
671.61,2.7465,9.586,0.44847,0,0,0,0
672.61,2.753,9.576,0.45193,0,0,0,0
673.62,2.7597,9.566,0.45519,0,0,0,0
674.61,2.7676,9.5554,0.45819,0,0,0,0
675.61,2.7752,9.5441,0.46109,0,0,0,0
676.61,2.7821,9.5327,0.46404,0,0,0,0
677.61,2.7888,9.5217,0.46732,0,0,0,0
678.61,2.7959,9.5104,0.47084,0,0,0,0
679.61,2.804,9.4989,0.47429,0,0,0,0
680.61,2.8116,9.4864,0.47748,0,0,0,0
681.61,2.8187,9.4734,0.48063,0,0,0,0
682.62,2.8254,9.4611,0.4837,0,0,0,0
683.61,2.8332,9.4481,0.48745,0,0,0,0
684.61,2.8412,9.4346,0.49065,0,0,0,0
685.61,2.8487,9.4214,0.49369,0,0,0,0
686.61,2.8557,9.4084,0.49696,0,0,0,0
687.61,2.8627,9.3937,0.5004,0,0,0,0
688.61,2.8705,9.38,0.50416,0,0,0,0
689.61,2.8787,9.3641,0.50761,0,0,0,0
690.61,2.8859,9.3496,0.5105,0,0,0,0
691.61,2.8931,9.3343,0.51381,0,0,0,0
692.61,2.9005,9.3174,0.51751,0,0,0,0
693.61,2.9083,9.3029,0.52109,0,0,0,0
694.61,2.9165,9.2871,0.5249,0,0,0,0
695.61,2.9237,9.2696,0.52797,0,0,0,0
696.61,2.9308,9.2521,0.53165,0,0,0,0
697.61,2.9384,9.2347,0.53577,0,0,0,0
698.61,2.9466,9.2171,0.53917,0,0,0,0
699.61,2.9547,9.2,0.54235,0,0,0,0
700.61,2.9618,9.1803,0.5456,0,0,0,0
701.61,2.9692,9.1601,0.55018,0,0,0,0
702.61,2.9776,9.1416,0.55462,0,0,0,0
703.61,2.9859,9.1206,0.55872,0,0,0,0
704.61,2.9935,9.099,0.56193,0,0,0,0
705.61,3.0007,9.0783,0.56526,0,0,0,0
706.61,3.0087,9.0571,0.56975,0,0,0,0
707.61,3.017,9.0347,-Inf,0,0,0,0
708.61,3.0248,9.0127,-Inf,0,0,0,0
709.61,3.0328,8.9874,-Inf,0,0,0,0
710.61,3.0406,8.9631,-Inf,0,0,0,0
711.61,3.0484,8.9396,-Inf,0,0,0,0
712.61,3.0575,8.9133,-Inf,0,0,0,0
713.61,3.0655,8.8851,-Inf,0,0,0,0
714.61,3.073,8.858,-Inf,0,0,0,0
715.61,3.081,8.8299,-Inf,0,0,0,0
716.61,3.0901,8.7991,-Inf,0,0,0,0
717.61,3.0988,8.7699,-Inf,0,0,0,0
718.61,3.107,8.7359,-Inf,0,0,0,0
719.61,3.1155,8.7006,-Inf,0,0,0,0
720.11,3.1206,8.683,-Inf,0,0,0,0