File: polyN_optimization/DP600_results/DATA/NT20_90_1.csv
Time[s],Displacement[mm],Force[kN],AxStrain_1,AxStrain_2,Thickness[mm],OuterWidth[mm],InnerWidth[mm]
0.63,0,-0.016168,0,0,1.5223,20,19.943
1.63,2e-05,-0.02071,7.4997e-05,0,0,0,0
2.63,0.000419,0.017133,0.00029796,0,0,0,0
3.63,0.000476,0.07671,0.00017299,0,0,0,0
4.63,0.000499,0.13485,6.2998e-05,0,0,0,0
5.63,0.000696,0.18056,4.3999e-05,0,0,0,0
6.63,0.000678,0.21243,0.00010199,0,0,0,0
7.63,0.00105,0.24685,5.3999e-05,0,0,0,0
8.63,0.00092,0.28314,-0.00011001,0,0,0,0
9.63,0.001224,0.32114,5.7998e-05,0,0,0,0
10.63,0.001093,0.35985,-0.00014001,0,0,0,0
11.63,0.001139,0.39671,2.1e-05,0,0,0,0
12.63,0.001362,0.43157,5e-06,0,0,0,0
13.63,0.001997,0.47028,-0.00017402,0,0,0,0
14.63,0.002022,0.50656,-1.3e-05,0,0,0,0
15.63,0.002293,0.54085,0.00030495,0,0,0,0
16.63,0.002457,0.57757,3.9999e-05,0,0,0,0
17.63,0.002395,0.613,0.00011299,0,0,0,0
18.63,0.002472,0.651,-1.3e-05,0,0,0,0
19.63,0.002403,0.69157,0.00017199,0,0,0,0
20.63,0.002589,0.73014,-4.3001e-05,0,0,0,0
21.63,0.003094,0.76757,0.00012299,0,0,0,0
22.63,0.003498,0.81028,-8.9004e-05,0,0,0,0
23.63,0.003678,0.85028,-8.3003e-05,0,0,0,0
24.63,0.004132,0.88857,-3e-06,0,0,0,0
25.63,0.004235,0.92928,0.00022198,0,0,0,0
26.63,0.004354,0.96771,0.00028496,0,0,0,0
27.63,0.004425,1.0087,0.00024497,0,0,0,0
28.63,0.004437,1.0511,0.00022797,0,0,0,0
29.63,0.004513,1.0907,0.00033394,0,0,0,0
30.63,0.004605,1.1281,0.00022198,0,0,0,0
31.63,0.004691,1.1706,5.5998e-05,0,0,0,0
32.63,0.005186,1.2113,0.00021498,0,0,0,0
33.63,0.005451,1.2509,0.00017199,0,0,0,0
34.63,0.005811,1.2919,0.00011599,0,0,0,0
35.63,0.006281,1.3314,0.00023797,0,0,0,0
36.63,0.006512,1.3717,0.00035394,0,0,0,0
37.63,0.006496,1.4116,0.00015899,0,0,0,0
38.63,0.006281,1.4523,0.00025797,0,0,0,0
39.63,0.006066,1.4909,0.00030095,0,0,0,0
40.63,0.006198,1.5316,0.00016599,0,0,0,0
41.63,0.006233,1.5723,0.00016899,0,0,0,0
42.63,0.006461,1.6126,0.00011599,0,0,0,0
43.63,0.006884,1.6529,1.3e-05,0,0,0,0
44.63,0.00731,1.6921,9.8995e-05,0,0,0,0
45.63,0.008066,1.7324,0.00024797,0,0,0,0
46.63,0.008451,1.7743,0.00015199,0,0,0,0
47.63,0.008538,1.8131,0.00039692,0,0,0,0
48.63,0.008184,1.8506,0.00041991,0,0,0,0
49.63,0.00798,1.8901,0.00046989,0,0,0,0
50.63,0.00797,1.9299,0.00042691,0,0,0,0
51.63,0.007999,1.9703,0.00033794,0,0,0,0
52.63,0.008291,2.0106,0.00041092,0,0,0,0
53.63,0.008849,2.0497,0.00027096,0,0,0,0
54.63,0.009477,2.0904,0.00041092,0,0,0,0
55.63,0.010318,2.1307,0.00037693,0,0,0,0
56.63,0.010812,2.17,0.00038693,0,0,0,0
57.63,0.011214,2.2083,0.00056584,0,0,0,0
58.63,0.010984,2.2479,0.00033794,0,0,0,0
59.63,0.010488,2.29,0.00049288,0,0,0,0
60.63,0.010222,2.3279,0.00061881,0,0,0,0
61.63,0.010346,2.3686,0.00046989,0,0,0,0
62.63,0.010395,2.4074,0.00039092,0,0,0,0
63.63,0.010916,2.446,0.00048288,0,0,0,0
64.63,0.011517,2.4863,0.00033794,0,0,0,0
65.63,0.012479,2.5266,0.00026796,0,0,0,0
66.63,0.01357,2.5649,0.00035394,0,0,0,0
67.63,0.013493,2.607,0.00042391,0,0,0,0
68.63,0.013319,2.6473,0.00059282,0,0,0,0
69.63,0.013179,2.6856,0.0006358,0,0,0,0
70.63,0.012514,2.7253,0.00065179,0,0,0,0
71.63,0.012568,2.7641,0.00054585,0,0,0,0
72.63,0.01245,2.804,0.0004569,0,0,0,0
73.63,0.01269,2.8459,0.00051287,0,0,0,0
74.63,0.013585,2.8837,0.0004499,0,0,0,0
75.63,0.014593,2.9206,0.0004569,0,0,0,0
76.63,0.015334,2.9626,0.00040092,0,0,0,0
77.63,0.01571,3.0023,0.0004499,0,0,0,0
78.63,0.015372,3.0403,0.00058883,0,0,0,0
79.63,0.015012,3.0803,0.00073773,0,0,0,0
80.63,0.014627,3.1184,0.00084364,0,0,0,0
81.63,0.014259,3.1577,0.00067477,0,0,0,0
82.63,0.014314,3.1986,0.00053586,0,0,0,0
83.63,0.014858,3.2364,0.00041991,0,0,0,0
84.63,0.015625,3.2721,0.00041092,0,0,0,0
85.63,0.016549,3.313,0.00069876,0,0,0,0
86.63,0.017426,3.3513,0.00048688,0,0,0,0
87.63,0.017801,3.3886,0.00073173,0,0,0,0
88.63,0.017991,3.4279,0.00086063,0,0,0,0
89.63,0.017704,3.4664,0.00097652,0,0,0,0
90.63,0.017517,3.5054,0.00087062,0,0,0,0
91.63,0.017031,3.5463,0.0010225,0,0,0,0
92.63,0.016926,3.5837,0.00062181,0,0,0,0
93.63,0.017183,3.6191,0.00071474,0,0,0,0
94.63,0.018113,3.6583,0.0006288,0,0,0,0
95.63,0.018881,3.6966,0.00053286,0,0,0,0
96.63,0.0199,3.7351,0.00073473,0,0,0,0
97.63,0.020533,3.7739,0.00064879,0,0,0,0
98.63,0.020853,3.8114,0.00082766,0,0,0,0
99.63,0.020858,3.8493,0.00087062,0,0,0,0
100.63,0.020861,3.8883,0.0011154,0,0,0,0
101.63,0.020578,3.9266,0.0010025,0,0,0,0
102.63,0.020102,3.9636,0.00097652,0,0,0,0
103.63,0.020528,4.0019,0.00092657,0,0,0,0
104.63,0.021231,4.0399,0.00090959,0,0,0,0
105.63,0.021869,4.0786,0.0007747,0,0,0,0
106.63,0.022625,4.1169,0.00070775,0,0,0,0
107.63,0.023125,4.154,0.00079069,0,0,0,0
108.63,0.023157,4.1913,0.0010195,0,0,0,0
109.63,0.023331,4.2286,0.0011254,0,0,0,0
110.63,0.023923,4.267,0.0010584,0,0,0,0
111.63,0.023306,4.3033,0.0010584,0,0,0,0
112.63,0.023175,4.3409,0.0010584,0,0,0,0
113.63,0.023272,4.3789,0.0010584,0,0,0,0
114.63,0.024201,4.4169,0.0008936,0,0,0,0
115.63,0.025029,4.4549,0.00095954,0,0,0,0
116.63,0.025791,4.4914,0.00092657,0,0,0,0
117.63,0.026618,4.5273,0.00099251,0,0,0,0
118.63,0.027148,4.5643,0.0012243,0,0,0,0
119.63,0.027511,4.6013,0.0015877,0,0,0,0
120.63,0.027612,4.6361,0.0016207,0,0,0,0
121.63,0.02771,4.6729,0.0015218,0,0,0,0
122.63,0.028044,4.7096,0.0014889,0,0,0,0
123.63,0.027942,4.7461,0.0013231,0,0,0,0
124.63,0.028538,4.7829,0.0013231,0,0,0,0
125.63,0.029532,4.8184,0.0011583,0,0,0,0
126.63,0.03006,4.8543,0.0012902,0,0,0,0
127.63,0.03069,4.8906,0.0012902,0,0,0,0
128.63,0.031287,4.9266,0.001423,0,0,0,0
129.63,0.031485,4.9613,0.0018193,0,0,0,0
130.63,0.031884,4.9971,0.0016866,0,0,0,0
131.63,0.032349,5.0341,0.0018193,0,0,0,0
132.63,0.032777,5.0709,0.0016536,0,0,0,0
133.63,0.033471,5.1069,0.0016207,0,0,0,0
134.63,0.034196,5.142,0.0015548,0,0,0,0
135.63,0.034859,5.178,0.0015218,0,0,0,0
136.63,0.035358,5.2146,0.0015877,0,0,0,0
137.63,0.035984,5.2481,0.0016866,0,0,0,0
138.63,0.036648,5.2834,0.0019182,0,0,0,0
139.63,0.037049,5.3203,0.0022155,0,0,0,0
140.63,0.038171,5.3566,0.0022155,0,0,0,0
141.63,0.038865,5.3876,0.0023472,0,0,0,0
142.63,0.040121,5.4229,0.0023482,0,0,0,0
143.63,0.04151,5.4574,0.0021497,0,0,0,0
144.63,0.042735,5.4924,0.0019511,0,0,0,0
145.63,0.043233,5.5281,0.0021826,0,0,0,0
146.63,0.043658,5.5617,0.0021497,0,0,0,0
147.63,0.043958,5.5931,0.0023143,0,0,0,0
148.63,0.04436,5.6296,0.0027771,0,0,0,0
149.63,0.044954,5.6636,0.0029417,0,0,0,0
150.63,0.046109,5.6959,0.0032059,0,0,0,0
151.63,0.047599,5.7296,0.0030085,0,0,0,0
152.63,0.049684,5.7617,0.0033055,0,0,0,0
153.63,0.051004,5.795,0.0030743,0,0,0,0
154.63,0.052362,5.8289,0.003173,0,0,0,0
155.63,0.053455,5.8604,0.0031401,0,0,0,0
156.63,0.054446,5.8906,0.0032387,0,0,0,0
157.63,0.055077,5.9246,0.00347,0,0,0,0
158.63,0.055937,5.9569,0.0037998,0,0,0,0
159.63,0.056961,5.9879,0.0042619,0,0,0,0
160.63,0.058647,6.0191,0.0047228,0,0,0,0
161.63,0.060534,6.0497,0.00469,0,0,0,0
162.63,0.062453,6.081,0.004459,0,0,0,0
163.63,0.063874,6.1129,0.0044919,0,0,0,0
164.63,0.065295,6.142,0.0043605,0,0,0,0
165.63,0.066888,6.172,0.0042948,0,0,0,0
166.63,0.068243,6.2049,0.004459,0,0,0,0
167.63,0.06983,6.2321,0.0046571,0,0,0,0
168.63,0.071649,6.2621,0.0049865,0,0,0,0
169.63,0.074,6.2897,0.0057107,0,0,0,0
170.63,0.075553,6.3187,0.0060725,0,0,0,0
171.63,0.076881,6.3479,0.0064343,0,0,0,0
172.63,0.078169,6.3757,0.0062375,0,0,0,0
173.63,0.079528,6.4034,0.0061719,0,0,0,0
174.63,0.080951,6.4321,0.0060069,0,0,0,0
175.63,0.082604,6.4586,0.0057763,0,0,0,0
176.63,0.085114,6.4876,0.0060725,0,0,0,0
177.63,0.087732,6.5156,0.0062375,0,0,0,0
178.63,0.09028,6.5407,0.0068624,0,0,0,0
179.63,0.092564,6.5684,0.0077171,0,0,0,0
180.63,0.094415,6.5963,0.0083074,0,0,0,0
181.63,0.096565,6.6217,0.0085702,0,0,0,0
182.63,0.098453,6.6471,0.0082747,0,0,0,0
183.63,0.10074,6.6736,0.0080455,0,0,0,0
184.63,0.10315,6.6983,0.008111,0,0,0,0
185.63,0.10577,6.7256,0.0075524,0,0,0,0
186.63,0.10818,6.7511,0.0079136,0,0,0,0
187.63,0.1099,6.7747,0.0081437,0,0,0,0
188.63,0.11179,6.7997,0.008702,0,0,0,0
189.63,0.11377,6.8256,0.0093581,0,0,0,0
190.63,0.11609,6.8497,0.009981,0,0,0,0
191.63,0.11887,6.8736,0.010538,0,0,0,0
192.63,0.12198,6.8983,0.010374,0,0,0,0
193.63,0.12485,6.9216,0.010144,0,0,0,0
194.63,0.12764,6.9469,0.0098167,0,0,0,0
195.63,0.13002,6.9706,0.0097186,0,0,0,0
196.63,0.1323,6.9927,0.0099484,0,0,0,0
197.63,0.13458,7.0164,0.0099157,0,0,0,0
198.63,0.13743,7.0403,0.010734,0,0,0,0
199.63,0.14074,7.0631,0.011193,0,0,0,0
200.63,0.14372,7.0856,0.012011,0,0,0,0
201.63,0.14616,7.1089,0.012371,0,0,0,0
202.63,0.14851,7.1306,0.012698,0,0,0,0
203.63,0.15056,7.1546,0.012567,0,0,0,0
204.63,0.15294,7.1769,0.012469,0,0,0,0
205.63,0.1553,7.1974,0.011978,0,0,0,0
206.63,0.15851,7.2194,0.012142,0,0,0,0
207.63,0.16178,7.2427,0.012305,0,0,0,0
208.63,0.16476,7.2641,0.012763,0,0,0,0
209.63,0.16748,7.2849,0.013482,0,0,0,0
210.63,0.16989,7.3066,0.014037,0,0,0,0
211.63,0.17274,7.3273,0.014592,0,0,0,0
212.63,0.17598,7.3506,0.014787,0,0,0,0
213.63,0.17929,7.3716,0.01482,0,0,0,0
214.63,0.18303,7.3909,0.014722,0,0,0,0
215.63,0.18614,7.4121,0.014461,0,0,0,0
216.63,0.18932,7.434,0.014298,0,0,0,0
217.63,0.19187,7.4544,0.014461,0,0,0,0
218.63,0.19435,7.4746,0.015147,0,0,0,0
219.63,0.19746,7.4949,0.015668,0,0,0,0
220.63,0.20111,7.515,0.016222,0,0,0,0
221.63,0.20452,7.5366,0.01697,0,0,0,0
222.63,0.2073,7.5566,0.017263,0,0,0,0
223.63,0.21024,7.5751,0.017263,0,0,0,0
224.63,0.21286,7.5947,0.017263,0,0,0,0
225.63,0.21583,7.6153,0.017004,0,0,0,0
226.63,0.21888,7.6349,0.017198,0,0,0,0
227.63,0.22272,7.6529,0.017101,0,0,0,0
228.63,0.22682,7.6726,0.017588,0,0,0,0
229.63,0.22997,7.6907,0.018109,0,0,0,0
230.63,0.23328,7.7103,0.018694,0,0,0,0
231.63,0.23612,7.7293,0.019344,0,0,0,0
232.63,0.23966,7.7464,0.019441,0,0,0,0
233.63,0.2432,7.7654,0.019701,0,0,0,0
234.63,0.24748,7.7847,0.019668,0,0,0,0
235.63,0.25121,7.8024,0.019571,0,0,0,0
236.63,0.25435,7.8201,0.019604,0,0,0,0
237.63,0.25757,7.8383,0.019831,0,0,0,0
238.63,0.26055,7.8554,0.020025,0,0,0,0
239.63,0.26359,7.8746,0.020577,0,0,0,0
240.63,0.26749,7.8919,0.021064,0,0,0,0
241.63,0.27156,7.9081,0.021549,0,0,0,0
242.63,0.27504,7.9261,0.021873,0,0,0,0
243.63,0.27782,7.9444,0.022003,0,0,0,0
244.63,0.28093,7.9611,0.022132,0,0,0,0
245.63,0.28394,7.9783,0.022488,0,0,0,0
246.63,0.28745,7.9953,0.022554,0,0,0,0
247.63,0.29129,8.0114,0.022651,0,0,0,0
248.63,0.29562,8.0293,0.022974,0,0,0,0
249.63,0.29929,8.0463,0.023168,0,0,0,0
250.63,0.30247,8.0619,0.02375,0,0,0,0
251.63,0.30575,8.0789,0.024008,0,0,0,0
252.63,0.30926,8.0957,0.02459,0,0,0,0
253.63,0.31326,8.1119,0.02472,0,0,0,0
254.63,0.31796,8.1279,0.024913,0,0,0,0
255.63,0.32193,8.1446,0.025011,0,0,0,0
256.63,0.32554,8.1597,0.025301,0,0,0,0
257.63,0.32901,8.1766,0.025592,0,0,0,0
258.63,0.33252,8.1926,0.026139,0,0,0,0
259.63,0.33636,8.2074,0.026237,0,0,0,0
260.63,0.34066,8.2234,0.026752,0,0,0,0
261.63,0.34526,8.2399,0.026914,0,0,0,0
262.63,0.34884,8.2549,0.0273,0,0,0,0
263.63,0.35195,8.2706,0.027396,0,0,0,0
264.63,0.35552,8.2856,0.027848,0,0,0,0
265.63,0.359,8.3001,0.028169,0,0,0,0
266.63,0.36323,8.3166,0.028459,0,0,0,0
267.63,0.36751,8.3316,0.028717,0,0,0,0
268.63,0.37151,8.3451,0.029006,0,0,0,0
269.63,0.37492,8.3609,0.029585,0,0,0,0
270.63,0.37833,8.376,0.029745,0,0,0,0
271.63,0.38218,8.3909,0.030066,0,0,0,0
272.63,0.38634,8.4046,0.03026,0,0,0,0
273.63,0.39121,8.4193,0.030613,0,0,0,0
274.63,0.39532,8.4331,0.030677,0,0,0,0
275.63,0.39925,8.4476,0.031095,0,0,0,0
276.63,0.40293,8.4623,0.031382,0,0,0,0
277.63,0.40674,8.4759,0.031992,0,0,0,0
278.63,0.41101,8.4906,0.032281,0,0,0,0
279.63,0.41604,8.5047,0.032441,0,0,0,0
280.63,0.42051,8.5186,0.032857,0,0,0,0
281.63,0.42448,8.5316,0.03337,0,0,0,0
282.63,0.42835,8.5456,0.033562,0,0,0,0
283.63,0.43223,8.5584,0.033754,0,0,0,0
284.63,0.43653,8.5726,0.03401,0,0,0,0
285.63,0.44146,8.5866,0.034298,0,0,0,0
286.63,0.44589,8.5991,0.03481,0,0,0,0
287.63,0.44997,8.6124,0.035098,0,0,0,0
288.63,0.45391,8.6259,0.035545,0,0,0,0
289.63,0.45765,8.6383,0.035737,0,0,0,0
290.63,0.46188,8.6516,0.036088,0,0,0,0
291.63,0.46681,8.6653,0.036471,0,0,0,0
292.63,0.47145,8.6783,0.036726,0,0,0,0
293.63,0.47489,8.6913,0.03695,0,0,0,0
294.63,0.4788,8.7043,0.037301,0,0,0,0
295.63,0.48267,8.7164,0.037524,0,0,0,0
296.63,0.4872,8.7299,0.037811,0,0,0,0
297.63,0.49197,8.7419,0.03813,0,0,0,0
298.63,0.4968,8.7536,0.038703,0,0,0,0
299.63,0.501,8.7656,0.039053,0,0,0,0
300.63,0.50498,8.7783,0.039594,0,0,0,0
301.63,0.50888,8.7906,0.039912,0,0,0,0
302.63,0.51305,8.8026,0.040135,0,0,0,0
303.63,0.51851,8.8149,0.040389,0,0,0,0
304.63,0.52334,8.8269,0.041025,0,0,0,0
305.63,0.52785,8.8381,0.041057,0,0,0,0
306.63,0.53182,8.8499,0.041502,0,0,0,0
307.63,0.53599,8.8619,0.041788,0,0,0,0
308.63,0.54032,8.8737,0.042137,0,0,0,0
309.63,0.54568,8.8849,0.04258,0,0,0,0
310.63,0.55055,8.8961,0.042993,0,0,0,0
311.63,0.55498,8.9074,0.043342,0,0,0,0
312.63,0.55905,8.9187,0.043944,0,0,0,0
313.63,0.56339,8.9304,0.044356,0,0,0,0
314.63,0.56779,8.9417,0.044672,0,0,0,0
315.63,0.57315,8.9527,0.045116,0,0,0,0
316.63,0.57795,8.9634,0.045432,0,0,0,0
317.63,0.58218,8.9741,0.045969,0,0,0,0
318.63,0.58639,8.9851,0.046128,0,0,0,0
319.63,0.5903,8.9961,0.046538,0,0,0,0
320.63,0.59486,9.0067,0.046854,0,0,0,0
321.63,0.60002,9.0177,0.047423,0,0,0,0
322.63,0.60482,9.0287,0.047612,0,0,0,0
323.63,0.60962,9.0394,0.048117,0,0,0,0
324.63,0.61343,9.0497,0.048496,0,0,0,0
325.63,0.6174,9.0604,0.048937,0,0,0,0
326.63,0.622,9.0709,0.049379,0,0,0,0
327.63,0.62762,9.0811,0.049631,0,0,0,0
328.63,0.63233,9.0919,0.050071,0,0,0,0
329.63,0.63666,9.1014,0.050449,0,0,0,0
330.63,0.6409,9.1117,0.050827,0,0,0,0
331.63,0.64527,9.1224,0.051204,0,0,0,0
332.63,0.65056,9.1324,0.05177,0,0,0,0
333.63,0.65582,9.1427,0.05221,0,0,0,0
334.63,0.66079,9.1524,0.052618,0,0,0,0
335.63,0.66516,9.1619,0.053089,0,0,0,0
336.63,0.66969,9.1721,0.053341,0,0,0,0
337.63,0.67463,9.1821,0.053717,0,0,0,0
338.63,0.67979,9.1917,0.054157,0,0,0,0
339.63,0.68532,9.2017,0.054626,0,0,0,0
340.63,0.69029,9.211,0.05494,0,0,0,0
341.63,0.69449,9.221,0.055535,0,0,0,0
342.63,0.69903,9.2307,0.055974,0,0,0,0
343.63,0.70386,9.2394,0.056474,0,0,0,0
344.63,0.70942,9.2481,0.056724,0,0,0,0
345.63,0.71468,9.2574,0.057412,0,0,0,0
346.63,0.71955,9.2671,0.057693,0,0,0,0
347.63,0.72415,9.2761,0.05785,0,0,0,0
348.63,0.72862,9.2847,0.058381,0,0,0,0
349.63,0.73355,9.2941,0.05888,0,0,0,0
350.63,0.73915,9.3027,0.059317,0,0,0,0
351.63,0.74451,9.3117,0.059754,0,0,0,0
352.63,0.74914,9.3204,0.06044,0,0,0,0
353.63,0.75345,9.3294,0.060502,0,0,0,0
354.63,0.75815,9.3389,0.061001,0,0,0,0
355.63,0.76344,9.3471,0.061312,0,0,0,0
356.63,0.76857,9.3557,0.06181,0,0,0,0
357.63,0.77404,9.3647,0.062246,0,0,0,0
358.63,0.7788,9.373,0.062712,0,0,0,0
359.63,0.78307,9.381,0.063148,0,0,0,0
360.63,0.78768,9.3897,0.063707,0,0,0,0
361.63,0.79287,9.3977,0.064048,0,0,0,0
362.63,0.79866,9.4061,0.064607,0,0,0,0
363.63,0.80363,9.4149,0.065197,0,0,0,0
364.63,0.80806,9.4231,0.065661,0,0,0,0
365.63,0.8126,9.431,0.066034,0,0,0,0
366.63,0.81776,9.4394,0.066313,0,0,0,0
367.63,0.82329,9.447,0.066839,0,0,0,0
368.63,0.82875,9.455,0.067087,0,0,0,0
369.63,0.83369,9.4627,0.06752,0,0,0,0
370.63,0.83812,9.4704,0.067953,0,0,0,0
371.63,0.84272,9.4791,0.068695,0,0,0,0
372.63,0.84822,9.487,0.069158,0,0,0,0
373.63,0.85378,9.4951,0.069869,0,0,0,0
374.63,0.85927,9.5021,0.070332,0,0,0,0
375.63,0.86437,9.5094,0.070795,0,0,0,0
376.63,0.86897,9.5174,0.07135,0,0,0,0
377.63,0.87397,9.5247,0.071658,0,0,0,0
378.63,0.87959,9.532,0.071842,0,0,0,0
379.63,0.88525,9.5404,0.072213,0,0,0,0
380.63,0.89048,9.5473,0.07289,0,0,0,0
381.63,0.89538,9.5547,0.073352,0,0,0,0
382.63,0.90015,9.5614,0.074028,0,0,0,0
383.63,0.90561,9.5684,0.074643,0,0,0,0
384.63,0.91134,9.5764,0.075226,0,0,0,0
385.63,0.917,9.5834,0.07584,0,0,0,0
386.63,0.92212,9.5897,0.076208,0,0,0,0
387.63,0.92692,9.5967,0.076638,0,0,0,0
388.63,0.93176,9.6041,0.076883,0,0,0,0
389.63,0.93755,9.6114,0.077342,0,0,0,0
390.63,0.94331,9.6187,0.077833,0,0,0,0
391.63,0.949,9.6253,0.078537,0,0,0,0
392.63,0.95377,9.6316,0.079087,0,0,0,0
393.63,0.95847,9.6376,0.079302,0,0,0,0
394.63,0.96376,9.645,0.079883,0,0,0,0
395.63,0.96988,9.6516,0.080585,0,0,0,0
396.63,0.97574,9.658,0.081104,0,0,0,0
397.63,0.98094,9.6654,0.081684,0,0,0,0
398.63,0.98561,9.672,0.082081,0,0,0,0
399.63,0.99084,9.678,0.082752,0,0,0,0
400.63,0.9963,9.6843,0.0833,0,0,0,0
401.63,1.0024,9.691,0.083696,0,0,0,0
402.63,1.0077,9.6969,0.084244,0,0,0,0
403.63,1.0129,9.7036,0.084518,0,0,0,0
404.63,1.0176,9.7096,0.085156,0,0,0,0
405.63,1.0233,9.7156,0.085643,0,0,0,0
406.63,1.0289,9.722,0.08619,0,0,0,0
407.63,1.035,9.728,0.086978,0,0,0,0
408.63,1.0403,9.7343,0.087707,0,0,0,0
409.63,1.0451,9.7407,0.08804,0,0,0,0
410.63,1.0501,9.746,0.088828,0,0,0,0
411.63,1.0556,9.7523,0.089494,0,0,0,0
412.63,1.0618,9.7583,0.089858,0,0,0,0
413.63,1.0674,9.7636,0.090493,0,0,0,0
414.63,1.0724,9.7696,0.090584,0,0,0,0
415.63,1.0776,9.7756,0.091158,0,0,0,0
416.63,1.0829,9.7813,0.091852,0,0,0,0
417.63,1.0889,9.7863,0.092396,0,0,0,0
418.63,1.0947,9.792,0.09306,0,0,0,0
419.63,1.1,9.7976,0.093663,0,0,0,0
420.63,1.105,9.8033,0.094356,0,0,0,0
421.63,1.1103,9.809,0.095049,0,0,0,0
422.63,1.1159,9.8143,0.09553,0,0,0,0
423.63,1.1222,9.8189,0.096252,0,0,0,0
424.63,1.1279,9.825,0.096734,0,0,0,0
425.63,1.1331,9.8303,0.097244,0,0,0,0
426.63,1.138,9.8353,0.097725,0,0,0,0
427.63,1.1437,9.8403,0.098385,0,0,0,0
428.63,1.1498,9.8453,0.098925,0,0,0,0
429.63,1.1558,9.8503,0.099674,0,0,0,0
430.63,1.1612,9.8557,0.099974,0,0,0,0
431.63,1.1662,9.8603,0.10063,0,0,0,0
432.63,1.1715,9.8657,0.10129,0,0,0,0
433.63,1.1776,9.8704,0.10189,0,0,0,0
434.63,1.1835,9.8747,0.10264,0,0,0,0
435.63,1.1893,9.8797,0.10332,0,0,0,0
436.63,1.1944,9.8847,0.10389,0,0,0,0
437.63,1.1996,9.8897,0.10437,0,0,0,0
438.63,1.2054,9.8947,0.10508,0,0,0,0
439.63,1.2119,9.899,0.10559,0,0,0,0
440.63,1.2177,9.9037,0.10598,0,0,0,0
441.63,1.2232,9.9084,0.1066,0,0,0,0
442.63,1.2286,9.9126,0.10738,0,0,0,0
443.63,1.2342,9.9176,0.10803,0,0,0,0
444.63,1.2406,9.922,0.10904,0,0,0,0
445.63,1.2466,9.9264,0.10966,0,0,0,0
446.63,1.2524,9.9307,0.11034,0,0,0,0
447.63,1.2577,9.935,0.111,0,0,0,0
448.63,1.2631,9.939,0.1115,0,0,0,0
449.63,1.2692,9.9433,0.11233,0,0,0,0
450.63,1.2758,9.948,0.11265,0,0,0,0
451.63,1.2817,9.9524,0.1133,0,0,0,0
452.63,1.2871,9.956,0.11381,0,0,0,0
453.63,1.2923,9.9596,0.11457,0,0,0,0
454.63,1.2979,9.964,0.11531,0,0,0,0
455.63,1.3045,9.968,0.11629,0,0,0,0
456.63,1.3108,9.972,0.11684,0,0,0,0
457.63,1.3162,9.976,0.11761,0,0,0,0
458.63,1.3215,9.98,0.11826,0,0,0,0
459.63,1.3274,9.984,0.11882,0,0,0,0
460.63,1.3337,9.988,0.11964,0,0,0,0
461.63,1.3398,9.9916,0.12034,0,0,0,0
462.63,1.3457,9.995,0.12102,0,0,0,0
463.63,1.3513,9.998,0.12172,0,0,0,0
464.63,1.3565,10.002,0.12231,0,0,0,0
465.63,1.3627,10.006,0.12313,0,0,0,0
466.63,1.3691,10.009,0.1236,0,0,0,0
467.63,1.3752,10.013,0.1243,0,0,0,0
468.63,1.3806,10.016,0.125,0,0,0,0
469.63,1.3862,10.019,0.1257,0,0,0,0
470.63,1.392,10.023,0.12649,0,0,0,0
471.63,1.3983,10.026,0.12742,0,0,0,0
472.63,1.4047,10.03,0.12827,0,0,0,0
473.63,1.4102,10.033,0.12888,0,0,0,0
474.63,1.4156,10.036,0.12969,0,0,0,0
475.63,1.4214,10.039,0.13051,0,0,0,0
476.63,1.4279,10.043,0.13115,0,0,0,0
477.63,1.4345,10.046,0.13176,0,0,0,0
478.63,1.4403,10.049,0.13265,0,0,0,0
479.63,1.4455,10.052,0.13344,0,0,0,0
480.63,1.4514,10.055,0.1341,0,0,0,0
481.63,1.4577,10.058,0.13486,0,0,0,0
482.63,1.4639,10.06,0.13564,0,0,0,0
483.63,1.4702,10.064,0.13621,0,0,0,0
484.63,1.4759,10.067,0.1372,0,0,0,0
485.63,1.4814,10.069,0.138,0,0,0,0
486.63,1.4874,10.072,0.13887,0,0,0,0
487.63,1.4943,10.075,0.13982,0,0,0,0
488.63,1.5002,10.077,0.14071,0,0,0,0
489.63,1.506,10.08,0.14134,0,0,0,0
490.63,1.5117,10.082,0.14249,0,0,0,0
491.63,1.5175,10.085,0.14307,0,0,0,0
492.63,1.5244,10.087,0.14413,0,0,0,0
493.63,1.5308,10.089,0.14484,0,0,0,0
494.63,1.5363,10.092,0.14567,0,0,0,0
495.63,1.5418,10.094,0.14659,0,0,0,0
496.63,1.5477,10.096,0.14739,0,0,0,0
497.63,1.5541,10.099,0.14816,0,0,0,0
498.63,1.561,10.101,0.14904,0,0,0,0
499.63,1.5668,10.103,0.14987,0,0,0,0
500.63,1.5723,10.106,0.15078,0,0,0,0
501.63,1.5782,10.108,0.15169,0,0,0,0
502.63,1.5848,10.11,0.15263,0,0,0,0
503.63,1.5914,10.112,0.15326,0,0,0,0
504.63,1.5976,10.114,0.15402,0,0,0,0
505.63,1.603,10.115,0.15493,0,0,0,0
506.63,1.6088,10.117,0.15575,0,0,0,0
507.63,1.6151,10.119,0.15646,0,0,0,0
508.63,1.6219,10.121,0.15757,0,0,0,0
509.63,1.6281,10.123,0.15858,0,0,0,0
510.63,1.6338,10.125,0.15957,0,0,0,0
511.63,1.6399,10.127,0.16056,0,0,0,0
512.63,1.6459,10.128,0.16157,0,0,0,0
513.63,1.6527,10.13,0.16253,0,0,0,0
514.63,1.6591,10.132,0.16357,0,0,0,0
515.63,1.665,10.133,0.16444,0,0,0,0
516.63,1.6704,10.134,0.16523,0,0,0,0
517.63,1.6766,10.136,0.16612,0,0,0,0
518.63,1.6834,10.138,0.16699,0,0,0,0
519.63,1.6901,10.139,0.16789,0,0,0,0
520.63,1.6963,10.141,0.16862,0,0,0,0
521.63,1.7022,10.142,0.16954,0,0,0,0
522.63,1.7082,10.143,0.17057,0,0,0,0
523.63,1.7151,10.145,0.17174,0,0,0,0
524.63,1.7219,10.146,0.17294,0,0,0,0
525.63,1.7282,10.147,0.17411,0,0,0,0
526.63,1.7339,10.148,0.17525,0,0,0,0
527.63,1.7401,10.149,0.17606,0,0,0,0
528.63,1.7471,10.15,0.17653,0,0,0,0
529.63,1.7539,10.152,0.17744,0,0,0,0
530.63,1.7601,10.152,0.17825,0,0,0,0
531.63,1.7658,10.153,0.17897,0,0,0,0
532.63,1.772,10.154,0.18052,0,0,0,0
533.63,1.779,10.154,0.18184,0,0,0,0
534.63,1.7856,10.155,0.18317,0,0,0,0
535.63,1.7924,10.156,0.18432,0,0,0,0
536.63,1.7981,10.157,0.18548,0,0,0,0
537.63,1.8042,10.157,0.18644,0,0,0,0
538.63,1.8111,10.157,0.18735,0,0,0,0
539.63,1.8179,10.157,0.18842,0,0,0,0
540.63,1.8242,10.158,0.1896,0,0,0,0
541.63,1.8303,10.159,0.1908,0,0,0,0
542.63,1.8362,10.159,0.19197,0,0,0,0
543.63,1.8431,10.16,0.19299,0,0,0,0
544.63,1.8501,10.16,0.19419,0,0,0,0
545.63,1.8566,10.16,0.19519,0,0,0,0
546.63,1.8627,10.161,0.19604,0,0,0,0
547.63,1.8688,10.16,0.19742,0,0,0,0
548.63,1.8755,10.161,0.19857,0,0,0,0
549.63,1.8824,10.161,0.1997,0,0,0,0
550.63,1.8889,10.161,0.20087,0,0,0,0
551.63,1.8951,10.161,0.20203,0,0,0,0
552.63,1.9012,10.161,0.2032,0,0,0,0
553.63,1.9078,10.161,0.20452,0,0,0,0
554.63,1.9152,10.161,0.2056,0,0,0,0
555.63,1.9217,10.16,0.20676,0,0,0,0
556.63,1.9278,10.16,0.20797,0,0,0,0
557.63,1.934,10.16,0.20926,0,0,0,0
558.63,1.941,10.159,0.21057,0,0,0,0
559.63,1.9481,10.159,0.21175,0,0,0,0
560.63,1.9546,10.159,0.21282,0,0,0,0
561.63,1.9605,10.158,0.21424,0,0,0,0
562.63,1.9669,10.158,0.2156,0,0,0,0
563.63,1.9737,10.157,0.21688,0,0,0,0
564.63,1.9807,10.157,0.21808,0,0,0,0
565.63,1.9875,10.156,0.2193,0,0,0,0
566.63,1.9937,10.155,0.22084,0,0,0,0
567.63,2,10.154,0.22214,0,0,0,0
568.63,2.0068,10.153,0.22371,0,0,0,0
569.63,2.0141,10.153,0.22516,0,0,0,0
570.63,2.0208,10.152,0.2268,0,0,0,0
571.63,2.0269,10.151,0.22812,0,0,0,0
572.63,2.0335,10.15,0.22949,0,0,0,0
573.63,2.0401,10.148,0.23083,0,0,0,0
574.63,2.0474,10.147,0.23206,0,0,0,0
575.63,2.054,10.145,0.23358,0,0,0,0
576.63,2.0601,10.144,0.23502,0,0,0,0
577.63,2.0664,10.143,0.23665,0,0,0,0
578.63,2.0733,10.141,0.2379,0,0,0,0
579.63,2.0805,10.14,0.23923,0,0,0,0
580.63,2.0873,10.139,0.24024,0,0,0,0
581.63,2.0934,10.137,0.24209,0,0,0,0
582.63,2.0998,10.136,0.24352,0,0,0,0
583.63,2.1069,10.134,0.245,0,0,0,0
584.63,2.1141,10.133,0.2466,0,0,0,0
585.63,2.1208,10.131,0.2479,0,0,0,0
586.63,2.1269,10.129,0.24911,0,0,0,0
587.63,2.1333,10.127,0.25079,0,0,0,0
588.63,2.1403,10.125,0.25259,0,0,0,0
589.63,2.1477,10.123,0.25428,0,0,0,0
590.63,2.1543,10.121,0.25585,0,0,0,0
591.63,2.1605,10.119,0.25777,0,0,0,0
592.63,2.1669,10.117,0.25933,0,0,0,0
593.63,2.1743,10.115,0.26076,0,0,0,0
594.63,2.1815,10.113,0.26216,0,0,0,0
595.63,2.1882,10.111,0.26402,0,0,0,0
596.63,2.1947,10.108,0.2659,0,0,0,0
597.63,2.2013,10.106,0.26747,0,0,0,0
598.63,2.2085,10.103,0.26863,0,0,0,0
599.62,2.2158,10.1,0.2703,0,0,0,0
600.63,2.2225,10.097,0.27189,0,0,0,0
601.62,2.2285,10.095,0.27418,0,0,0,0
602.63,2.2351,10.092,0.27615,0,0,0,0
603.63,2.2426,10.089,0.278,0,0,0,0
604.63,2.2499,10.087,0.27941,0,0,0,0
605.63,2.2566,10.084,0.28116,0,0,0,0
606.63,2.2629,10.08,0.28278,0,0,0,0
607.63,2.2694,10.077,0.28512,0,0,0,0
608.63,2.277,10.074,0.28694,0,0,0,0
609.63,2.2843,10.07,0.2889,0,0,0,0
610.62,2.2908,10.067,0.29073,0,0,0,0
611.62,2.297,10.064,0.29241,0,0,0,0
612.62,2.3039,10.061,0.29422,0,0,0,0
613.62,2.3111,10.057,0.29619,0,0,0,0
614.63,2.3184,10.054,0.29845,0,0,0,0
615.63,2.325,10.05,0.30014,0,0,0,0
616.63,2.3314,10.046,0.30215,0,0,0,0
617.63,2.3381,10.042,0.30369,0,0,0,0
618.62,2.3457,10.038,0.30565,0,0,0,0
619.62,2.3527,10.034,0.30784,0,0,0,0
620.62,2.3591,10.03,0.31005,0,0,0,0
621.62,2.3655,10.026,0.31209,0,0,0,0
622.62,2.3724,10.022,0.31417,0,0,0,0
623.62,2.3799,10.018,0.31588,0,0,0,0
624.62,2.3869,10.014,0.31791,0,0,0,0
625.63,2.3935,10.009,0.32029,0,0,0,0
626.62,2.3997,10.005,0.32269,0,0,0,0
627.63,2.4068,10,0.32521,0,0,0,0
628.63,2.4144,9.996,0.32698,0,0,0,0
629.63,2.4212,9.9913,0.32936,0,0,0,0
630.62,2.4279,9.9863,0.33148,0,0,0,0
631.63,2.4342,9.982,0.33357,0,0,0,0
632.62,2.4416,9.977,0.33596,0,0,0,0
633.62,2.4491,9.9713,0.33787,0,0,0,0
634.62,2.4559,9.9663,0.33962,0,0,0,0
635.62,2.4625,9.961,0.34181,0,0,0,0
636.62,2.4689,9.956,0.34416,0,0,0,0
637.63,2.4764,9.951,0.34653,0,0,0,0
638.62,2.4837,9.9454,0.34886,0,0,0,0
639.63,2.4908,9.9397,0.3511,0,0,0,0
640.63,2.4971,9.9344,0.35329,0,0,0,0
641.62,2.5042,9.9287,0.35557,0,0,0,0
642.62,2.5115,9.9227,0.35763,0,0,0,0
643.62,2.5192,9.9161,0.3601,0,0,0,0
644.62,2.5259,9.9097,0.36232,0,0,0,0
645.62,2.5323,9.9037,0.36478,0,0,0,0
646.62,2.5393,9.8977,0.36703,0,0,0,0
647.62,2.5468,9.8917,0.36969,0,0,0,0
648.62,2.5542,9.8847,0.37239,0,0,0,0
649.62,2.561,9.8781,0.37466,0,0,0,0
650.62,2.5676,9.8714,0.37689,0,0,0,0
651.62,2.5742,9.8647,0.37873,0,0,0,0
652.63,2.5822,9.858,0.38149,0,0,0,0
653.62,2.5894,9.8507,0.38389,0,0,0,0
654.62,2.5964,9.843,0.3863,0,0,0,0
655.62,2.6031,9.836,0.38955,0,0,0,0
656.62,2.6101,9.8289,0.39222,0,0,0,0
657.62,2.618,9.8211,0.39501,0,0,0,0
658.62,2.625,9.8134,0.39795,0,0,0,0
659.62,2.6318,9.8057,0.40039,0,0,0,0
660.62,2.6382,9.798,0.40279,0,0,0,0
661.62,2.6458,9.7897,0.40584,0,0,0,0
662.62,2.6534,9.781,0.40855,0,0,0,0
663.62,2.6609,9.773,0.41147,0,0,0,0
664.62,2.6673,9.764,0.41475,0,0,0,0
665.62,2.6739,9.7554,0.41722,0,0,0,0
666.62,2.6815,9.7471,0.42025,0,0,0,0
667.62,2.6894,9.7379,0.42329,0,0,0,0
668.62,2.6965,9.7284,0.42602,0,0,0,0
669.62,2.7029,9.7197,0.42891,0,0,0,0
670.62,2.7098,9.71,0.43139,0,0,0,0
671.62,2.7176,9.7004,0.43442,0,0,0,0
672.62,2.7257,9.6904,0.43722,0,0,0,0
673.62,2.7326,9.6804,0.44036,0,0,0,0
674.62,2.7393,9.6709,0.4433,0,0,0,0
675.62,2.7466,9.6601,0.44599,0,0,0,0
676.62,2.7543,9.6487,0.44953,0,0,0,0
677.62,2.7615,9.6387,0.45269,0,0,0,0
678.62,2.7688,9.6271,0.45601,0,0,0,0
679.62,2.7755,9.6156,0.45924,0,0,0,0
680.62,2.783,9.6033,0.46216,0,0,0,0
681.62,2.7912,9.5926,0.46564,0,0,0,0
682.62,2.7982,9.5804,0.46838,0,0,0,0
683.62,2.8052,9.5686,0.4714,0,0,0,0
684.62,2.8121,9.5561,0.4747,0,0,0,0
685.62,2.8198,9.5439,0.4776,0,0,0,0
686.62,2.8278,9.5304,0.4806,0,0,0,0
687.62,2.8352,9.5177,0.4835,0,0,0,0
688.62,2.8419,9.504,0.48639,0,0,0,0
689.62,2.8492,9.4904,0.48991,0,0,0,0
690.62,2.8572,9.4773,0.49299,0,0,0,0
691.62,2.8646,9.4617,0.49602,0,0,0,0
692.62,2.872,9.4476,0.49904,0,0,0,0
693.62,2.8784,9.4329,0.50265,0,0,0,0
694.62,2.886,9.4179,0.50625,0,0,0,0
695.62,2.8939,9.4024,0.51001,0,0,0,0
696.62,2.9015,9.3871,0.51353,0,0,0,0
697.62,2.9087,9.3704,0.51691,0,0,0,0
698.62,2.9156,9.3541,0.52045,0,0,0,0
699.62,2.9235,9.338,0.52379,0,0,0,0
700.62,2.9316,9.3197,0.52728,0,0,0,0
701.62,2.9393,9.303,0.53065,0,0,0,0
702.62,2.9461,9.2846,0.53392,0,0,0,0
703.62,2.9534,9.2656,0.53679,0,0,0,0
704.62,2.9614,9.2459,0.53963,0,0,0,0
705.62,2.97,9.2264,0.54289,0,0,0,0
706.62,2.9774,9.2064,0.54652,0,0,0,0
707.62,2.9846,9.1863,0.55059,0,0,0,0
708.62,2.9923,9.1653,0.55442,0,0,0,0
709.62,3.0009,9.1431,0.55784,0,0,0,0
710.62,3.0092,9.1187,0.56219,0,0,0,0
711.62,3.0228,9.0843,0.56932,0,0,0,0