File: polyN_optimization/DP600_results/DATA/NT20_45_3.csv
Time[s],Displacement[mm],Force[kN],AxStrain_1,AxStrain_2,Thickness[mm],OuterWidth[mm],InnerWidth[mm]
0.6,0,-0.018551,0,0,1.526,20,10
1.6,0.00031,-0.020133,8.1997e-05,0,0,0,0
2.6,0.000463,0.019013,-7.0002e-05,0,0,0,0
3.6,0.000397,0.087432,0.00010899,0,0,0,0
4.6,0.000684,0.14343,-5.0001e-05,0,0,0,0
5.6,0.00078,0.19186,6.3998e-05,0,0,0,0
6.6,0.000807,0.23657,9.6995e-05,0,0,0,0
7.6,0.000904,0.27044,0.00013099,0,0,0,0
8.6,0.001101,0.30329,7.8997e-05,0,0,0,0
9.6,0.001172,0.33915,8e-06,0,0,0,0
10.6,0.001294,0.37615,-0.00018702,0,0,0,0
11.6,0.001498,0.41144,-0.00012401,0,0,0,0
12.6,0.001709,0.45115,-0.00019202,0,0,0,0
13.6,0.00199,0.48915,-1.1e-05,0,0,0,0
14.6,0.001975,0.52329,0.00012199,0,0,0,0
15.6,0.001943,0.56029,-2.6e-05,0,0,0,0
16.6,0.002064,0.59901,2.5e-05,0,0,0,0
17.6,0.00204,0.63629,-1.3e-05,0,0,0,0
18.6,0.002238,0.67415,9.7995e-05,0,0,0,0
19.6,0.002619,0.71415,-0.00014701,0,0,0,0
20.6,0.002459,0.75272,-6e-06,0,0,0,0
21.6,0.002878,0.79543,8.6996e-05,0,0,0,0
22.6,0.002893,0.83643,5.1999e-05,0,0,0,0
23.6,0.003436,0.87458,1.1e-05,0,0,0,0
24.6,0.003743,0.91615,-5.8002e-05,0,0,0,0
25.6,0.003893,0.95972,0.00019598,0,0,0,0
26.6,0.003857,0.99958,0.00019398,0,0,0,0
27.6,0.003926,1.0397,0.00022897,0,0,0,0
28.6,0.004079,1.0814,0.00018798,0,0,0,0
29.6,0.00388,1.121,0.00016899,0,0,0,0
30.6,0.004043,1.1644,0.00035394,0,0,0,0
31.6,0.004132,1.2064,0.00029296,0,0,0,0
32.6,0.004518,1.2451,8.9996e-05,0,0,0,0
33.6,0.004866,1.2869,0.00022597,0,0,0,0
34.6,0.005518,1.3293,0.00021998,0,0,0,0
35.6,0.005938,1.3699,0.00021398,0,0,0,0
36.6,0.005815,1.4107,0.00032395,0,0,0,0
37.6,0.005774,1.4524,0.00030495,0,0,0,0
38.6,0.005669,1.4899,0.00021898,0,0,0,0
39.6,0.005579,1.5324,0.0004359,0,0,0,0
40.6,0.005535,1.5751,0.00025097,0,0,0,0
41.6,0.005697,1.6147,0.0004559,0,0,0,0
42.6,0.006087,1.6543,0.00040792,0,0,0,0
43.6,0.006544,1.6956,0.00036793,0,0,0,0
44.6,0.007052,1.7354,0.00038193,0,0,0,0
45.6,0.007564,1.7776,0.00040892,0,0,0,0
46.6,0.008099,1.8174,0.00042291,0,0,0,0
47.6,0.007961,1.8573,0.00038393,0,0,0,0
48.6,0.007523,1.9001,0.00066178,0,0,0,0
49.6,0.007095,1.9414,0.00040092,0,0,0,0
50.6,0.007363,1.9791,0.00057583,0,0,0,0
51.6,0.00722,2.0203,0.00047289,0,0,0,0
52.6,0.007738,2.0623,0.00051687,0,0,0,0
53.6,0.008008,2.1011,0.00028596,0,0,0,0
54.6,0.008917,2.1426,0.00026397,0,0,0,0
55.6,0.009548,2.1814,0.00046389,0,0,0,0
56.6,0.009949,2.221,0.00061281,0,0,0,0
57.6,0.010007,2.2641,0.00053186,0,0,0,0
58.6,0.009882,2.3054,0.00067477,0,0,0,0
59.6,0.009468,2.3431,0.00046989,0,0,0,0
60.6,0.009235,2.3846,0.00051187,0,0,0,0
61.6,0.009409,2.4273,0.00059582,0,0,0,0
62.6,0.009523,2.4659,0.00055585,0,0,0,0
63.6,0.01005,2.5066,0.00043091,0,0,0,0
64.6,0.010764,2.5464,0.0004529,0,0,0,0
65.6,0.011599,2.5863,0.00038193,0,0,0,0
66.6,0.012108,2.6284,0.00051687,0,0,0,0
67.6,0.01235,2.6687,0.00034794,0,0,0,0
68.6,0.012192,2.7066,0.00046689,0,0,0,0
69.6,0.011644,2.7476,0.00066278,0,0,0,0
70.6,0.011184,2.7903,0.00065578,0,0,0,0
71.6,0.011227,2.8296,0.00050487,0,0,0,0
72.6,0.011388,2.8699,0.00048288,0,0,0,0
73.6,0.012015,2.9091,0.00026596,0,0,0,0
74.6,0.012638,2.9483,0.00049988,0,0,0,0
75.6,0.013734,2.9904,0.00037893,0,0,0,0
76.6,0.014304,3.0307,0.00029596,0,0,0,0
77.6,0.014799,3.0679,0.00055485,0,0,0,0
78.6,0.014315,3.1081,0.00047889,0,0,0,0
79.6,0.013779,3.1506,0.00047289,0,0,0,0
80.6,0.013597,3.1889,0.00048288,0,0,0,0
81.6,0.013441,3.2296,0.00048788,0,0,0,0
82.6,0.013593,3.2687,0.00046289,0,0,0,0
83.6,0.013922,3.3076,0.00030395,0,0,0,0
84.6,0.014454,3.3487,0.00036993,0,0,0,0
85.6,0.015774,3.3887,0.00041591,0,0,0,0
86.6,0.01639,3.4259,0.00057983,0,0,0,0
87.6,0.016634,3.4659,0.00060881,0,0,0,0
88.6,0.01705,3.508,0.00048388,0,0,0,0
89.6,0.016835,3.5459,0.00060682,0,0,0,0
90.6,0.016184,3.5859,0.00064979,0,0,0,0
91.6,0.015904,3.6247,0.00069176,0,0,0,0
92.6,0.015906,3.664,0.00064679,0,0,0,0
93.6,0.016094,3.7047,0.00065978,0,0,0,0
94.6,0.017097,3.7447,0.00049488,0,0,0,0
95.6,0.017972,3.7811,0.00056684,0,0,0,0
96.6,0.018857,3.8201,0.00059682,0,0,0,0
97.6,0.019351,3.862,0.00091458,0,0,0,0
98.6,0.019702,3.8999,0.00098052,0,0,0,0
99.6,0.019447,3.9391,0.00088561,0,0,0,0
100.6,0.019078,3.9774,0.00091059,0,0,0,0
101.6,0.018577,4.0157,0.00094855,0,0,0,0
102.6,0.018504,4.0564,0.00075272,0,0,0,0
103.6,0.018781,4.0967,0.00086862,0,0,0,0
104.6,0.019645,4.1331,0.00079368,0,0,0,0
105.6,0.020676,4.1726,0.00084964,0,0,0,0
106.6,0.021627,4.2137,0.0011403,0,0,0,0
107.6,0.022253,4.2509,0.0009995,0,0,0,0
108.6,0.022375,4.2909,0.0010355,0,0,0,0
109.6,0.022545,4.3294,0.0012422,0,0,0,0
110.6,0.02237,4.3676,0.0010155,0,0,0,0
111.6,0.022081,4.4084,0.00096953,0,0,0,0
112.6,0.021626,4.4471,0.0011384,0,0,0,0
113.6,0.022117,4.4829,0.00094256,0,0,0,0
114.6,0.022593,4.5219,0.0011114,0,0,0,0
115.6,0.023732,4.5623,0.0011234,0,0,0,0
116.59,0.024556,4.5991,0.0010794,0,0,0,0
117.6,0.025129,4.6379,0.0012083,0,0,0,0
118.6,0.025631,4.6754,0.0013231,0,0,0,0
119.6,0.026033,4.7126,0.0013121,0,0,0,0
120.6,0.026072,4.7514,0.0012532,0,0,0,0
121.6,0.026309,4.7891,0.0012113,0,0,0,0
122.6,0.025924,4.8239,0.0012153,0,0,0,0
123.6,0.026235,4.8619,0.0011164,0,0,0,0
124.59,0.026844,4.9016,0.0012982,0,0,0,0
125.6,0.027811,4.9376,0.0011184,0,0,0,0
126.6,0.028245,4.9749,0.0012632,0,0,0,0
127.59,0.029153,5.0114,0.0013251,0,0,0,0
128.6,0.029586,5.0487,0.001414,0,0,0,0
129.6,0.030318,5.0879,0.0015428,0,0,0,0
130.6,0.030751,5.124,0.0016357,0,0,0,0
131.6,0.030947,5.1586,0.0016127,0,0,0,0
132.6,0.031472,5.1973,0.0015758,0,0,0,0
133.6,0.032168,5.2326,0.0017814,0,0,0,0
134.6,0.032645,5.2699,0.0016207,0,0,0,0
135.59,0.033506,5.3069,0.0015847,0,0,0,0
136.6,0.0343,5.3417,0.0017894,0,0,0,0
137.59,0.03498,5.3784,0.0016866,0,0,0,0
138.59,0.035465,5.4147,0.00198,0,0,0,0
139.6,0.035997,5.4496,0.0021198,0,0,0,0
140.6,0.036856,5.4836,0.0021467,0,0,0,0
141.6,0.037785,5.5206,0.0022455,0,0,0,0
142.59,0.038886,5.5549,0.0022515,0,0,0,0
143.59,0.040135,5.5906,0.0021866,0,0,0,0
144.59,0.041344,5.6256,0.0023901,0,0,0,0
145.59,0.041848,5.659,0.0023522,0,0,0,0
146.59,0.04235,5.6944,0.002463,0,0,0,0
147.59,0.042954,5.7287,0.0027652,0,0,0,0
148.6,0.043418,5.7619,0.0029586,0,0,0,0
149.59,0.044395,5.7944,0.0031321,0,0,0,0
150.6,0.045672,5.8301,0.0032238,0,0,0,0
151.6,0.046934,5.8626,0.0033613,0,0,0,0
152.59,0.048858,5.8956,0.0033005,0,0,0,0
153.6,0.050762,5.9289,0.0032328,0,0,0,0
154.59,0.052398,5.9614,0.0033374,0,0,0,0
155.59,0.053303,5.9937,0.0033364,0,0,0,0
156.59,0.054446,6.0264,0.0035068,0,0,0,0
157.6,0.055107,6.0579,0.00374,0,0,0,0
158.59,0.055745,6.0884,0.0041026,0,0,0,0
159.59,0.057027,6.1221,0.0045685,0,0,0,0
160.59,0.058703,6.1521,0.0047975,0,0,0,0
161.59,0.060703,6.1839,0.0047447,0,0,0,0
162.59,0.062432,6.2149,0.0044182,0,0,0,0
163.59,0.064285,6.244,0.0046153,0,0,0,0
164.59,0.06574,6.2747,0.0045457,0,0,0,0
165.59,0.06754,6.3043,0.0045765,0,0,0,0
166.59,0.069215,6.3331,0.0048114,0,0,0,0
167.59,0.070913,6.3611,0.0051527,0,0,0,0
168.59,0.073115,6.3921,0.0056172,0,0,0,0
169.59,0.07552,6.4201,0.0061997,0,0,0,0
170.59,0.077391,6.4491,0.0065316,0,0,0,0
171.59,0.079026,6.4781,0.0064909,0,0,0,0
172.59,0.0804,6.506,0.0063736,0,0,0,0
173.59,0.081967,6.534,0.006315,0,0,0,0
174.59,0.083736,6.5616,0.0063418,0,0,0,0
175.6,0.085643,6.5891,0.0062504,0,0,0,0
176.6,0.088074,6.6151,0.0066727,0,0,0,0
177.59,0.091174,6.6441,0.0071414,0,0,0,0
178.59,0.093634,6.6701,0.0075336,0,0,0,0
179.59,0.095953,6.6969,0.0079573,0,0,0,0
180.59,0.098381,6.7231,0.008474,0,0,0,0
181.59,0.10032,6.749,0.0086148,0,0,0,0
182.59,0.10265,6.775,0.0083262,0,0,0,0
183.59,0.10523,6.801,0.0082915,0,0,0,0
184.59,0.10814,6.8261,0.0081566,0,0,0,0
185.59,0.11116,6.8504,0.0083689,0,0,0,0
186.59,0.11325,6.8774,0.008593,0,0,0,0
187.59,0.11513,6.9011,0.0088586,0,0,0,0
188.59,0.11726,6.9261,0.0094869,0,0,0,0
189.59,0.11923,6.9511,0.010173,0,0,0,0
190.59,0.12192,6.9746,0.010658,0,0,0,0
191.59,0.12498,6.999,0.010997,0,0,0,0
192.59,0.12791,7.0233,0.010739,0,0,0,0
193.59,0.13077,7.0467,0.010677,0,0,0,0
194.59,0.13331,7.0699,0.01036,0,0,0,0
195.59,0.1358,7.0947,0.01016,0,0,0,0
196.59,0.13866,7.1174,0.010448,0,0,0,0
197.59,0.14139,7.1407,0.011013,0,0,0,0
198.59,0.14461,7.1634,0.011769,0,0,0,0
199.59,0.14802,7.1856,0.012453,0,0,0,0
200.59,0.15137,7.2086,0.012948,0,0,0,0
201.59,0.15397,7.2313,0.013011,0,0,0,0
202.59,0.15648,7.253,0.013082,0,0,0,0
203.59,0.15901,7.2744,0.012895,0,0,0,0
204.59,0.16135,7.298,0.012547,0,0,0,0
205.59,0.16471,7.3191,0.012679,0,0,0,0
206.59,0.16796,7.3409,0.012679,0,0,0,0
207.59,0.17094,7.3629,0.012979,0,0,0,0
208.59,0.17374,7.3829,0.013796,0,0,0,0
209.59,0.17636,7.4039,0.014192,0,0,0,0
210.59,0.17903,7.4256,0.014877,0,0,0,0
211.59,0.18228,7.446,0.01518,0,0,0,0
212.59,0.18582,7.4664,0.015302,0,0,0,0
213.59,0.18977,7.489,0.015124,0,0,0,0
214.59,0.19307,7.5087,0.014999,0,0,0,0
215.59,0.19636,7.5294,0.014848,0,0,0,0
216.59,0.19921,7.5497,0.01515,0,0,0,0
217.59,0.20241,7.5699,0.015567,0,0,0,0
218.59,0.20537,7.5906,0.01608,0,0,0,0
219.59,0.20964,7.6109,0.016767,0,0,0,0
220.59,0.21345,7.631,0.017354,0,0,0,0
221.59,0.21671,7.6504,0.017611,0,0,0,0
222.59,0.2197,7.6713,0.017616,0,0,0,0
223.59,0.22251,7.6901,0.017665,0,0,0,0
224.59,0.22574,7.7094,0.017421,0,0,0,0
225.59,0.22903,7.7287,0.017465,0,0,0,0
226.59,0.23275,7.7484,0.017569,0,0,0,0
227.59,0.23641,7.7674,0.018066,0,0,0,0
228.59,0.23985,7.7859,0.018727,0,0,0,0
229.59,0.24265,7.8047,0.019143,0,0,0,0
230.59,0.24594,7.823,0.019826,0,0,0,0
231.59,0.24952,7.842,0.019874,0,0,0,0
232.59,0.25348,7.8594,0.020053,0,0,0,0
233.59,0.25743,7.8774,0.01995,0,0,0,0
234.59,0.26146,7.8954,0.020054,0,0,0,0
235.59,0.26483,7.9134,0.02017,0,0,0,0
236.59,0.26809,7.9314,0.02038,0,0,0,0
237.59,0.27131,7.9489,0.020831,0,0,0,0
238.59,0.2755,7.9663,0.021329,0,0,0,0
239.59,0.27965,7.9836,0.021731,0,0,0,0
240.59,0.28387,8.001,0.022118,0,0,0,0
241.59,0.28765,8.0174,0.022336,0,0,0,0
242.59,0.29068,8.035,0.022654,0,0,0,0
243.59,0.29441,8.052,0.022626,0,0,0,0
244.59,0.29756,8.0681,0.02285,0,0,0,0
245.59,0.30183,8.0856,0.023053,0,0,0,0
246.59,0.306,8.1021,0.023116,0,0,0,0
247.59,0.30946,8.1186,0.023673,0,0,0,0
248.59,0.31288,8.1349,0.024193,0,0,0,0
249.59,0.31634,8.1513,0.024509,0,0,0,0
250.59,0.31949,8.1671,0.025014,0,0,0,0
251.59,0.32359,8.1834,0.025205,0,0,0,0
252.59,0.328,8.1994,0.025527,0,0,0,0
253.59,0.33209,8.2151,0.025489,0,0,0,0
254.59,0.33579,8.2314,0.025783,0,0,0,0
255.59,0.33948,8.2474,0.026213,0,0,0,0
256.6,0.34294,8.2629,0.026475,0,0,0,0
257.6,0.34705,8.2777,0.027057,0,0,0,0
258.6,0.35175,8.2943,0.027279,0,0,0,0
259.59,0.35605,8.3087,0.027405,0,0,0,0
260.59,0.36047,8.3244,0.028079,0,0,0,0
261.59,0.36406,8.3401,0.02827,0,0,0,0
262.59,0.36784,8.3549,0.02871,0,0,0,0
263.59,0.372,8.3701,0.028831,0,0,0,0
264.6,0.37656,8.3859,0.029039,0,0,0,0
265.59,0.38121,8.4006,0.029214,0,0,0,0
266.59,0.38547,8.4161,0.02973,0,0,0,0
267.59,0.38934,8.4297,0.030114,0,0,0,0
268.59,0.39297,8.4449,0.030426,0,0,0,0
269.59,0.39718,8.4591,0.030685,0,0,0,0
270.59,0.40137,8.4739,0.031067,0,0,0,0
271.6,0.40605,8.4886,0.031488,0,0,0,0
272.59,0.41041,8.5021,0.031709,0,0,0,0
273.59,0.41403,8.5161,0.032003,0,0,0,0
274.59,0.41758,8.5313,0.032296,0,0,0,0
275.59,0.42139,8.5446,0.032584,0,0,0,0
276.6,0.42588,8.5576,0.032929,0,0,0,0
277.59,0.43039,8.5716,0.033355,0,0,0,0
278.59,0.43488,8.5844,0.033803,0,0,0,0
279.59,0.43877,8.5986,0.034082,0,0,0,0
280.59,0.44278,8.613,0.034371,0,0,0,0
281.59,0.44682,8.6256,0.03453,0,0,0,0
282.59,0.45134,8.6391,0.035078,0,0,0,0
283.6,0.45654,8.6531,0.035436,0,0,0,0
284.59,0.46112,8.6651,0.035631,0,0,0,0
285.59,0.4652,8.6783,0.035799,0,0,0,0
286.59,0.46935,8.6913,0.036267,0,0,0,0
287.59,0.47359,8.7034,0.036538,0,0,0,0
288.59,0.47827,8.7173,0.036873,0,0,0,0
289.59,0.48348,8.7303,0.037452,0,0,0,0
290.59,0.48832,8.7421,0.037844,0,0,0,0
291.59,0.4927,8.7551,0.038009,0,0,0,0
292.59,0.49647,8.7681,0.038484,0,0,0,0
293.59,0.5008,8.7799,0.038863,0,0,0,0
294.59,0.50547,8.7923,0.038966,0,0,0,0
295.59,0.51071,8.8046,0.039383,0,0,0,0
296.6,0.51561,8.8169,0.039668,0,0,0,0
297.6,0.51976,8.8296,0.040086,0,0,0,0
298.6,0.52394,8.8416,0.040584,0,0,0,0
299.59,0.52806,8.8529,0.040942,0,0,0,0
300.59,0.53283,8.8649,0.041378,0,0,0,0
301.59,0.53811,8.8771,0.041763,0,0,0,0
302.59,0.54236,8.8886,0.041864,0,0,0,0
303.59,0.5467,8.8996,0.042413,0,0,0,0
304.59,0.55055,8.9116,0.042704,0,0,0,0
305.59,0.55499,8.9231,0.042992,0,0,0,0
306.59,0.55944,8.9353,0.043301,0,0,0,0
307.59,0.56482,8.947,0.043769,0,0,0,0
308.59,0.56962,8.9571,0.044243,0,0,0,0
309.59,0.57375,8.9689,0.04468,0,0,0,0
310.59,0.57808,8.9801,0.04512,0,0,0,0
311.59,0.5826,8.9906,0.045525,0,0,0,0
312.59,0.58756,9.002,0.045603,0,0,0,0
313.59,0.59301,9.0126,0.046213,0,0,0,0
314.59,0.59759,9.0224,0.046304,0,0,0,0
315.59,0.60199,9.0343,0.046903,0,0,0,0
316.59,0.60618,9.0453,0.047065,0,0,0,0
317.59,0.61106,9.0554,0.047557,0,0,0,0
318.59,0.61637,9.0666,0.04824,0,0,0,0
319.59,0.62188,9.0769,0.048839,0,0,0,0
320.59,0.62652,9.0869,0.049188,0,0,0,0
321.59,0.6309,9.0969,0.049493,0,0,0,0
322.59,0.63539,9.1076,0.049819,0,0,0,0
323.59,0.64018,9.118,0.050103,0,0,0,0
324.59,0.6456,9.1276,0.050532,0,0,0,0
325.59,0.65102,9.1383,0.050801,0,0,0,0
326.59,0.65566,9.1479,0.051394,0,0,0,0
327.59,0.66005,9.1583,0.051859,0,0,0,0
328.59,0.66438,9.1681,0.052379,0,0,0,0
329.59,0.66977,9.1779,0.052942,0,0,0,0
330.59,0.67506,9.1879,0.053189,0,0,0,0
331.59,0.68038,9.1979,0.053473,0,0,0,0
332.59,0.68505,9.2071,0.053857,0,0,0,0
333.59,0.6896,9.2176,0.05427,0,0,0,0
334.59,0.69387,9.2273,0.054519,0,0,0,0
335.59,0.69922,9.2359,0.055126,0,0,0,0
336.59,0.70502,9.2456,0.055463,0,0,0,0
337.59,0.70977,9.2549,0.056012,0,0,0,0
338.59,0.71385,9.2636,0.056519,0,0,0,0
339.59,0.71856,9.273,0.0571,0,0,0,0
340.59,0.72335,9.2826,0.057544,0,0,0,0
341.59,0.72867,9.2919,0.057888,0,0,0,0
342.59,0.73415,9.3013,0.058198,0,0,0,0
343.59,0.73898,9.3103,0.05855,0,0,0,0
344.59,0.74342,9.3186,0.05918,0,0,0,0
345.59,0.74793,9.3276,0.059456,0,0,0,0
346.59,0.75307,9.3369,0.059961,0,0,0,0
347.59,0.75867,9.3453,0.060324,0,0,0,0
348.59,0.76411,9.3536,0.060825,0,0,0,0
349.59,0.76889,9.3626,0.061288,0,0,0,0
350.59,0.77317,9.371,0.061749,0,0,0,0
351.59,0.77832,9.3796,0.062097,0,0,0,0
352.59,0.78373,9.389,0.062504,0,0,0,0
353.59,0.78946,9.3966,0.063026,0,0,0,0
354.59,0.79471,9.4053,0.063464,0,0,0,0
355.59,0.79975,9.4136,0.06403,0,0,0,0
356.59,0.80422,9.4213,0.064424,0,0,0,0
357.59,0.80932,9.4293,0.064948,0,0,0,0
358.59,0.81534,9.438,0.065256,0,0,0,0
359.59,0.82078,9.4456,0.065771,0,0,0,0
360.59,0.82578,9.454,0.06606,0,0,0,0
361.59,0.8305,9.4617,0.066544,0,0,0,0
362.59,0.83566,9.4693,0.066949,0,0,0,0
363.59,0.84086,9.4776,0.067537,0,0,0,0
364.59,0.84638,9.4849,0.068096,0,0,0,0
365.59,0.85219,9.4926,0.068538,0,0,0,0
366.59,0.85723,9.501,0.068808,0,0,0,0
367.59,0.86181,9.5083,0.069301,0,0,0,0
368.59,0.86666,9.516,0.069924,0,0,0,0
369.59,0.87217,9.5233,0.070347,0,0,0,0
370.59,0.87823,9.531,0.070896,0,0,0,0
371.59,0.88373,9.5381,0.071389,0,0,0,0
372.59,0.88811,9.5456,0.071767,0,0,0,0
373.59,0.89311,9.5526,0.072437,0,0,0,0
374.59,0.89811,9.5603,0.07279,0,0,0,0
375.59,0.90407,9.5676,0.07327,0,0,0,0
376.59,0.90991,9.5746,0.073728,0,0,0,0
377.59,0.9147,9.5817,0.074225,0,0,0,0
378.59,0.91936,9.5883,0.074714,0,0,0,0
379.59,0.92442,9.5957,0.075112,0,0,0,0
380.59,0.92971,9.6023,0.075657,0,0,0,0
381.59,0.93594,9.6093,0.076258,0,0,0,0
382.59,0.94125,9.6159,0.0768,0,0,0,0
383.59,0.94596,9.6226,0.077209,0,0,0,0
384.59,0.95082,9.6296,0.077899,0,0,0,0
385.59,0.95577,9.636,0.078087,0,0,0,0
386.59,0.96146,9.642,0.078612,0,0,0,0
387.59,0.96742,9.649,0.079103,0,0,0,0
388.59,0.97243,9.6554,0.079685,0,0,0,0
389.59,0.9776,9.6614,0.080354,0,0,0,0
390.59,0.9823,9.6681,0.080749,0,0,0,0
391.59,0.98763,9.674,0.081243,0,0,0,0
392.59,0.99364,9.6811,0.081844,0,0,0,0
393.59,0.99911,9.6874,0.082435,0,0,0,0
394.59,1.0042,9.6937,0.082964,0,0,0,0
395.59,1.0092,9.7,0.083301,0,0,0,0
396.59,1.0146,9.7057,0.084005,0,0,0,0
397.59,1.0205,9.7124,0.084454,0,0,0,0
398.59,1.0264,9.719,0.0851,0,0,0,0
399.59,1.0317,9.7247,0.085712,0,0,0,0
400.59,1.0368,9.7307,0.086015,0,0,0,0
401.59,1.042,9.7374,0.086507,0,0,0,0
402.59,1.0475,9.7427,0.087163,0,0,0,0
403.59,1.0539,9.7487,0.087798,0,0,0,0
404.59,1.0595,9.7547,0.088342,0,0,0,0
405.59,1.0646,9.7604,0.089072,0,0,0,0
406.59,1.0697,9.766,0.089619,0,0,0,0
407.59,1.0751,9.7713,0.090188,0,0,0,0
408.59,1.0816,9.7767,0.090801,0,0,0,0
409.59,1.0872,9.7827,0.091403,0,0,0,0
410.59,1.0928,9.7887,0.091855,0,0,0,0
411.59,1.098,9.7944,0.092484,0,0,0,0
412.59,1.1032,9.7997,0.093061,0,0,0,0
413.59,1.1089,9.8047,0.093747,0,0,0,0
414.59,1.1153,9.8104,0.094433,0,0,0,0
415.59,1.1212,9.8157,0.094997,0,0,0,0
416.59,1.1263,9.8207,0.095578,0,0,0,0
417.59,1.1315,9.8253,0.096184,0,0,0,0
418.59,1.1369,9.831,0.09672,0,0,0,0
419.59,1.1434,9.8359,0.097501,0,0,0,0
420.59,1.1494,9.8417,0.097976,0,0,0,0
421.59,1.1549,9.8463,0.098548,0,0,0,0
422.59,1.1601,9.8513,0.099262,0,0,0,0
423.59,1.1655,9.8563,0.09986,0,0,0,0
424.59,1.1716,9.8609,0.10032,0,0,0,0
425.59,1.1777,9.866,0.10102,0,0,0,0
426.59,1.1834,9.8703,0.10181,0,0,0,0
427.59,1.1889,9.8753,0.10214,0,0,0,0
428.59,1.1943,9.8803,0.10283,0,0,0,0
429.59,1.1999,9.8846,0.10344,0,0,0,0
430.59,1.206,9.8893,0.1041,0,0,0,0
431.59,1.2122,9.8936,0.10494,0,0,0,0
432.59,1.2174,9.8983,0.10563,0,0,0,0
433.59,1.2224,9.903,0.10628,0,0,0,0
434.59,1.2282,9.9073,0.10697,0,0,0,0
435.59,1.2342,9.9123,0.1075,0,0,0,0
436.59,1.2405,9.917,0.10804,0,0,0,0
437.59,1.2461,9.921,0.10879,0,0,0,0
438.59,1.2516,9.9253,0.10944,0,0,0,0
439.59,1.2569,9.9293,0.11012,0,0,0,0
440.59,1.2626,9.9337,0.11094,0,0,0,0
441.59,1.2689,9.938,0.11165,0,0,0,0
442.59,1.2751,9.942,0.11226,0,0,0,0
443.59,1.2804,9.9463,0.113,0,0,0,0
444.59,1.2858,9.9506,0.11364,0,0,0,0
445.59,1.2915,9.9546,0.11412,0,0,0,0
446.59,1.298,9.959,0.11481,0,0,0,0
447.59,1.3043,9.9626,0.11542,0,0,0,0
448.59,1.3099,9.9666,0.11617,0,0,0,0
449.59,1.3153,9.9703,0.1169,0,0,0,0
450.59,1.3208,9.974,0.11751,0,0,0,0
451.59,1.3269,9.9776,0.11836,0,0,0,0
452.59,1.3332,9.982,0.11901,0,0,0,0
453.59,1.3394,9.9856,0.11991,0,0,0,0
454.59,1.3446,9.9893,0.12058,0,0,0,0
455.59,1.3504,9.9927,0.12122,0,0,0,0
456.59,1.3562,9.9957,0.12191,0,0,0,0
457.59,1.3627,9.999,0.12261,0,0,0,0
458.59,1.3688,10.003,0.12328,0,0,0,0
459.59,1.3742,10.006,0.124,0,0,0,0
460.59,1.3797,10.01,0.1248,0,0,0,0
461.59,1.3855,10.013,0.12555,0,0,0,0
462.59,1.3921,10.017,0.1266,0,0,0,0
463.59,1.3983,10.02,0.12732,0,0,0,0
464.59,1.4043,10.023,0.12814,0,0,0,0
465.59,1.4095,10.026,0.12895,0,0,0,0
466.59,1.4153,10.028,0.12979,0,0,0,0
467.59,1.4215,10.032,0.1303,0,0,0,0
468.59,1.428,10.035,0.13086,0,0,0,0
469.59,1.434,10.038,0.13178,0,0,0,0
470.59,1.4395,10.042,0.13259,0,0,0,0
471.59,1.445,10.044,0.13351,0,0,0,0
472.59,1.4512,10.047,0.1343,0,0,0,0
473.59,1.4579,10.05,0.13509,0,0,0,0
474.59,1.4639,10.052,0.13586,0,0,0,0
475.59,1.4695,10.055,0.13679,0,0,0,0
476.59,1.4752,10.058,0.13734,0,0,0,0
477.59,1.4812,10.06,0.13819,0,0,0,0
478.59,1.4878,10.063,0.13902,0,0,0,0
479.59,1.4943,10.066,0.13975,0,0,0,0
480.59,1.5,10.068,0.14068,0,0,0,0
481.59,1.5055,10.071,0.14172,0,0,0,0
482.59,1.5117,10.074,0.14254,0,0,0,0
483.59,1.5181,10.076,0.14335,0,0,0,0
484.59,1.5247,10.078,0.14403,0,0,0,0
485.59,1.5303,10.081,0.14484,0,0,0,0
486.59,1.5361,10.083,0.14554,0,0,0,0
487.59,1.5418,10.085,0.14648,0,0,0,0
488.59,1.5482,10.088,0.14743,0,0,0,0
489.59,1.5552,10.09,0.14831,0,0,0,0
490.59,1.5613,10.092,0.14919,0,0,0,0
491.59,1.567,10.094,0.14996,0,0,0,0
492.59,1.5727,10.097,0.15098,0,0,0,0
493.59,1.5793,10.098,0.15194,0,0,0,0
494.59,1.586,10.1,0.15296,0,0,0,0
495.59,1.5923,10.102,0.15383,0,0,0,0
496.59,1.5978,10.104,0.1548,0,0,0,0
497.59,1.6036,10.106,0.15565,0,0,0,0
498.59,1.61,10.107,0.15664,0,0,0,0
499.59,1.6169,10.109,0.15756,0,0,0,0
500.59,1.6231,10.111,0.15846,0,0,0,0
501.59,1.6292,10.112,0.15933,0,0,0,0
502.59,1.6348,10.113,0.16049,0,0,0,0
503.59,1.6411,10.116,0.16121,0,0,0,0
504.59,1.6474,10.117,0.16222,0,0,0,0
505.59,1.6543,10.119,0.16333,0,0,0,0
506.59,1.6602,10.121,0.16424,0,0,0,0
507.59,1.666,10.121,0.16522,0,0,0,0
508.59,1.6721,10.123,0.16612,0,0,0,0
509.59,1.679,10.124,0.16715,0,0,0,0
510.59,1.6854,10.125,0.16756,0,0,0,0
511.59,1.6915,10.126,0.16865,0,0,0,0
512.59,1.6972,10.128,0.16956,0,0,0,0
513.59,1.7032,10.129,0.17056,0,0,0,0
514.59,1.71,10.13,0.17152,0,0,0,0
515.59,1.7168,10.131,0.17263,0,0,0,0
516.59,1.723,10.132,0.17364,0,0,0,0
517.59,1.7287,10.133,0.17471,0,0,0,0
518.59,1.7349,10.134,0.17576,0,0,0,0
519.59,1.7414,10.135,0.17692,0,0,0,0
520.59,1.7483,10.135,0.17789,0,0,0,0
521.59,1.7547,10.137,0.17894,0,0,0,0
522.59,1.7606,10.138,0.17988,0,0,0,0
523.59,1.7665,10.139,0.1811,0,0,0,0
524.59,1.7733,10.139,0.18217,0,0,0,0
525.59,1.7803,10.14,0.18342,0,0,0,0
526.59,1.7866,10.14,0.18471,0,0,0,0
527.59,1.7925,10.141,0.18572,0,0,0,0
528.59,1.7987,10.142,0.18672,0,0,0,0
529.59,1.8053,10.142,0.18782,0,0,0,0
530.59,1.8124,10.143,0.18883,0,0,0,0
531.59,1.8191,10.143,0.19022,0,0,0,0
532.59,1.8249,10.143,0.19145,0,0,0,0
533.59,1.8312,10.143,0.19258,0,0,0,0
534.59,1.8377,10.143,0.19339,0,0,0,0
535.59,1.8448,10.144,0.19474,0,0,0,0
536.59,1.8513,10.144,0.19569,0,0,0,0
537.59,1.8573,10.144,0.19686,0,0,0,0
538.59,1.8637,10.145,0.19829,0,0,0,0
539.59,1.8704,10.144,0.19943,0,0,0,0
540.59,1.8776,10.144,0.20068,0,0,0,0
541.59,1.8843,10.144,0.20237,0,0,0,0
542.59,1.8902,10.143,0.20319,0,0,0,0
543.59,1.8964,10.143,0.20456,0,0,0,0
544.59,1.9028,10.143,0.2058,0,0,0,0
545.59,1.9102,10.142,0.20695,0,0,0,0
546.59,1.9168,10.142,0.20834,0,0,0,0
547.59,1.9228,10.141,0.20963,0,0,0,0
548.59,1.929,10.141,0.21099,0,0,0,0
549.59,1.9355,10.14,0.21219,0,0,0,0
550.59,1.9428,10.139,0.21364,0,0,0,0
551.59,1.9496,10.139,0.21495,0,0,0,0
552.59,1.9558,10.138,0.21638,0,0,0,0
553.59,1.962,10.137,0.21774,0,0,0,0
554.59,1.9686,10.137,0.21872,0,0,0,0
555.59,1.9757,10.136,0.22031,0,0,0,0
556.59,1.9825,10.135,0.22169,0,0,0,0
557.59,1.9888,10.134,0.22304,0,0,0,0
558.59,1.9949,10.133,0.22473,0,0,0,0
559.59,2.0017,10.132,0.22602,0,0,0,0
560.59,2.009,10.131,0.22781,0,0,0,0
561.59,2.0159,10.129,0.22891,0,0,0,0
562.59,2.0222,10.128,0.23051,0,0,0,0
563.59,2.0283,10.127,0.2317,0,0,0,0
564.59,2.035,10.126,0.23287,0,0,0,0
565.59,2.0425,10.124,0.23436,0,0,0,0
566.59,2.0492,10.122,0.23582,0,0,0,0
567.59,2.0554,10.121,0.23734,0,0,0,0
568.59,2.0617,10.119,0.23872,0,0,0,0
569.59,2.0683,10.117,0.2402,0,0,0,0
570.59,2.0757,10.116,0.24153,0,0,0,0
571.59,2.0826,10.114,0.24306,0,0,0,0
572.59,2.089,10.112,0.24468,0,0,0,0
573.59,2.0952,10.11,0.24644,0,0,0,0
574.59,2.1021,10.108,0.24807,0,0,0,0
575.59,2.1095,10.106,0.24974,0,0,0,0
576.59,2.1162,10.103,0.2515,0,0,0,0
577.59,2.1225,10.101,0.25287,0,0,0,0
578.59,2.1287,10.099,0.25462,0,0,0,0
579.59,2.1356,10.097,0.25639,0,0,0,0
580.59,2.143,10.095,0.25814,0,0,0,0
581.59,2.1496,10.092,0.25992,0,0,0,0
582.59,2.1559,10.089,0.26149,0,0,0,0
583.59,2.1623,10.087,0.2632,0,0,0,0
584.59,2.1693,10.085,0.26515,0,0,0,0
585.59,2.1768,10.082,0.26662,0,0,0,0
586.59,2.1837,10.079,0.26862,0,0,0,0
587.59,2.1902,10.076,0.27043,0,0,0,0
588.59,2.1963,10.073,0.272,0,0,0,0
589.59,2.2033,10.07,0.27389,0,0,0,0
590.59,2.2108,10.067,0.27576,0,0,0,0
591.59,2.2176,10.064,0.27755,0,0,0,0
592.59,2.2239,10.061,0.27941,0,0,0,0
593.59,2.2305,10.057,0.28137,0,0,0,0
594.59,2.2375,10.054,0.28311,0,0,0,0
595.59,2.2451,10.051,0.28475,0,0,0,0
596.59,2.2516,10.047,0.28659,0,0,0,0
597.59,2.2581,10.044,0.28863,0,0,0,0
598.59,2.2646,10.041,0.29075,0,0,0,0
599.59,2.2722,10.037,0.29255,0,0,0,0
600.59,2.2798,10.033,0.2945,0,0,0,0
601.59,2.2862,10.028,0.29665,0,0,0,0
602.59,2.2926,10.024,0.29882,0,0,0,0
603.59,2.2993,10.02,0.30093,0,0,0,0
604.59,2.3065,10.016,0.3032,0,0,0,0
605.59,2.3138,10.011,0.30511,0,0,0,0
606.59,2.3204,10.007,0.30725,0,0,0,0
607.59,2.327,10.003,0.30931,0,0,0,0
608.59,2.3339,9.9979,0.31147,0,0,0,0
609.59,2.3413,9.9937,0.31358,0,0,0,0
610.59,2.3485,9.9887,0.31556,0,0,0,0
611.59,2.355,9.9837,0.31768,0,0,0,0
612.59,2.3612,9.979,0.31969,0,0,0,0
613.59,2.3683,9.9743,0.32184,0,0,0,0
614.59,2.376,9.9693,0.32417,0,0,0,0
615.59,2.3831,9.9643,0.32663,0,0,0,0
616.59,2.3896,9.9593,0.32907,0,0,0,0
617.59,2.3961,9.9539,0.33106,0,0,0,0
618.59,2.4032,9.949,0.33341,0,0,0,0
619.59,2.4106,9.943,0.33601,0,0,0,0
620.59,2.418,9.937,0.33837,0,0,0,0
621.59,2.4242,9.9313,0.34073,0,0,0,0
622.59,2.4307,9.9249,0.34307,0,0,0,0
623.59,2.4379,9.9193,0.34548,0,0,0,0
624.59,2.4456,9.9136,0.34743,0,0,0,0
625.59,2.4525,9.9073,0.35019,0,0,0,0
626.59,2.4587,9.9006,0.35279,0,0,0,0
627.59,2.4655,9.8943,0.35558,0,0,0,0
628.59,2.4729,9.8873,0.35808,0,0,0,0
629.59,2.4803,9.881,0.36076,0,0,0,0
630.59,2.4872,9.8743,0.36307,0,0,0,0
631.59,2.4938,9.8673,0.36583,0,0,0,0
632.59,2.5005,9.8606,0.36816,0,0,0,0
633.59,2.5081,9.8536,0.37085,0,0,0,0
634.59,2.5159,9.8463,0.37336,0,0,0,0
635.59,2.5223,9.8389,0.37584,0,0,0,0
636.59,2.5291,9.8313,0.37858,0,0,0,0
637.59,2.5357,9.823,0.38132,0,0,0,0
638.59,2.5434,9.8153,0.38407,0,0,0,0
639.59,2.5509,9.8076,0.38727,0,0,0,0
640.59,2.5576,9.7996,0.38979,0,0,0,0
641.59,2.5642,9.7916,0.39233,0,0,0,0
642.59,2.5712,9.7836,0.3949,0,0,0,0
643.59,2.5791,9.7749,0.39746,0,0,0,0
644.59,2.5868,9.7659,0.40074,0,0,0,0
645.59,2.5935,9.7573,0.40371,0,0,0,0
646.59,2.6001,9.748,0.40646,0,0,0,0
647.59,2.6074,9.7383,0.40913,0,0,0,0
648.59,2.6151,9.729,0.41205,0,0,0,0
649.59,2.6226,9.719,0.41501,0,0,0,0
650.59,2.6294,9.7096,0.41793,0,0,0,0
651.59,2.6358,9.6994,0.42112,0,0,0,0
652.59,2.6432,9.6891,0.42371,0,0,0,0
653.59,2.6517,9.6789,0.42672,0,0,0,0
654.59,2.6584,9.6683,0.42989,0,0,0,0
655.59,2.665,9.6576,0.43289,0,0,0,0
656.59,2.6725,9.6466,0.43579,0,0,0,0
657.59,2.68,9.6353,0.43871,0,0,0,0
658.59,2.6877,9.6243,0.44194,0,0,0,0
659.59,2.695,9.6121,0.44456,0,0,0,0
660.59,2.7018,9.6001,0.44757,0,0,0,0
661.59,2.709,9.5881,0.45044,0,0,0,0
662.59,2.7169,9.5754,0.45368,0,0,0,0
663.59,2.7246,9.5633,0.45681,0,0,0,0
664.59,2.7314,9.5503,0.45992,0,0,0,0
665.59,2.7384,9.5373,0.46304,0,0,0,0
666.59,2.7458,9.5236,0.46629,0,0,0,0
667.59,2.7543,9.51,0.46934,0,0,0,0
668.59,2.7617,9.4959,0.47254,0,0,0,0
669.59,2.769,9.4821,0.4761,0,0,0,0
670.59,2.7759,9.4667,0.47921,0,0,0,0
671.59,2.7836,9.4514,0.48266,0,0,0,0
672.59,2.7919,9.437,0.48586,0,0,0,0
673.59,2.7992,9.4206,0.48856,0,0,0,0
674.59,2.8064,9.4046,0.49142,0,0,0,0
675.59,2.8137,9.3883,0.4942,0,0,0,0
676.59,2.822,9.3713,0.49728,0,0,0,0
677.59,2.8302,9.3541,0.50026,0,0,0,0
678.59,2.8373,9.3371,0.50352,0,0,0,0
679.59,2.8444,9.3187,0.50647,0,0,0,0
680.59,2.8522,9.3,0.50987,0,0,0,0
681.59,2.8609,9.2816,0.51337,0,0,0,0
682.59,2.8686,9.2616,0.51663,0,0,0,0
683.59,2.8758,9.2413,0.52069,0,0,0,0
684.59,2.8833,9.2203,0.52436,0,0,0,0
685.59,2.8915,9.1993,0.52783,0,0,0,0
686.59,2.8999,9.1784,0.53083,0,0,0,0
687.59,2.9075,9.157,0.53454,0,0,0,0
688.59,2.9147,9.1333,0.53823,0,0,0,0
689.59,2.9227,9.11,0.54223,0,0,0,0
690.59,2.9315,9.0869,0.54547,0,0,0,0
691.59,2.9395,9.0616,0.54977,0,0,0,0
692.59,2.9471,9.0356,0.55341,0,0,0,0
693.59,2.9549,9.0093,0.55675,0,0,0,0
694.59,2.9627,8.9811,0.56117,0,0,0,0
695.59,2.9719,8.9537,0.56634,0,0,0,0
696.59,2.9795,8.9256,0.57037,0,0,0,0
697.59,2.9877,8.8951,0.57506,0,0,0,0
698.59,2.9956,8.8646,0.57944,0,0,0,0
699.59,3.0042,8.8336,-Inf,0,0,0,0
700.59,3.0131,8.7989,-Inf,0,0,0,0
701.59,3.0227,8.761,-Inf,0,0,0,0