File: polyN_optimization/DP600_results/DATA/NT20_90_2.csv
Time[s],Displacement[mm],Force[kN],AxStrain_1,AxStrain_2,Thickness[mm],OuterWidth[mm],InnerWidth[mm]
0.56,0,-0.018277,0,0,1.5294,20,20.451
1.56,0.000584,-0.020992,5.3999e-05,0,0,0,0
2.56,0.000727,0.020722,-0.00012001,0,0,0,0
3.56,0.000972,0.085149,3.1e-05,0,0,0,0
4.56,0.001458,0.13529,0.00011799,0,0,0,0
5.56,0.00151,0.17386,6.5998e-05,0,0,0,0
6.56,0.001313,0.20772,6.2998e-05,0,0,0,0
7.56,0.001239,0.24344,0.00016799,0,0,0,0
8.56,0.001273,0.28286,9.5995e-05,0,0,0,0
9.56,0.001504,0.31844,-4.2001e-05,0,0,0,0
10.56,0.001561,0.35458,-6.7002e-05,0,0,0,0
11.56,0.001596,0.39158,-0.00021902,0,0,0,0
12.56,0.001865,0.42858,1.1e-05,0,0,0,0
13.56,0.002243,0.46486,5.5998e-05,0,0,0,0
14.56,0.002615,0.50115,-0.00027104,0,0,0,0
15.56,0.002483,0.53786,-9.9005e-05,0,0,0,0
16.56,0.002566,0.57272,5.9998e-05,0,0,0,0
17.56,0.002619,0.61143,-1e-05,0,0,0,0
18.56,0.002645,0.64772,2e-05,0,0,0,0
19.56,0.002679,0.68629,2.7e-05,0,0,0,0
20.56,0.002861,0.72586,0,0,0,0,0
21.56,0.003183,0.76558,0.00013199,0,0,0,0
22.56,0.003524,0.80415,1.3e-05,0,0,0,0
23.56,0.003891,0.84443,-3e-05,0,0,0,0
24.56,0.004278,0.88543,0.00020498,0,0,0,0
25.56,0.004437,0.92472,-0.00013201,0,0,0,0
26.56,0.0045,0.96457,-3e-05,0,0,0,0
27.56,0.004437,1.0041,-3.3001e-05,0,0,0,0
28.56,0.004342,1.0469,0.00016199,0,0,0,0
29.56,0.004415,1.0867,2.3e-05,0,0,0,0
30.56,0.004338,1.1249,0.00013899,0,0,0,0
31.56,0.004644,1.1683,0.00023497,0,0,0,0
32.56,0.004806,1.2093,8.8996e-05,0,0,0,0
33.56,0.005422,1.2486,0.00025797,0,0,0,0
34.56,0.005763,1.2889,0.00034794,0,0,0,0
35.56,0.006485,1.3289,0.00018198,0,0,0,0
36.56,0.006792,1.3704,0.00016899,0,0,0,0
37.56,0.006564,1.4131,0.00011299,0,0,0,0
38.56,0.006352,1.4539,0.00031795,0,0,0,0
39.56,0.006359,1.4931,0.00033794,0,0,0,0
40.56,0.006137,1.5309,0.00031795,0,0,0,0
41.56,0.006257,1.5716,0.00028796,0,0,0,0
42.56,0.006632,1.613,0.00027096,0,0,0,0
43.56,0.007313,1.6526,0.00037393,0,0,0,0
44.56,0.007863,1.6921,0.00030495,0,0,0,0
45.56,0.008492,1.7336,7.2997e-05,0,0,0,0
46.56,0.008989,1.7739,0.00031095,0,0,0,0
47.56,0.008794,1.8131,0.00033394,0,0,0,0
48.56,0.008539,1.8537,0.00024797,0,0,0,0
49.56,0.008351,1.893,0.00036093,0,0,0,0
50.56,0.008219,1.9337,0.00040392,0,0,0,0
51.56,0.00816,1.9761,0.00042991,0,0,0,0
52.56,0.008402,2.0126,0.0004399,0,0,0,0
53.56,0.008763,2.0514,0.00031495,0,0,0,0
54.56,0.009479,2.0936,0.00037393,0,0,0,0
55.56,0.010293,2.1336,0.00038393,0,0,0,0
56.56,0.010905,2.1724,0.00042991,0,0,0,0
57.56,0.011092,2.2131,0.00022497,0,0,0,0
58.56,0.010916,2.2517,0.00037693,0,0,0,0
59.56,0.010371,2.2927,0.00040092,0,0,0,0
60.56,0.010314,2.3351,0.00057883,0,0,0,0
61.56,0.010265,2.3716,0.00035094,0,0,0,0
62.56,0.010338,2.4104,0.00030095,0,0,0,0
63.56,0.010852,2.4519,0.00042091,0,0,0,0
64.56,0.011368,2.4923,0.00046989,0,0,0,0
65.56,0.012245,2.5314,0.0004539,0,0,0,0
66.56,0.012988,2.5717,0.00051287,0,0,0,0
67.56,0.013295,2.6103,0.00035794,0,0,0,0
68.56,0.013027,2.651,0.00025497,0,0,0,0
69.56,0.0126,2.6934,0.00038093,0,0,0,0
70.56,0.012382,2.7309,0.00043391,0,0,0,0
71.56,0.011925,2.7701,0.00039392,0,0,0,0
72.56,0.012121,2.8113,0.00050987,0,0,0,0
73.56,0.012585,2.8513,0.00041092,0,0,0,0
74.56,0.013263,2.8904,0.00046689,0,0,0,0
75.56,0.014094,2.9307,0.00028496,0,0,0,0
76.56,0.014878,2.969,0.00050987,0,0,0,0
77.56,0.015216,3.0087,0.00051986,0,0,0,0
78.56,0.015362,3.0509,0.00062181,0,0,0,0
79.56,0.014823,3.0876,0.00046689,0,0,0,0
80.56,0.014419,3.1264,0.00055585,0,0,0,0
81.56,0.01405,3.1686,0.00057883,0,0,0,0
82.56,0.014299,3.2086,0.00060881,0,0,0,0
83.56,0.014587,3.2467,0.00050287,0,0,0,0
84.56,0.015418,3.2864,0.0004399,0,0,0,0
85.56,0.016348,3.3237,0.00040392,0,0,0,0
86.56,0.017185,3.3633,0.00059882,0,0,0,0
87.56,0.017458,3.4054,0.00059882,0,0,0,0
88.56,0.017567,3.4416,0.00061281,0,0,0,0
89.56,0.017675,3.4794,0.0006258,0,0,0,0
90.56,0.017124,3.5203,0.00070475,0,0,0,0
91.56,0.01667,3.5603,0.0006318,0,0,0,0
92.56,0.016637,3.5989,0.00046689,0,0,0,0
93.56,0.016855,3.6381,0.00073473,0,0,0,0
94.56,0.017203,3.6764,0.00051986,0,0,0,0
95.56,0.018389,3.7154,0.00052286,0,0,0,0
96.56,0.01921,3.7561,0.00067477,0,0,0,0
97.56,0.019646,3.7926,0.00059282,0,0,0,0
98.56,0.020309,3.8304,0.00051986,0,0,0,0
99.56,0.020021,3.8713,0.00071774,0,0,0,0
100.56,0.019948,3.9103,0.00065578,0,0,0,0
101.56,0.019534,3.9481,0.00073773,0,0,0,0
102.56,0.019303,3.9877,0.00079069,0,0,0,0
103.56,0.019333,4.025,0.00083365,0,0,0,0
104.56,0.020098,4.0637,0.00069876,0,0,0,0
105.56,0.020982,4.1049,0.0008966,0,0,0,0
106.56,0.021926,4.1406,0.00071175,0,0,0,0
107.56,0.022425,4.1781,0.00091059,0,0,0,0
108.56,0.02283,4.2183,0.00097652,0,0,0,0
109.56,0.022967,4.2576,0.00082766,0,0,0,0
110.56,0.022864,4.2957,0.00099251,0,0,0,0
111.56,0.022726,4.3347,0.00086063,0,0,0,0
112.56,0.022432,4.371,0.00095954,0,0,0,0
113.56,0.022531,4.4104,0.0008936,0,0,0,0
114.56,0.023128,4.4511,0.00095954,0,0,0,0
115.56,0.023857,4.4859,0.00092657,0,0,0,0
116.56,0.024717,4.5234,0.0011254,0,0,0,0
117.56,0.025579,4.5633,0.0011913,0,0,0,0
118.56,0.025944,4.6013,0.0011583,0,0,0,0
119.56,0.026243,4.6381,0.0011583,0,0,0,0
120.56,0.026209,4.6754,0.0013231,0,0,0,0
121.56,0.026244,4.7114,0.0010924,0,0,0,0
122.56,0.026276,4.7487,0.0011254,0,0,0,0
123.56,0.026243,4.7881,0.0011583,0,0,0,0
124.56,0.027071,4.8226,0.0012243,0,0,0,0
125.56,0.027634,4.8603,0.0010584,0,0,0,0
126.56,0.028461,4.8987,0.0011254,0,0,0,0
127.56,0.028958,4.935,0.0013231,0,0,0,0
128.56,0.029819,4.9709,0.0014559,0,0,0,0
129.56,0.029918,5.0081,0.0015548,0,0,0,0
130.56,0.030514,5.0437,0.001423,0,0,0,0
131.56,0.030581,5.0824,0.0013231,0,0,0,0
132.56,0.031077,5.1191,0.0014559,0,0,0,0
133.56,0.031441,5.1526,0.0013561,0,0,0,0
134.56,0.032269,5.1896,0.0014559,0,0,0,0
135.56,0.032732,5.2274,0.0014559,0,0,0,0
136.56,0.033594,5.2626,0.0015877,0,0,0,0
137.56,0.03419,5.2981,0.0016536,0,0,0,0
138.56,0.03472,5.3341,0.0017205,0,0,0,0
139.56,0.035184,5.3684,0.0019182,0,0,0,0
140.56,0.035812,5.4051,0.0021497,0,0,0,0
141.56,0.036574,5.4427,0.0021826,0,0,0,0
142.56,0.037106,5.4763,0.0021168,0,0,0,0
143.56,0.038197,5.5111,0.001984,0,0,0,0
144.56,0.03992,5.5483,0.0020509,0,0,0,0
145.56,0.041212,5.5843,0.0021497,0,0,0,0
146.56,0.041346,5.6184,0.0023482,0,0,0,0
147.56,0.041644,5.6534,0.0023482,0,0,0,0
148.56,0.042176,5.6871,0.0026455,0,0,0,0
149.56,0.042938,5.7221,0.0029756,0,0,0,0
150.56,0.043866,5.7544,0.003174,0,0,0,0
151.56,0.044861,5.7897,0.0031072,0,0,0,0
152.56,0.046385,5.8237,0.0031072,0,0,0,0
153.56,0.048042,5.858,0.0030743,0,0,0,0
154.56,0.049699,5.8901,0.0030085,0,0,0,0
155.56,0.05109,5.9251,0.0031082,0,0,0,0
156.56,0.051623,5.9591,0.0031411,0,0,0,0
157.56,0.05232,5.9924,0.0034371,0,0,0,0
158.56,0.05285,6.0251,0.0035039,0,0,0,0
159.56,0.053745,6.0566,0.0040647,0,0,0,0
160.56,0.055038,6.0891,0.0044272,0,0,0,0
161.56,0.056858,6.1214,0.0043933,0,0,0,0
162.56,0.05868,6.1523,0.0042948,0,0,0,0
163.56,0.060602,6.1829,0.004229,0,0,0,0
164.56,0.062324,6.2141,0.0040976,0,0,0,0
165.56,0.063383,6.2451,0.0040976,0,0,0,0
166.56,0.064542,6.2759,0.0041305,0,0,0,0
167.56,0.065967,6.3069,0.0043276,0,0,0,0
168.56,0.067689,6.3359,0.0050204,0,0,0,0
169.56,0.069542,6.3661,0.0052502,0,0,0,0
170.56,0.071729,6.3961,0.005646,0,0,0,0
171.56,0.073649,6.425,0.0060079,0,0,0,0
172.56,0.07504,6.4539,0.0060079,0,0,0,0
173.56,0.076332,6.4829,0.0058429,0,0,0,0
174.56,0.077624,6.5119,0.0058429,0,0,0,0
175.56,0.079414,6.5409,0.0057445,0,0,0,0
176.56,0.081169,6.5691,0.0058101,0,0,0,0
177.56,0.083587,6.5966,0.0062385,0,0,0,0
178.56,0.086302,6.6246,0.0065674,0,0,0,0
179.56,0.088885,6.6523,0.0072576,0,0,0,0
180.56,0.09094,6.679,0.0077509,0,0,0,0
181.56,0.092794,6.7059,0.0082429,0,0,0,0
182.56,0.094551,6.7329,0.0082102,0,0,0,0
183.56,0.096506,6.7599,0.0081775,0,0,0,0
184.56,0.098658,6.7869,0.0079473,0,0,0,0
185.56,0.10124,6.8136,0.0078164,0,0,0,0
186.56,0.10393,6.8383,0.0077509,0,0,0,0
187.56,0.10585,6.8656,0.0083431,0,0,0,0
188.56,0.10794,6.8916,0.0085722,0,0,0,0
189.56,0.10963,6.9154,0.0092947,0,0,0,0
190.56,0.11178,6.9407,0.009983,0,0,0,0
191.56,0.11403,6.967,0.010573,0,0,0,0
192.56,0.11675,6.9907,0.010606,0,0,0,0
193.56,0.1202,7.0156,0.010606,0,0,0,0
194.56,0.12318,7.0406,0.010278,0,0,0,0
195.56,0.12566,7.064,0.0099503,0,0,0,0
196.56,0.12815,7.0899,0.010115,0,0,0,0
197.56,0.13034,7.1139,0.010344,0,0,0,0
198.56,0.13239,7.1354,0.010737,0,0,0,0
199.56,0.13554,7.1597,0.011458,0,0,0,0
200.56,0.13869,7.1846,0.012014,0,0,0,0
201.56,0.1419,7.207,0.012734,0,0,0,0
202.56,0.14445,7.2303,0.012667,0,0,0,0
203.56,0.14627,7.2536,0.012734,0,0,0,0
204.56,0.14839,7.2756,0.012602,0,0,0,0
205.56,0.15081,7.2996,0.012374,0,0,0,0
206.56,0.15373,7.3219,0.012407,0,0,0,0
207.56,0.15701,7.3431,0.012504,0,0,0,0
208.56,0.16058,7.3651,0.012994,0,0,0,0
209.56,0.1635,7.3876,0.01355,0,0,0,0
210.56,0.16628,7.4094,0.014235,0,0,0,0
211.56,0.16906,7.4309,0.014627,0,0,0,0
212.56,0.17174,7.4529,0.014986,0,0,0,0
213.56,0.17456,7.4733,0.015051,0,0,0,0
214.56,0.1783,7.4966,0.014986,0,0,0,0
215.56,0.18208,7.5179,0.014725,0,0,0,0
216.56,0.18532,7.5374,0.014823,0,0,0,0
217.56,0.18824,7.5591,0.014759,0,0,0,0
218.56,0.19062,7.5817,0.01541,0,0,0,0
219.56,0.19334,7.602,0.015997,0,0,0,0
220.56,0.19665,7.6229,0.016485,0,0,0,0
221.56,0.20036,7.6436,0.017039,0,0,0,0
222.56,0.20377,7.663,0.017625,0,0,0,0
223.56,0.20702,7.6846,0.017429,0,0,0,0
224.56,0.20947,7.7046,0.01756,0,0,0,0
225.56,0.21232,7.7231,0.01756,0,0,0,0
226.56,0.21536,7.7431,0.01756,0,0,0,0
227.56,0.21851,7.7633,0.017691,0,0,0,0
228.56,0.22278,7.7827,0.018016,0,0,0,0
229.56,0.22649,7.8023,0.018406,0,0,0,0
230.56,0.22984,7.8213,0.019121,0,0,0,0
231.56,0.23289,7.8397,0.019738,0,0,0,0
232.56,0.23583,7.8599,0.019867,0,0,0,0
233.56,0.23915,7.8789,0.020225,0,0,0,0
234.56,0.24315,7.8961,0.02016,0,0,0,0
235.56,0.24719,7.9144,0.02029,0,0,0,0
236.56,0.2509,7.934,0.020323,0,0,0,0
237.56,0.25415,7.9521,0.020583,0,0,0,0
238.56,0.2573,7.9696,0.020907,0,0,0,0
239.56,0.26015,7.9879,0.021426,0,0,0,0
240.56,0.26366,8.0054,0.021977,0,0,0,0
241.56,0.26767,8.0243,0.022366,0,0,0,0
242.56,0.27141,8.0426,0.022527,0,0,0,0
243.56,0.27479,8.0589,0.022916,0,0,0,0
244.56,0.27793,8.0761,0.022981,0,0,0,0
245.56,0.28112,8.0947,0.022981,0,0,0,0
246.56,0.28453,8.1114,0.023434,0,0,0,0
247.56,0.2883,8.1286,0.023693,0,0,0,0
248.56,0.29257,8.1463,0.023791,0,0,0,0
249.56,0.29648,8.1624,0.024374,0,0,0,0
250.56,0.30013,8.1803,0.024922,0,0,0,0
251.56,0.30321,8.1966,0.02531,0,0,0,0
252.56,0.30678,8.2119,0.025567,0,0,0,0
253.56,0.31043,8.2289,0.025987,0,0,0,0
254.56,0.315,8.246,0.025987,0,0,0,0
255.56,0.3194,8.2624,0.026084,0,0,0,0
256.56,0.32338,8.2786,0.026278,0,0,0,0
257.56,0.32675,8.2953,0.026663,0,0,0,0
258.56,0.33036,8.3107,0.027019,0,0,0,0
259.55,0.33404,8.3273,0.027437,0,0,0,0
260.56,0.33828,8.3433,0.027888,0,0,0,0
261.55,0.34272,8.3581,0.028178,0,0,0,0
262.56,0.34692,8.3734,0.028564,0,0,0,0
263.56,0.3503,8.39,0.028758,0,0,0,0
264.56,0.35378,8.4059,0.02879,0,0,0,0
265.56,0.35739,8.4206,0.029303,0,0,0,0
266.56,0.36136,8.4366,0.029497,0,0,0,0
267.55,0.3659,8.4507,0.029915,0,0,0,0
268.56,0.37017,8.4666,0.030267,0,0,0,0
269.56,0.37385,8.4823,0.030621,0,0,0,0
270.56,0.37736,8.4959,0.031103,0,0,0,0
271.56,0.38077,8.5109,0.031488,0,0,0,0
272.55,0.38491,8.5261,0.03168,0,0,0,0
273.55,0.38941,8.5401,0.032064,0,0,0,0
274.56,0.39418,8.5553,0.032289,0,0,0,0
275.56,0.39815,8.5696,0.032386,0,0,0,0
276.56,0.40193,8.5831,0.032577,0,0,0,0
277.55,0.40577,8.5983,0.033154,0,0,0,0
278.56,0.40971,8.6123,0.033346,0,0,0,0
279.55,0.41448,8.6251,0.033762,0,0,0,0
280.55,0.41935,8.6401,0.034275,0,0,0,0
281.55,0.42375,8.6544,0.034563,0,0,0,0
282.55,0.4274,8.6679,0.035043,0,0,0,0
283.55,0.43127,8.6817,0.035266,0,0,0,0
284.55,0.43545,8.6946,0.035458,0,0,0,0
285.56,0.44025,8.7077,0.035905,0,0,0,0
286.56,0.44508,8.7219,0.035936,0,0,0,0
287.55,0.44936,8.7356,0.036319,0,0,0,0
288.55,0.4532,8.7486,0.036926,0,0,0,0
289.56,0.45701,8.7619,0.037149,0,0,0,0
290.56,0.46115,8.7754,0.037661,0,0,0,0
291.55,0.46588,8.7886,0.038075,0,0,0,0
292.56,0.47069,8.8013,0.03852,0,0,0,0
293.56,0.47516,8.8143,0.038967,0,0,0,0
294.56,0.47887,8.8269,0.039318,0,0,0,0
295.55,0.48281,8.8403,0.039412,0,0,0,0
296.55,0.48672,8.8533,0.039921,0,0,0,0
297.55,0.49162,8.8649,0.04008,0,0,0,0
298.55,0.49659,8.8776,0.040366,0,0,0,0
299.55,0.50116,8.8909,0.040843,0,0,0,0
300.55,0.505,8.9023,0.041416,0,0,0,0
301.55,0.50894,8.9137,0.041767,0,0,0,0
302.55,0.51345,8.9261,0.042242,0,0,0,0
303.55,0.51838,8.9367,0.042814,0,0,0,0
304.55,0.52358,8.9496,0.043037,0,0,0,0
305.55,0.52802,8.9619,0.04367,0,0,0,0
306.55,0.53216,8.9734,0.043828,0,0,0,0
307.56,0.53624,8.9854,0.043924,0,0,0,0
308.56,0.54061,8.9971,0.044335,0,0,0,0
309.55,0.54558,9.0087,0.044843,0,0,0,0
310.55,0.55114,9.0207,0.045223,0,0,0,0
311.55,0.55594,9.0314,0.045635,0,0,0,0
312.55,0.56012,9.0424,0.046299,0,0,0,0
313.55,0.56396,9.0541,0.046584,0,0,0,0
314.55,0.56859,9.0656,0.047121,0,0,0,0
315.55,0.57356,9.0764,0.047531,0,0,0,0
316.55,0.57896,9.0877,0.047847,0,0,0,0
317.55,0.5835,9.0984,0.048163,0,0,0,0
318.55,0.58757,9.1094,0.048225,0,0,0,0
319.55,0.59184,9.1207,0.048731,0,0,0,0
320.55,0.59638,9.1314,0.049172,0,0,0,0
321.55,0.60161,9.141,0.049614,0,0,0,0
322.55,0.60678,9.1526,0.050086,0,0,0,0
323.55,0.61112,9.1631,0.050558,0,0,0,0
324.55,0.61526,9.1737,0.051063,0,0,0,0
325.55,0.61943,9.1847,0.051503,0,0,0,0
326.55,0.6241,9.1947,0.051787,0,0,0,0
327.55,0.6293,9.2047,0.05232,0,0,0,0
328.55,0.63443,9.2157,0.052508,0,0,0,0
329.55,0.6389,9.2261,0.053011,0,0,0,0
330.55,0.64314,9.2354,0.053293,0,0,0,0
331.55,0.64738,9.2461,0.053765,0,0,0,0
332.56,0.65212,9.2569,0.054173,0,0,0,0
333.55,0.65788,9.2667,0.054643,0,0,0,0
334.55,0.66301,9.2771,0.055239,0,0,0,0
335.55,0.66748,9.2861,0.055707,0,0,0,0
336.55,0.67205,9.2969,0.056208,0,0,0,0
337.55,0.67672,9.3067,0.056584,0,0,0,0
338.55,0.68185,9.3161,0.056897,0,0,0,0
339.55,0.68748,9.326,0.05721,0,0,0,0
340.55,0.69238,9.3366,0.057805,0,0,0,0
341.55,0.69705,9.347,0.058209,0,0,0,0
342.55,0.70159,9.3556,0.058616,0,0,0,0
343.55,0.70636,9.3649,0.058928,0,0,0,0
344.55,0.71186,9.3749,0.059491,0,0,0,0
345.55,0.71745,9.3836,0.060209,0,0,0,0
346.55,0.72249,9.392,0.060831,0,0,0,0
347.55,0.72702,9.4004,0.061204,0,0,0,0
348.55,0.73163,9.4087,0.061672,0,0,0,0
349.55,0.73643,9.4189,0.062045,0,0,0,0
350.55,0.74219,9.4281,0.062355,0,0,0,0
351.55,0.74769,9.4367,0.062699,0,0,0,0
352.55,0.75249,9.4457,0.063133,0,0,0,0
353.55,0.75703,9.4541,0.063632,0,0,0,0
354.55,0.76176,9.4629,0.064221,0,0,0,0
355.55,0.76666,9.4721,0.064842,0,0,0,0
356.55,0.77266,9.4804,0.065307,0,0,0,0
357.55,0.77782,9.4887,0.065802,0,0,0,0
358.55,0.78246,9.4974,0.066174,0,0,0,0
359.55,0.78683,9.5059,0.06667,0,0,0,0
360.55,0.7915,9.5137,0.067042,0,0,0,0
361.55,0.79716,9.5229,0.067414,0,0,0,0
362.55,0.80246,9.5304,0.067971,0,0,0,0
363.55,0.80783,9.5387,0.068466,0,0,0,0
364.55,0.81243,9.547,0.068867,0,0,0,0
365.55,0.8169,9.5554,0.069423,0,0,0,0
366.55,0.82187,9.5641,0.070134,0,0,0,0
367.55,0.82747,9.5717,0.070782,0,0,0,0
368.55,0.83313,9.5801,0.071212,0,0,0,0
369.55,0.83817,9.5877,0.07146,0,0,0,0
370.55,0.84267,9.5954,0.071922,0,0,0,0
371.55,0.84727,9.603,0.072106,0,0,0,0
372.55,0.85277,9.6107,0.072846,0,0,0,0
373.55,0.8587,9.6184,0.073216,0,0,0,0
374.55,0.86403,9.6264,0.074016,0,0,0,0
375.55,0.8687,9.634,0.074723,0,0,0,0
376.55,0.87327,9.6417,0.075338,0,0,0,0
377.55,0.87844,9.6491,0.075736,0,0,0,0
378.55,0.88413,9.6557,0.075982,0,0,0,0
379.55,0.88976,9.6634,0.076288,0,0,0,0
380.55,0.89516,9.671,0.076749,0,0,0,0
381.55,0.9,9.6787,0.077576,0,0,0,0
382.55,0.90463,9.686,0.077821,0,0,0,0
383.55,0.90993,9.693,0.078587,0,0,0,0
384.55,0.91612,9.7004,0.079137,0,0,0,0
385.55,0.92189,9.7074,0.079751,0,0,0,0
386.55,0.92672,9.7137,0.080514,0,0,0,0
387.55,0.93182,9.7211,0.080942,0,0,0,0
388.55,0.93676,9.7281,0.081308,0,0,0,0
389.55,0.94262,9.7347,0.081583,0,0,0,0
390.55,0.94828,9.7417,0.081889,0,0,0,0
391.55,0.95381,9.7483,0.08259,0,0,0,0
392.55,0.95901,9.7557,0.083016,0,0,0,0
393.55,0.96364,9.7624,0.083838,0,0,0,0
394.55,0.96901,9.7687,0.084509,0,0,0,0
395.55,0.97517,9.7757,0.085087,0,0,0,0
396.55,0.9809,9.782,0.085544,0,0,0,0
397.55,0.98623,9.7884,0.08603,0,0,0,0
398.55,0.991,9.7947,0.086515,0,0,0,0
399.55,0.99613,9.8009,0.087122,0,0,0,0
400.55,1.0017,9.8076,0.087517,0,0,0,0
401.55,1.0079,9.814,0.088183,0,0,0,0
402.55,1.0137,9.82,0.088578,0,0,0,0
403.55,1.0185,9.8259,0.089334,0,0,0,0
404.55,1.0235,9.833,0.08976,0,0,0,0
405.55,1.0288,9.839,0.090335,0,0,0,0
406.55,1.0352,9.8443,0.09097,0,0,0,0
407.55,1.0411,9.8503,0.091695,0,0,0,0
408.55,1.0463,9.8566,0.092147,0,0,0,0
409.55,1.0513,9.8626,0.092903,0,0,0,0
410.55,1.0563,9.8686,0.093355,0,0,0,0
411.55,1.0624,9.875,0.093987,0,0,0,0
412.55,1.0683,9.8807,0.094471,0,0,0,0
413.55,1.0739,9.886,0.095072,0,0,0,0
414.55,1.0789,9.892,0.095404,0,0,0,0
415.55,1.084,9.8973,0.096125,0,0,0,0
416.55,1.0896,9.9026,0.096608,0,0,0,0
417.55,1.0956,9.9086,0.097298,0,0,0,0
418.55,1.1015,9.9143,0.097899,0,0,0,0
419.55,1.1066,9.9196,0.098679,0,0,0,0
420.55,1.1117,9.925,0.099279,0,0,0,0
421.55,1.117,9.93,0.099787,0,0,0,0
422.55,1.1229,9.9353,0.10042,0,0,0,0
423.55,1.129,9.941,0.10105,0,0,0,0
424.55,1.1347,9.9459,0.10156,0,0,0,0
425.55,1.1398,9.9513,0.10188,0,0,0,0
426.55,1.1449,9.9566,0.10272,0,0,0,0
427.55,1.1505,9.9619,0.10335,0,0,0,0
428.55,1.1569,9.9673,0.10386,0,0,0,0
429.55,1.1627,9.9716,0.10463,0,0,0,0
430.55,1.168,9.9764,0.10535,0,0,0,0
431.55,1.1729,9.9807,0.10597,0,0,0,0
432.55,1.1783,9.9857,0.10654,0,0,0,0
433.55,1.1845,9.9907,0.10713,0,0,0,0
434.55,1.1909,9.9957,0.10782,0,0,0,0
435.55,1.1967,10.001,0.10838,0,0,0,0
436.55,1.2016,10.005,0.10901,0,0,0,0
437.55,1.2068,10.01,0.10987,0,0,0,0
438.55,1.2128,10.015,0.11028,0,0,0,0
439.55,1.2188,10.019,0.11096,0,0,0,0
440.55,1.2251,10.024,0.11176,0,0,0,0
441.55,1.2304,10.028,0.11233,0,0,0,0
442.55,1.2356,10.032,0.11318,0,0,0,0
443.55,1.241,10.037,0.11369,0,0,0,0
444.55,1.2473,10.041,0.11431,0,0,0,0
445.55,1.2539,10.046,0.11507,0,0,0,0
446.55,1.2594,10.05,0.11569,0,0,0,0
447.55,1.2646,10.054,0.11646,0,0,0,0
448.55,1.2703,10.059,0.11732,0,0,0,0
449.55,1.2762,10.063,0.11785,0,0,0,0
450.55,1.2829,10.067,0.11876,0,0,0,0
451.55,1.2886,10.071,0.11932,0,0,0,0
452.55,1.294,10.075,0.11984,0,0,0,0
453.55,1.2992,10.079,0.12058,0,0,0,0
454.55,1.3053,10.083,0.12157,0,0,0,0
455.55,1.312,10.087,0.12202,0,0,0,0
456.55,1.318,10.09,0.12246,0,0,0,0
457.55,1.3234,10.094,0.12333,0,0,0,0
458.55,1.3286,10.099,0.12415,0,0,0,0
459.55,1.3345,10.102,0.12494,0,0,0,0
460.55,1.341,10.106,0.12588,0,0,0,0
461.55,1.3475,10.109,0.12652,0,0,0,0
462.55,1.3532,10.113,0.12736,0,0,0,0
463.55,1.3584,10.117,0.12792,0,0,0,0
464.55,1.3641,10.12,0.12859,0,0,0,0
465.55,1.3703,10.123,0.12923,0,0,0,0
466.55,1.377,10.126,0.12998,0,0,0,0
467.55,1.3827,10.13,0.13059,0,0,0,0
468.55,1.3882,10.134,0.13126,0,0,0,0
469.55,1.3935,10.137,0.13239,0,0,0,0
470.55,1.3997,10.14,0.13312,0,0,0,0
471.55,1.4062,10.144,0.13396,0,0,0,0
472.55,1.4126,10.147,0.13474,0,0,0,0
473.55,1.418,10.15,0.13555,0,0,0,0
474.55,1.4236,10.153,0.1361,0,0,0,0
475.55,1.4293,10.156,0.13674,0,0,0,0
476.55,1.4362,10.159,0.13763,0,0,0,0
477.55,1.4423,10.162,0.13847,0,0,0,0
478.55,1.4482,10.165,0.13904,0,0,0,0
479.55,1.4535,10.168,0.13999,0,0,0,0
480.55,1.4595,10.171,0.14094,0,0,0,0
481.55,1.466,10.174,0.14192,0,0,0,0
482.55,1.4727,10.177,0.14275,0,0,0,0
483.55,1.4785,10.179,0.14356,0,0,0,0
484.55,1.484,10.182,0.14436,0,0,0,0
485.55,1.4899,10.185,0.14511,0,0,0,0
486.55,1.4963,10.188,0.1459,0,0,0,0
487.55,1.503,10.191,0.14673,0,0,0,0
488.55,1.5089,10.193,0.14762,0,0,0,0
489.55,1.5146,10.195,0.14856,0,0,0,0
490.55,1.5204,10.198,0.14953,0,0,0,0
491.55,1.5265,10.2,0.15047,0,0,0,0
492.55,1.5334,10.203,0.15119,0,0,0,0
493.55,1.5396,10.205,0.15207,0,0,0,0
494.55,1.5454,10.207,0.15284,0,0,0,0
495.55,1.551,10.209,0.15355,0,0,0,0
496.55,1.5571,10.211,0.15434,0,0,0,0
497.55,1.5638,10.214,0.15525,0,0,0,0
498.55,1.5701,10.216,0.15618,0,0,0,0
499.55,1.5759,10.218,0.15723,0,0,0,0
500.55,1.5814,10.22,0.15808,0,0,0,0
501.55,1.5876,10.222,0.15918,0,0,0,0
502.55,1.5943,10.223,0.16011,0,0,0,0
503.55,1.6007,10.225,0.16118,0,0,0,0
504.55,1.6067,10.227,0.16197,0,0,0,0
505.55,1.6124,10.229,0.16296,0,0,0,0
506.55,1.6183,10.231,0.16377,0,0,0,0
507.55,1.6249,10.233,0.16478,0,0,0,0
508.55,1.6316,10.234,0.16566,0,0,0,0
509.55,1.6377,10.236,0.1665,0,0,0,0
510.55,1.6432,10.237,0.1675,0,0,0,0
511.55,1.649,10.239,0.16846,0,0,0,0
512.55,1.6557,10.241,0.16949,0,0,0,0
513.55,1.6624,10.242,0.1705,0,0,0,0
514.55,1.6687,10.244,0.17139,0,0,0,0
515.55,1.6744,10.245,0.17259,0,0,0,0
516.55,1.6801,10.247,0.17354,0,0,0,0
517.55,1.6868,10.248,0.17462,0,0,0,0
518.55,1.6936,10.25,0.17551,0,0,0,0
519.55,1.6999,10.251,0.17668,0,0,0,0
520.55,1.7059,10.252,0.17773,0,0,0,0
521.55,1.7115,10.254,0.17873,0,0,0,0
522.55,1.7182,10.255,0.17964,0,0,0,0
523.55,1.7251,10.256,0.18069,0,0,0,0
524.55,1.7315,10.257,0.1816,0,0,0,0
525.55,1.7376,10.258,0.18249,0,0,0,0
526.55,1.7436,10.259,0.18351,0,0,0,0
527.55,1.75,10.26,0.18436,0,0,0,0
528.55,1.7569,10.261,0.18535,0,0,0,0
529.55,1.764,10.262,0.18648,0,0,0,0
530.55,1.7698,10.263,0.18788,0,0,0,0
531.55,1.7755,10.263,0.18867,0,0,0,0
532.55,1.782,10.264,0.19002,0,0,0,0
533.55,1.7889,10.265,0.19095,0,0,0,0
534.55,1.7958,10.265,0.19207,0,0,0,0
535.55,1.8021,10.266,0.19303,0,0,0,0
536.55,1.8078,10.266,0.19428,0,0,0,0
537.55,1.8142,10.267,0.19537,0,0,0,0
538.55,1.8215,10.268,0.19665,0,0,0,0
539.55,1.8282,10.268,0.19777,0,0,0,0
540.55,1.8343,10.268,0.19882,0,0,0,0
541.55,1.8403,10.268,0.2001,0,0,0,0
542.55,1.8465,10.268,0.20121,0,0,0,0
543.55,1.8538,10.269,0.20235,0,0,0,0
544.55,1.8607,10.269,0.20343,0,0,0,0
545.55,1.8667,10.269,0.2047,0,0,0,0
546.55,1.8729,10.269,0.20594,0,0,0,0
547.55,1.8792,10.269,0.20731,0,0,0,0
548.55,1.8866,10.269,0.20849,0,0,0,0
549.55,1.8931,10.269,0.20992,0,0,0,0
550.55,1.8994,10.268,0.21145,0,0,0,0
551.55,1.9054,10.268,0.21254,0,0,0,0
552.55,1.9116,10.268,0.21377,0,0,0,0
553.55,1.9187,10.268,0.21495,0,0,0,0
554.55,1.9258,10.268,0.21628,0,0,0,0
555.55,1.932,10.268,0.2177,0,0,0,0
556.55,1.938,10.267,0.21889,0,0,0,0
557.55,1.9444,10.267,0.22009,0,0,0,0
558.55,1.9517,10.266,0.22136,0,0,0,0
559.55,1.9586,10.265,0.22258,0,0,0,0
560.55,1.965,10.265,0.22378,0,0,0,0
561.55,1.9711,10.264,0.22502,0,0,0,0
562.55,1.9776,10.264,0.22624,0,0,0,0
563.55,1.9848,10.263,0.22766,0,0,0,0
564.55,1.9919,10.262,0.22919,0,0,0,0
565.55,1.9983,10.261,0.23071,0,0,0,0
566.55,2.0044,10.26,0.23198,0,0,0,0
567.55,2.011,10.259,0.23342,0,0,0,0
568.55,2.0179,10.258,0.23478,0,0,0,0
569.55,2.0253,10.257,0.23609,0,0,0,0
570.55,2.0316,10.256,0.23737,0,0,0,0
571.55,2.0376,10.254,0.2387,0,0,0,0
572.55,2.0442,10.253,0.24026,0,0,0,0
573.55,2.0514,10.252,0.24164,0,0,0,0
574.55,2.0588,10.251,0.24307,0,0,0,0
575.55,2.065,10.25,0.24463,0,0,0,0
576.55,2.0711,10.248,0.24618,0,0,0,0
577.55,2.0777,10.246,0.24763,0,0,0,0
578.55,2.0851,10.244,0.24913,0,0,0,0
579.55,2.092,10.242,0.25057,0,0,0,0
580.55,2.0983,10.241,0.25191,0,0,0,0
581.55,2.1042,10.24,0.25361,0,0,0,0
582.55,2.1109,10.238,0.25525,0,0,0,0
583.55,2.1183,10.236,0.25674,0,0,0,0
584.55,2.1255,10.234,0.25827,0,0,0,0
585.55,2.1317,10.232,0.25988,0,0,0,0
586.55,2.138,10.23,0.26134,0,0,0,0
587.55,2.1447,10.228,0.2631,0,0,0,0
588.55,2.1522,10.226,0.26465,0,0,0,0
589.55,2.1593,10.224,0.26642,0,0,0,0
590.55,2.1654,10.222,0.26797,0,0,0,0
591.55,2.1719,10.219,0.26964,0,0,0,0
592.55,2.1785,10.217,0.27123,0,0,0,0
593.55,2.1859,10.215,0.273,0,0,0,0
594.55,2.193,10.212,0.27476,0,0,0,0
595.55,2.1995,10.21,0.27677,0,0,0,0
596.55,2.2057,10.207,0.27853,0,0,0,0
597.55,2.2126,10.205,0.28018,0,0,0,0
598.55,2.2199,10.202,0.2818,0,0,0,0
599.55,2.2274,10.2,0.2834,0,0,0,0
600.55,2.2336,10.196,0.28515,0,0,0,0
601.55,2.2397,10.193,0.28714,0,0,0,0
602.55,2.2469,10.19,0.2892,0,0,0,0
603.55,2.2543,10.187,0.29093,0,0,0,0
604.55,2.2615,10.184,0.29264,0,0,0,0
605.55,2.2674,10.181,0.29434,0,0,0,0
606.55,2.2742,10.177,0.29585,0,0,0,0
607.55,2.2815,10.174,0.29752,0,0,0,0
608.55,2.2889,10.171,0.29951,0,0,0,0
609.55,2.2957,10.167,0.3014,0,0,0,0
610.55,2.3019,10.163,0.30316,0,0,0,0
611.55,2.3085,10.16,0.30521,0,0,0,0
612.55,2.3158,10.156,0.30724,0,0,0,0
613.55,2.3233,10.153,0.30899,0,0,0,0
614.55,2.3301,10.148,0.31098,0,0,0,0
615.55,2.3362,10.145,0.31323,0,0,0,0
616.55,2.343,10.141,0.31505,0,0,0,0
617.55,2.3505,10.137,0.31722,0,0,0,0
618.55,2.3577,10.133,0.31943,0,0,0,0
619.55,2.3645,10.128,0.32131,0,0,0,0
620.55,2.371,10.124,0.32332,0,0,0,0
621.55,2.3772,10.12,0.3256,0,0,0,0
622.55,2.3849,10.115,0.32779,0,0,0,0
623.55,2.3924,10.111,0.33011,0,0,0,0
624.55,2.3991,10.107,0.33201,0,0,0,0
625.55,2.4052,10.102,0.33433,0,0,0,0
626.55,2.4119,10.097,0.33634,0,0,0,0
627.55,2.4195,10.091,0.33823,0,0,0,0
628.55,2.4269,10.086,0.34031,0,0,0,0
629.55,2.4332,10.082,0.34294,0,0,0,0
630.55,2.4397,10.077,0.34489,0,0,0,0
631.55,2.4466,10.072,0.3471,0,0,0,0
632.55,2.4542,10.067,0.34927,0,0,0,0
633.55,2.4617,10.061,0.35181,0,0,0,0
634.55,2.4681,10.056,0.35437,0,0,0,0
635.55,2.4745,10.051,0.35651,0,0,0,0
636.55,2.4814,10.045,0.35864,0,0,0,0
637.55,2.489,10.039,0.36053,0,0,0,0
638.55,2.4962,10.034,0.36293,0,0,0,0
639.55,2.5027,10.028,0.36542,0,0,0,0
640.55,2.5091,10.022,0.3679,0,0,0,0
641.55,2.5165,10.016,0.37055,0,0,0,0
642.55,2.5243,10.01,0.37327,0,0,0,0
643.55,2.531,10.004,0.37561,0,0,0,0
644.55,2.5377,9.9976,0.37827,0,0,0,0
645.55,2.5443,9.9906,0.38036,0,0,0,0
646.55,2.5516,9.9833,0.38264,0,0,0,0
647.55,2.5594,9.9766,0.38542,0,0,0,0
648.55,2.5664,9.9699,0.38798,0,0,0,0
649.55,2.5732,9.9626,0.39065,0,0,0,0
650.55,2.5798,9.9553,0.39304,0,0,0,0
651.55,2.5872,9.9483,0.39514,0,0,0,0
652.55,2.5946,9.9409,0.39739,0,0,0,0
653.55,2.6018,9.9333,0.40033,0,0,0,0
654.55,2.6082,9.9256,0.40301,0,0,0,0
655.55,2.6152,9.9186,0.40642,0,0,0,0
656.55,2.6227,9.9103,0.40952,0,0,0,0
657.55,2.6303,9.9019,0.41196,0,0,0,0
658.55,2.6372,9.8943,0.41525,0,0,0,0
659.55,2.6438,9.8853,0.41778,0,0,0,0
660.55,2.6506,9.8773,0.42107,0,0,0,0
661.55,2.6585,9.8693,0.4251,0,0,0,0
662.55,2.666,9.8599,0.42823,0,0,0,0
663.55,2.6726,9.8509,0.43144,0,0,0,0
664.55,2.6792,9.8423,0.43485,0,0,0,0
665.55,2.6866,9.8333,0.43863,0,0,0,0
666.55,2.6942,9.8239,0.44157,0,0,0,0
667.55,2.7017,9.8143,0.44472,0,0,0,0
668.55,2.7086,9.804,-Inf,0,0,0,0
669.55,2.7151,9.7946,-Inf,0,0,0,0
670.55,2.7226,9.7844,-Inf,0,0,0,0
671.55,2.7306,9.7736,-Inf,0,0,0,0
672.55,2.7378,9.7639,-Inf,0,0,0,0
673.55,2.7444,9.7531,-Inf,0,0,0,0
674.55,2.7513,9.7417,-Inf,0,0,0,0
675.55,2.7594,9.7311,-Inf,0,0,0,0
676.55,2.767,9.7199,-Inf,0,0,0,0
677.55,2.7742,9.7074,-Inf,0,0,0,0
678.55,2.7806,9.6961,-Inf,0,0,0,0
679.55,2.788,9.6837,-Inf,0,0,0,0
680.55,2.796,9.6709,-Inf,0,0,0,0
681.55,2.8039,9.6579,-Inf,0,0,0,0
682.55,2.8109,9.6443,-Inf,0,0,0,0
683.55,2.8175,9.6314,-Inf,0,0,0,0
684.55,2.8249,9.6183,-Inf,0,0,0,0
685.55,2.833,9.6046,-Inf,0,0,0,0
686.55,2.8407,9.5897,-Inf,0,0,0,0
687.55,2.8472,9.5761,-Inf,0,0,0,0
688.55,2.8543,9.5617,-Inf,0,0,0,0
689.55,2.8621,9.5461,-Inf,0,0,0,0
690.55,2.8705,9.5304,-Inf,0,0,0,0
691.55,2.8778,9.5147,-Inf,0,0,0,0
692.55,2.8847,9.4984,-Inf,0,0,0,0
693.55,2.892,9.4823,-Inf,0,0,0,0
694.55,2.8999,9.4646,-Inf,0,0,0,0
695.55,2.9081,9.4457,-Inf,0,0,0,0
696.55,2.9151,9.4281,-Inf,0,0,0,0
697.55,2.9226,9.4094,-Inf,0,0,0,0
698.55,2.9303,9.3886,-Inf,0,0,0,0
699.55,2.9384,9.3669,-Inf,0,0,0,0
700.55,2.9467,9.3446,-Inf,0,0,0,0
701.55,2.9555,9.3144,-Inf,0,0,0,0
702.55,2.9812,9.266,-Inf,0,0,0,0