File: polyN_optimization/DP600_results/DATA/NT20_00_1.csv
Time[s],Displacement[mm],Force[kN],AxStrain_1,AxStrain_2,Thickness[mm],OuterWidth[mm],InnerWidth[mm]
0.65,0,-0.016605,0,0,1.5269,20,10.006
1.65,0.00015,-0.02071,-0.00014001,0,0,0,0
2.65,0.000294,0.017133,-0.00022302,0,0,0,0
3.65,0.000594,0.078705,-0.00013401,0,0,0,0
4.64,0.000661,0.13256,-0.00018802,0,0,0,0
5.64,0.000849,0.18113,-7.0002e-05,0,0,0,0
6.64,0.000949,0.224,-1.9e-05,0,0,0,0
7.64,0.000897,0.26256,1.1e-05,0,0,0,0
8.64,0.001088,0.29514,0.00011899,0,0,0,0
9.64,0.001213,0.33157,3.6999e-05,0,0,0,0
10.64,0.00142,0.36885,0.00031595,0,0,0,0
11.64,0.001568,0.405,0.00020198,0,0,0,0
12.64,0.001882,0.44242,0.00033394,0,0,0,0
13.64,0.002185,0.47871,-6.2002e-05,0,0,0,0
14.64,0.002428,0.51399,-7e-06,0,0,0,0
15.64,0.002476,0.54757,8.2997e-05,0,0,0,0
16.64,0.002393,0.58456,-5.3001e-05,0,0,0,0
17.64,0.002602,0.61914,6.9998e-05,0,0,0,0
18.64,0.002771,0.65685,-1e-05,0,0,0,0
19.64,0.002652,0.69485,0.00025797,0,0,0,0
20.64,0.00289,0.73242,0.00020898,0,0,0,0
21.64,0.002903,0.77171,0.00031495,0,0,0,0
22.64,0.003072,0.81142,0.00021198,0,0,0,0
23.64,0.003804,0.84928,0.00017498,0,0,0,0
24.64,0.004052,0.88757,0.00015899,0,0,0,0
25.64,0.00441,0.92928,0.00018498,0,0,0,0
26.64,0.004476,0.96728,-0.00010601,0,0,0,0
27.64,0.004628,1.0073,5.9998e-05,0,0,0,0
28.64,0.004575,1.0469,3.2999e-05,0,0,0,0
29.64,0.004562,1.085,0,0,0,0,0
30.64,0.004684,1.1251,0.00031495,0,0,0,0
31.64,0.004744,1.1651,0.00024797,0,0,0,0
32.65,0.00481,1.205,0.00021898,0,0,0,0
33.65,0.005277,1.2439,0.00023197,0,0,0,0
34.65,0.005774,1.2857,0.00011899,0,0,0,0
35.64,0.006184,1.324,0.00022797,0,0,0,0
36.65,0.006677,1.3646,-4.0001e-05,0,0,0,0
37.65,0.006694,1.4049,0.00011899,0,0,0,0
38.65,0.006518,1.4437,1.7e-05,0,0,0,0
39.64,0.006472,1.4844,0.00016899,0,0,0,0
40.65,0.006456,1.5247,0.00012899,0,0,0,0
41.64,0.0063,1.5636,0.00029096,0,0,0,0
42.65,0.006432,1.6016,0.00027096,0,0,0,0
43.65,0.006777,1.6433,0.00025197,0,0,0,0
44.65,0.007323,1.6821,0.00014599,0,0,0,0
45.64,0.008078,1.7221,0.00020198,0,0,0,0
46.64,0.008528,1.7623,9.5995e-05,0,0,0,0
47.65,0.008515,1.8007,-1.3e-05,0,0,0,0
48.65,0.008551,1.8407,0.00011299,0,0,0,0
49.64,0.008323,1.8804,3e-05,0,0,0,0
50.65,0.008286,1.919,9.8995e-05,0,0,0,0
51.65,0.008197,1.9569,0.00022797,0,0,0,0
52.64,0.00827,1.9983,0.00036793,0,0,0,0
53.64,0.008531,2.0356,0.00033394,0,0,0,0
54.65,0.009054,2.0753,0.00037693,0,0,0,0
55.64,0.00976,2.1153,0.0004569,0,0,0,0
56.64,0.010544,2.1537,0.00023797,0,0,0,0
57.64,0.011031,2.1937,0.00032795,0,0,0,0
58.64,0.010922,2.2327,0.00015199,0,0,0,0
59.64,0.010696,2.271,0.00021498,0,0,0,0
60.65,0.010302,2.3089,0.00031795,0,0,0,0
61.64,0.010442,2.3496,0.00029796,0,0,0,0
62.65,0.010306,2.3873,0.0004499,0,0,0,0
63.64,0.010478,2.4266,0.00048988,0,0,0,0
64.64,0.010928,2.4666,0.00057583,0,0,0,0
65.64,0.011878,2.5054,0.00070175,0,0,0,0
66.64,0.012484,2.5451,0.00071474,0,0,0,0
67.64,0.013355,2.5847,0.00040392,0,0,0,0
68.64,0.01364,2.6233,0.0004539,0,0,0,0
69.64,0.01314,2.6606,0.0004369,0,0,0,0
70.64,0.013083,2.7013,0.00050287,0,0,0,0
71.64,0.012812,2.7386,0.00038393,0,0,0,0
72.64,0.01255,2.7776,0.00046689,0,0,0,0
73.64,0.012626,2.8169,0.00050287,0,0,0,0
74.64,0.0131,2.8547,0.00053985,0,0,0,0
75.64,0.013739,2.894,0.00074772,0,0,0,0
76.64,0.014705,2.934,0.00064579,0,0,0,0
77.64,0.015503,2.9723,0.00073773,0,0,0,0
78.64,0.015841,3.0099,0.00046989,0,0,0,0
79.64,0.015854,3.0513,0.00037693,0,0,0,0
80.64,0.015583,3.0881,0.00049688,0,0,0,0
81.64,0.015328,3.1276,0.00042691,0,0,0,0
82.64,0.014937,3.1666,0.00054985,0,0,0,0
83.64,0.014974,3.2044,0.00056884,0,0,0,0
84.64,0.015417,3.2437,0.00067177,0,0,0,0
85.64,0.016073,3.2827,0.00081067,0,0,0,0
86.64,0.017049,3.3203,0.00073173,0,0,0,0
87.64,0.017715,3.3579,0.00071774,0,0,0,0
88.64,0.018377,3.3993,0.00074172,0,0,0,0
89.64,0.018476,3.4366,0.00082766,0,0,0,0
90.64,0.018483,3.4759,0.00069876,0,0,0,0
91.64,0.018158,3.5151,0.00070475,0,0,0,0
92.64,0.017712,3.5527,0.00065479,0,0,0,0
93.64,0.017861,3.5914,0.00069876,0,0,0,0
94.64,0.018142,3.6304,0.0006358,0,0,0,0
95.64,0.018744,3.668,0.00091658,0,0,0,0
96.64,0.019552,3.7046,0.00081367,0,0,0,0
97.64,0.020446,3.7453,0.00073473,0,0,0,0
98.64,0.021108,3.7819,0.00084364,0,0,0,0
99.64,0.021406,3.8206,0.00083065,0,0,0,0
100.64,0.021552,3.8596,0.00071774,0,0,0,0
101.64,0.021406,3.8967,0.00066478,0,0,0,0
102.64,0.021237,3.9354,0.00069176,0,0,0,0
103.64,0.020923,3.9734,0.00073173,0,0,0,0
104.64,0.021353,4.0103,0.00075472,0,0,0,0
105.64,0.021698,4.0473,0.00085064,0,0,0,0
106.64,0.022664,4.087,0.0011054,0,0,0,0
107.64,0.023433,4.1229,0.0010155,0,0,0,0
108.64,0.024257,4.1609,0.0009995,0,0,0,0
109.64,0.024631,4.1989,0.00095954,0,0,0,0
110.64,0.024777,4.2357,0.0008936,0,0,0,0
111.64,0.024909,4.2737,0.00082766,0,0,0,0
112.64,0.025111,4.3114,0.00079468,0,0,0,0
113.64,0.024849,4.348,0.00092657,0,0,0,0
114.64,0.025127,4.3839,0.0010255,0,0,0,0
115.64,0.025392,4.4229,0.0012243,0,0,0,0
116.64,0.02622,4.4593,0.0010924,0,0,0,0
117.64,0.027048,4.4966,0.0012572,0,0,0,0
118.64,0.027677,4.5339,0.0015548,0,0,0,0
119.64,0.028272,4.5711,0.0013561,0,0,0,0
120.64,0.028537,4.6081,0.0012902,0,0,0,0
121.64,0.028935,4.644,0.0013561,0,0,0,0
122.64,0.029199,4.6799,0.0012572,0,0,0,0
123.64,0.029564,4.7151,0.0012572,0,0,0,0
124.64,0.029663,4.7536,0.0013561,0,0,0,0
125.64,0.030424,4.7886,0.001389,0,0,0,0
126.64,0.031053,4.8251,0.0014889,0,0,0,0
127.64,0.031583,4.8619,0.0015548,0,0,0,0
128.64,0.032411,4.8976,0.0016207,0,0,0,0
129.64,0.032742,4.9331,0.0017535,0,0,0,0
130.64,0.033172,4.968,0.0017535,0,0,0,0
131.64,0.033867,5.0019,0.0016866,0,0,0,0
132.64,0.034496,5.0387,0.0015218,0,0,0,0
133.64,0.035026,5.0743,0.0014889,0,0,0,0
134.64,0.035986,5.1071,0.001423,0,0,0,0
135.64,0.036781,5.1429,0.0016536,0,0,0,0
136.64,0.037509,5.1799,0.0018852,0,0,0,0
137.64,0.037973,5.2139,0.0019182,0,0,0,0
138.64,0.038304,5.2491,0.0020838,0,0,0,0
139.64,0.039032,5.2834,0.0023472,0,0,0,0
140.64,0.039694,5.3173,0.0024799,0,0,0,0
141.64,0.040423,5.353,0.0023812,0,0,0,0
142.64,0.041548,5.388,0.0022814,0,0,0,0
143.64,0.042674,5.4206,0.002018,0,0,0,0
144.64,0.044329,5.4549,0.0021826,0,0,0,0
145.64,0.04572,5.4909,0.0023143,0,0,0,0
146.64,0.046945,5.5239,0.0026116,0,0,0,0
147.64,0.047474,5.5579,0.0026784,0,0,0,0
148.64,0.047905,5.5907,0.0027113,0,0,0,0
149.64,0.048236,5.6229,0.0031072,0,0,0,0
150.64,0.049163,5.6577,0.0032397,0,0,0,0
151.64,0.050189,5.691,0.0035357,0,0,0,0
152.64,0.051911,5.7204,0.0033713,0,0,0,0
153.64,0.053864,5.7529,0.0032069,0,0,0,0
154.64,0.055585,5.7861,0.0032726,0,0,0,0
155.64,0.057009,5.8169,0.0034371,0,0,0,0
156.64,0.058333,5.8489,0.0035357,0,0,0,0
157.64,0.059392,5.879,0.0039323,0,0,0,0
158.64,0.060518,5.9091,0.0042619,0,0,0,0
159.64,0.061743,5.9413,0.0045586,0,0,0,0
160.64,0.063067,5.972,0.004888,0,0,0,0
161.64,0.064954,6.0001,0.0049537,0,0,0,0
162.64,0.066742,6.0306,0.0048214,0,0,0,0
163.64,0.068298,6.0611,0.0048552,0,0,0,0
164.64,0.069754,6.0899,0.004888,0,0,0,0
165.64,0.071344,6.1191,0.0049209,0,0,0,0
166.64,0.072899,6.1473,0.0050522,0,0,0,0
167.64,0.074687,6.1751,0.0053487,0,0,0,0
168.64,0.07674,6.2043,0.0056122,0,0,0,0
169.64,0.079289,6.233,0.0060735,0,0,0,0
170.64,0.081904,6.2589,0.0065008,0,0,0,0
171.64,0.083957,6.2861,0.0067303,0,0,0,0
172.64,0.085612,6.3151,0.00706,0,0,0,0
173.64,0.087135,6.3411,0.0067641,0,0,0,0
174.64,0.088824,6.3681,0.006468,0,0,0,0
175.64,0.090148,6.3943,0.006632,0,0,0,0
176.64,0.092399,6.42,0.0065664,0,0,0,0
177.64,0.095147,6.4476,0.00706,0,0,0,0
178.64,0.097763,6.4736,0.0074541,0,0,0,0
179.64,0.099716,6.4979,0.008111,0,0,0,0
180.64,0.1019,6.5241,0.0085057,0,0,0,0
181.64,0.10409,6.5507,0.0089974,0,0,0,0
182.64,0.10614,6.5749,0.0090628,0,0,0,0
183.64,0.10899,6.6009,0.0088993,0,0,0,0
184.64,0.11173,6.6249,0.008702,0,0,0,0
185.64,0.11471,6.6494,0.0086039,0,0,0,0
186.64,0.11759,6.675,0.0087684,0,0,0,0
187.64,0.12001,6.6993,0.0088993,0,0,0,0
188.64,0.1219,6.7221,0.0095889,0,0,0,0
189.64,0.12412,6.7464,0.009982,0,0,0,0
190.64,0.12614,6.7717,0.010473,0,0,0,0
191.64,0.12879,6.7949,0.010932,0,0,0,0
192.64,0.13183,6.8189,0.011095,0,0,0,0
193.64,0.13441,6.8416,0.011129,0,0,0,0
194.64,0.13676,6.8644,0.010899,0,0,0,0
195.64,0.13925,6.8886,0.010867,0,0,0,0
196.64,0.14189,6.9123,0.010801,0,0,0,0
197.64,0.14435,6.9331,0.011096,0,0,0,0
198.64,0.14722,6.9559,0.011424,0,0,0,0
199.64,0.1506,6.9794,0.012078,0,0,0,0
200.64,0.15414,7.0011,0.012665,0,0,0,0
201.64,0.15696,7.0241,0.013156,0,0,0,0
202.64,0.15961,7.0463,0.013286,0,0,0,0
203.64,0.16196,7.068,0.013418,0,0,0,0
204.64,0.16477,7.0911,0.013515,0,0,0,0
205.64,0.16775,7.1133,0.013221,0,0,0,0
206.64,0.17093,7.1329,0.013254,0,0,0,0
207.64,0.17434,7.1551,0.013156,0,0,0,0
208.64,0.17705,7.178,0.013549,0,0,0,0
209.64,0.1795,7.1984,0.014202,0,0,0,0
210.64,0.18192,7.2201,0.014723,0,0,0,0
211.64,0.1845,7.2406,0.01531,0,0,0,0
212.64,0.18748,7.261,0.015604,0,0,0,0
213.64,0.19119,7.2833,0.015539,0,0,0,0
214.64,0.19463,7.3039,0.01544,0,0,0,0
215.64,0.19781,7.3231,0.015343,0,0,0,0
216.64,0.20053,7.3434,0.015245,0,0,0,0
217.64,0.20347,7.365,0.015571,0,0,0,0
218.64,0.20635,7.3849,0.015734,0,0,0,0
219.64,0.21003,7.4051,0.016223,0,0,0,0
220.64,0.2138,7.4249,0.016939,0,0,0,0
221.64,0.21761,7.4443,0.017427,0,0,0,0
222.64,0.22079,7.4649,0.017785,0,0,0,0
223.64,0.22363,7.4849,0.018045,0,0,0,0
224.64,0.22642,7.5031,0.017947,0,0,0,0
225.64,0.22976,7.5224,0.017915,0,0,0,0
226.64,0.23304,7.5433,0.01785,0,0,0,0
227.64,0.23721,7.5624,0.018013,0,0,0,0
228.64,0.24055,7.5809,0.018338,0,0,0,0
229.64,0.24333,7.6009,0.018729,0,0,0,0
230.64,0.24638,7.6189,0.019086,0,0,0,0
231.64,0.24932,7.638,0.019507,0,0,0,0
232.64,0.25257,7.6563,0.020156,0,0,0,0
233.64,0.25641,7.6737,0.020384,0,0,0,0
234.64,0.26035,7.6924,0.020383,0,0,0,0
235.64,0.26402,7.7099,0.020384,0,0,0,0
236.64,0.26747,7.7286,0.020579,0,0,0,0
237.64,0.27071,7.7474,0.020773,0,0,0,0
238.64,0.27389,7.7649,0.020935,0,0,0,0
239.64,0.2779,7.7814,0.021389,0,0,0,0
240.64,0.2821,7.8003,0.02181,0,0,0,0
241.64,0.28611,7.8167,0.022263,0,0,0,0
242.64,0.28962,7.8341,0.02262,0,0,0,0
243.64,0.29289,7.8511,0.022878,0,0,0,0
244.64,0.29627,7.8679,0.023041,0,0,0,0
245.64,0.29965,7.8846,0.023234,0,0,0,0
246.64,0.30395,7.9016,0.023299,0,0,0,0
247.64,0.30816,7.919,0.023623,0,0,0,0
248.64,0.3118,7.9351,0.023882,0,0,0,0
249.64,0.31504,7.9517,0.024269,0,0,0,0
250.64,0.31812,7.9684,0.024301,0,0,0,0
251.64,0.32146,7.9844,0.024818,0,0,0,0
252.64,0.32504,8.0011,0.025045,0,0,0,0
253.64,0.32921,8.0171,0.025562,0,0,0,0
254.64,0.33361,8.0329,0.025658,0,0,0,0
255.64,0.33712,8.0493,0.026045,0,0,0,0
256.64,0.34037,8.0653,0.026335,0,0,0,0
257.64,0.34388,8.0804,0.026658,0,0,0,0
258.64,0.34792,8.0964,0.026916,0,0,0,0
259.64,0.35192,8.1121,0.027109,0,0,0,0
260.64,0.35666,8.1274,0.027399,0,0,0,0
261.64,0.3605,8.1434,0.027752,0,0,0,0
262.64,0.36421,8.1584,0.028204,0,0,0,0
263.64,0.36795,8.1736,0.028525,0,0,0,0
264.64,0.37185,8.1886,0.028621,0,0,0,0
265.64,0.37635,8.2039,0.029168,0,0,0,0
266.64,0.38076,8.2187,0.029362,0,0,0,0
267.64,0.38519,8.2337,0.029715,0,0,0,0
268.64,0.38884,8.2487,0.030068,0,0,0,0
269.64,0.39268,8.2641,0.030325,0,0,0,0
270.64,0.39622,8.2784,0.030615,0,0,0,0
271.64,0.40085,8.2929,0.030839,0,0,0,0
272.64,0.40546,8.3073,0.031127,0,0,0,0
273.64,0.40963,8.3216,0.031449,0,0,0,0
274.64,0.41337,8.3363,0.031962,0,0,0,0
275.64,0.41684,8.3494,0.032282,0,0,0,0
276.64,0.42042,8.3634,0.032635,0,0,0,0
277.64,0.42476,8.3781,0.032891,0,0,0,0
278.64,0.42926,8.392,0.033148,0,0,0,0
279.64,0.43363,8.4064,0.033404,0,0,0,0
280.64,0.43747,8.4199,0.033756,0,0,0,0
281.64,0.44134,8.4329,0.03414,0,0,0,0
282.64,0.44525,8.4473,0.034428,0,0,0,0
283.64,0.44955,8.4606,0.034747,0,0,0,0
284.64,0.45442,8.4734,0.035259,0,0,0,0
285.64,0.45905,8.4867,0.03561,0,0,0,0
286.64,0.46316,8.4997,0.035801,0,0,0,0
287.64,0.46693,8.5134,0.036154,0,0,0,0
288.64,0.47107,8.5267,0.036344,0,0,0,0
289.64,0.47538,8.5394,0.036728,0,0,0,0
290.64,0.48037,8.5521,0.037174,0,0,0,0
291.64,0.48528,8.5659,0.037653,0,0,0,0
292.64,0.48964,8.5787,0.037717,0,0,0,0
293.64,0.49362,8.5917,0.038322,0,0,0,0
294.64,0.49766,8.6031,0.038577,0,0,0,0
295.64,0.50203,8.6163,0.038927,0,0,0,0
296.64,0.50689,8.6293,0.039054,0,0,0,0
297.64,0.51189,8.6419,0.039437,0,0,0,0
298.64,0.51633,8.6546,0.039787,0,0,0,0
299.64,0.52033,8.6666,0.040327,0,0,0,0
300.64,0.52424,8.6784,0.040709,0,0,0,0
301.64,0.52878,8.6911,0.041027,0,0,0,0
302.64,0.53364,8.7026,0.041535,0,0,0,0
303.64,0.53838,8.7143,0.041853,0,0,0,0
304.64,0.54285,8.7266,0.042234,0,0,0,0
305.64,0.54659,8.7383,0.042393,0,0,0,0
306.64,0.55069,8.7503,0.042805,0,0,0,0
307.64,0.5551,8.7623,0.043218,0,0,0,0
308.64,0.56006,8.7731,0.043281,0,0,0,0
309.64,0.5648,8.7849,0.043914,0,0,0,0
310.64,0.56927,8.7961,0.044294,0,0,0,0
311.64,0.57334,8.8076,0.044675,0,0,0,0
312.64,0.57748,8.819,0.04496,0,0,0,0
313.64,0.58208,8.8303,0.045593,0,0,0,0
314.64,0.58757,8.8413,0.045846,0,0,0,0
315.64,0.59264,8.8527,0.046193,0,0,0,0
316.64,0.59694,8.8633,0.046572,0,0,0,0
317.64,0.60122,8.8741,0.046951,0,0,0,0
318.64,0.60542,8.8851,0.047299,0,0,0,0
319.64,0.61025,8.8959,0.047678,0,0,0,0
320.64,0.61575,8.9059,0.048088,0,0,0,0
321.64,0.62081,8.9163,0.04853,0,0,0,0
322.64,0.62512,8.9273,0.048877,0,0,0,0
323.64,0.62955,8.9376,0.049476,0,0,0,0
324.64,0.63412,8.9483,0.049728,0,0,0,0
325.64,0.63882,8.959,0.050105,0,0,0,0
326.64,0.64438,8.9686,0.050326,0,0,0,0
327.64,0.64942,8.9784,0.050799,0,0,0,0
328.64,0.65385,8.9891,0.051301,0,0,0,0
329.64,0.65789,8.9989,0.05193,0,0,0,0
330.64,0.66243,9.009,0.05215,0,0,0,0
331.64,0.66739,9.019,0.052496,0,0,0,0
332.64,0.67309,9.029,0.052998,0,0,0,0
333.64,0.67792,9.0386,0.053375,0,0,0,0
334.64,0.68236,9.049,0.053876,0,0,0,0
335.64,0.68646,9.0581,0.054034,0,0,0,0
336.64,0.69123,9.0681,0.054692,0,0,0,0
337.64,0.69616,9.0781,0.055131,0,0,0,0
338.64,0.70172,9.0876,0.055601,0,0,0,0
339.64,0.70639,9.097,0.056008,0,0,0,0
340.64,0.71099,9.1066,0.056477,0,0,0,0
341.64,0.71517,9.117,0.056946,0,0,0,0
342.64,0.72,9.1263,0.057259,0,0,0,0
343.64,0.7254,9.1356,0.057665,0,0,0,0
344.64,0.73082,9.1449,0.058103,0,0,0,0
345.64,0.73559,9.1536,0.05854,0,0,0,0
346.64,0.74006,9.1626,0.059102,0,0,0,0
347.64,0.74456,9.1716,0.059601,0,0,0,0
348.64,0.74996,9.1803,0.060162,0,0,0,0
349.64,0.75536,9.19,0.060661,0,0,0,0
350.64,0.76059,9.199,0.061004,0,0,0,0
351.64,0.76535,9.2073,0.061346,0,0,0,0
352.64,0.77002,9.2163,0.06172,0,0,0,0
353.64,0.77472,9.2249,0.062,0,0,0,0
354.64,0.78005,9.2331,0.062374,0,0,0,0
355.64,0.78578,9.2419,0.06284,0,0,0,0
356.64,0.79095,9.2501,0.063617,0,0,0,0
357.64,0.79541,9.259,0.064113,0,0,0,0
358.64,0.80018,9.2673,0.064486,0,0,0,0
359.64,0.80525,9.2763,0.064982,0,0,0,0
360.64,0.81081,9.2846,0.065571,0,0,0,0
361.64,0.8164,9.2923,0.065913,0,0,0,0
362.64,0.82147,9.2999,0.066254,0,0,0,0
363.64,0.82594,9.3086,0.066719,0,0,0,0
364.64,0.83064,9.3166,0.067121,0,0,0,0
365.64,0.83593,9.3246,0.067492,0,0,0,0
366.64,0.8417,9.3323,0.068081,0,0,0,0
367.64,0.84709,9.3403,0.06876,0,0,0,0
368.64,0.85206,9.3483,0.069007,0,0,0,0
369.64,0.85679,9.356,0.069563,0,0,0,0
370.64,0.86123,9.3636,0.069811,0,0,0,0
371.64,0.86682,9.3713,0.07049,0,0,0,0
372.64,0.87272,9.379,0.071014,0,0,0,0
373.64,0.87785,9.3867,0.071661,0,0,0,0
374.64,0.88275,9.3944,0.072185,0,0,0,0
375.64,0.88765,9.402,0.072523,0,0,0,0
376.64,0.89251,9.4093,0.072831,0,0,0,0
377.64,0.89814,9.4167,0.073631,0,0,0,0
378.64,0.9038,9.4233,0.073939,0,0,0,0
379.64,0.90887,9.4306,0.07437,0,0,0,0
380.64,0.91354,9.4383,0.074984,0,0,0,0
381.64,0.91804,9.4453,0.075352,0,0,0,0
382.64,0.9234,9.4523,0.075874,0,0,0,0
383.64,0.92946,9.4593,0.07655,0,0,0,0
384.64,0.93489,9.4666,0.077131,0,0,0,0
385.64,0.93972,9.4747,0.077592,0,0,0,0
386.64,0.94456,9.4813,0.078082,0,0,0,0
387.64,0.94969,9.4876,0.078388,0,0,0,0
388.64,0.95502,9.4943,0.078724,0,0,0,0
389.64,0.96088,9.5016,0.079366,0,0,0,0
390.64,0.96601,9.5086,0.079887,0,0,0,0
391.64,0.97114,9.5146,0.080253,0,0,0,0
392.64,0.97601,9.5213,0.081048,0,0,0,0
393.64,0.98141,9.5283,0.081597,0,0,0,0
394.64,0.98737,9.5349,0.082176,0,0,0,0
395.64,0.99303,9.5413,0.082787,0,0,0,0
396.64,0.99803,9.5474,0.083273,0,0,0,0
397.64,1.003,9.5534,0.083608,0,0,0,0
398.64,1.0083,9.5597,0.084065,0,0,0,0
399.64,1.0138,9.566,0.084705,0,0,0,0
400.64,1.0199,9.5731,0.08513,0,0,0,0
401.64,1.0253,9.5794,0.085678,0,0,0,0
402.64,1.0303,9.5854,0.086437,0,0,0,0
403.64,1.0354,9.5914,0.086922,0,0,0,0
404.64,1.0412,9.5974,0.087529,0,0,0,0
405.64,1.047,9.6037,0.088045,0,0,0,0
406.64,1.0528,9.61,0.08859,0,0,0,0
407.64,1.0581,9.6156,0.089075,0,0,0,0
408.64,1.063,9.6216,0.089651,0,0,0,0
409.64,1.0686,9.6273,0.090316,0,0,0,0
410.64,1.0744,9.6326,0.09077,0,0,0,0
411.64,1.0805,9.6386,0.091344,0,0,0,0
412.64,1.0862,9.6447,0.092069,0,0,0,0
413.64,1.0911,9.65,0.092552,0,0,0,0
414.64,1.0962,9.6553,0.093005,0,0,0,0
415.64,1.1017,9.6606,0.093306,0,0,0,0
416.64,1.108,9.6666,0.093969,0,0,0,0
417.64,1.1139,9.6723,0.094481,0,0,0,0
418.64,1.1193,9.6776,0.095294,0,0,0,0
419.64,1.1243,9.6833,0.095926,0,0,0,0
420.64,1.1299,9.689,0.096558,0,0,0,0
421.64,1.1358,9.6939,0.097279,0,0,0,0
422.64,1.1417,9.6993,0.09776,0,0,0,0
423.64,1.1474,9.7047,0.098299,0,0,0,0
424.64,1.1526,9.7093,0.098899,0,0,0,0
425.64,1.1578,9.715,0.099409,0,0,0,0
426.64,1.1638,9.72,0.099978,0,0,0,0
427.64,1.1696,9.7247,0.10052,0,0,0,0
428.64,1.1755,9.7297,0.10109,0,0,0,0
429.64,1.181,9.7347,0.10168,0,0,0,0
430.64,1.1862,9.7404,0.1024,0,0,0,0
431.64,1.1919,9.745,0.10309,0,0,0,0
432.64,1.198,9.7497,0.10378,0,0,0,0
433.64,1.2038,9.7547,0.10434,0,0,0,0
434.64,1.2093,9.7586,0.10506,0,0,0,0
435.64,1.2145,9.7633,0.10559,0,0,0,0
436.64,1.2199,9.7676,0.10601,0,0,0,0
437.64,1.2259,9.7723,0.10678,0,0,0,0
438.64,1.2323,9.7766,0.10711,0,0,0,0
439.64,1.2376,9.7806,0.10806,0,0,0,0
440.64,1.2429,9.7853,0.10851,0,0,0,0
441.64,1.2479,9.79,0.10931,0,0,0,0
442.64,1.2536,9.7947,0.11017,0,0,0,0
443.64,1.2601,9.7993,0.11073,0,0,0,0
444.64,1.2659,9.8036,0.11147,0,0,0,0
445.64,1.2714,9.8076,0.11201,0,0,0,0
446.64,1.2766,9.812,0.1126,0,0,0,0
447.64,1.2822,9.816,0.11328,0,0,0,0
448.64,1.2883,9.8203,0.11393,0,0,0,0
449.64,1.2945,9.8243,0.11455,0,0,0,0
450.64,1.3001,9.828,0.11529,0,0,0,0
451.64,1.3056,9.8323,0.11599,0,0,0,0
452.64,1.3109,9.837,0.1167,0,0,0,0
453.64,1.3169,9.8406,0.11735,0,0,0,0
454.64,1.3233,9.845,0.11812,0,0,0,0
455.64,1.3292,9.8483,0.1187,0,0,0,0
456.64,1.3344,9.852,0.11953,0,0,0,0
457.64,1.3401,9.8553,0.12026,0,0,0,0
458.64,1.346,9.859,0.12099,0,0,0,0
459.64,1.3522,9.863,0.12176,0,0,0,0
460.64,1.3585,9.867,0.1222,0,0,0,0
461.64,1.3642,9.8707,0.12299,0,0,0,0
462.64,1.3698,9.8741,0.12363,0,0,0,0
463.64,1.3753,9.877,0.12442,0,0,0,0
464.64,1.3815,9.881,0.12527,0,0,0,0
465.64,1.3881,9.8847,0.12585,0,0,0,0
466.64,1.394,9.8877,0.12676,0,0,0,0
467.64,1.3993,9.891,0.12749,0,0,0,0
468.64,1.405,9.8943,0.12848,0,0,0,0
469.64,1.4109,9.8977,0.12914,0,0,0,0
470.64,1.4174,9.901,0.1297,0,0,0,0
471.64,1.4234,9.904,0.13051,0,0,0,0
472.64,1.429,9.907,0.13118,0,0,0,0
473.64,1.4346,9.9107,0.13202,0,0,0,0
474.64,1.4408,9.913,0.13283,0,0,0,0
475.64,1.4471,9.916,0.13359,0,0,0,0
476.64,1.4536,9.9193,0.13454,0,0,0,0
477.64,1.4594,9.9227,0.13524,0,0,0,0
478.64,1.4649,9.9257,0.13593,0,0,0,0
479.64,1.4707,9.9283,0.13674,0,0,0,0
480.64,1.4769,9.931,0.13737,0,0,0,0
481.64,1.4837,9.9333,0.13844,0,0,0,0
482.64,1.4896,9.9363,0.13899,0,0,0,0
483.64,1.4951,9.9393,0.13988,0,0,0,0
484.64,1.5009,9.9416,0.14071,0,0,0,0
485.64,1.5073,9.944,0.14143,0,0,0,0
486.64,1.5137,9.947,0.1425,0,0,0,0
487.64,1.5198,9.9496,0.14321,0,0,0,0
488.64,1.5255,9.9523,0.14393,0,0,0,0
489.64,1.5313,9.955,0.14476,0,0,0,0
490.64,1.5375,9.957,0.14556,0,0,0,0
491.64,1.5443,9.9597,0.14654,0,0,0,0
492.64,1.5506,9.962,0.14739,0,0,0,0
493.64,1.5564,9.964,0.14828,0,0,0,0
494.64,1.562,9.9667,0.14916,0,0,0,0
495.64,1.5683,9.9694,0.14999,0,0,0,0
496.64,1.575,9.971,0.1509,0,0,0,0
497.64,1.5816,9.973,0.15178,0,0,0,0
498.64,1.5872,9.975,0.15261,0,0,0,0
499.64,1.5929,9.9773,0.15357,0,0,0,0
500.64,1.5991,9.9793,0.15434,0,0,0,0
501.64,1.606,9.981,0.15528,0,0,0,0
502.64,1.6122,9.983,0.15621,0,0,0,0
503.64,1.6183,9.985,0.15709,0,0,0,0
504.64,1.624,9.9867,0.15825,0,0,0,0
505.64,1.6298,9.9884,0.15887,0,0,0,0
506.64,1.6367,9.99,0.15989,0,0,0,0
507.64,1.6434,9.992,0.16084,0,0,0,0
508.64,1.6494,9.9933,0.16166,0,0,0,0
509.64,1.6548,9.995,0.16242,0,0,0,0
510.64,1.661,9.9966,0.16341,0,0,0,0
511.64,1.6678,9.9983,0.16439,0,0,0,0
512.64,1.6744,10,0.16537,0,0,0,0
513.64,1.6805,10.002,0.16633,0,0,0,0
514.64,1.6864,10.003,0.16728,0,0,0,0
515.64,1.6922,10.004,0.16809,0,0,0,0
516.64,1.6985,10.005,0.16924,0,0,0,0
517.64,1.7056,10.007,0.1703,0,0,0,0
518.64,1.7118,10.008,0.17105,0,0,0,0
519.64,1.7175,10.01,0.17225,0,0,0,0
520.64,1.7234,10.011,0.17323,0,0,0,0
521.64,1.7299,10.012,0.17423,0,0,0,0
522.64,1.7369,10.013,0.17517,0,0,0,0
523.64,1.7431,10.014,0.17628,0,0,0,0
524.64,1.7492,10.015,0.17728,0,0,0,0
525.64,1.7551,10.016,0.17809,0,0,0,0
526.64,1.7614,10.016,0.17925,0,0,0,0
527.64,1.7683,10.017,0.18044,0,0,0,0
528.64,1.7747,10.019,0.1813,0,0,0,0
529.64,1.7809,10.02,0.18268,0,0,0,0
530.64,1.787,10.021,0.18386,0,0,0,0
531.64,1.7934,10.021,0.18485,0,0,0,0
532.64,1.8006,10.022,0.18598,0,0,0,0
533.64,1.8071,10.023,0.18716,0,0,0,0
534.64,1.8132,10.023,0.18829,0,0,0,0
535.64,1.8192,10.024,0.18938,0,0,0,0
536.64,1.8256,10.024,0.19053,0,0,0,0
537.64,1.8328,10.025,0.19157,0,0,0,0
538.64,1.8395,10.025,0.19269,0,0,0,0
539.64,1.8455,10.025,0.19381,0,0,0,0
540.64,1.8514,10.026,0.19498,0,0,0,0
541.64,1.8578,10.026,0.19605,0,0,0,0
542.64,1.8649,10.026,0.19716,0,0,0,0
543.64,1.8719,10.027,0.19838,0,0,0,0
544.64,1.8779,10.026,0.19974,0,0,0,0
545.64,1.8844,10.027,0.20109,0,0,0,0
546.64,1.8906,10.027,0.20236,0,0,0,0
547.64,1.8978,10.027,0.20361,0,0,0,0
548.64,1.9047,10.027,0.20474,0,0,0,0
549.64,1.911,10.027,0.20585,0,0,0,0
550.64,1.9169,10.026,0.20698,0,0,0,0
551.64,1.9233,10.026,0.20816,0,0,0,0
552.64,1.9304,10.025,0.2094,0,0,0,0
553.64,1.9375,10.025,0.21063,0,0,0,0
554.64,1.9436,10.025,0.21197,0,0,0,0
555.64,1.9496,10.025,0.21336,0,0,0,0
556.64,1.9562,10.024,0.21481,0,0,0,0
557.64,1.9633,10.024,0.21609,0,0,0,0
558.64,1.9703,10.023,0.21734,0,0,0,0
559.64,1.9765,10.023,0.21851,0,0,0,0
560.64,1.9826,10.022,0.21979,0,0,0,0
561.64,1.9889,10.021,0.22117,0,0,0,0
562.64,1.9963,10.021,0.2225,0,0,0,0
563.64,2.0033,10.02,0.224,0,0,0,0
564.64,2.0096,10.019,0.22551,0,0,0,0
565.64,2.0159,10.018,0.22686,0,0,0,0
566.64,2.0224,10.017,0.22833,0,0,0,0
567.64,2.0295,10.016,0.22949,0,0,0,0
568.64,2.0369,10.015,0.23089,0,0,0,0
569.64,2.0429,10.014,0.23233,0,0,0,0
570.64,2.0493,10.013,0.23391,0,0,0,0
571.64,2.0559,10.012,0.23532,0,0,0,0
572.64,2.063,10.01,0.23678,0,0,0,0
573.64,2.07,10.009,0.23835,0,0,0,0
574.64,2.0764,10.007,0.23983,0,0,0,0
575.64,2.0825,10.006,0.24124,0,0,0,0
576.64,2.0892,10.004,0.24277,0,0,0,0
577.64,2.0967,10.003,0.24428,0,0,0,0
578.64,2.1035,10.001,0.24578,0,0,0,0
579.64,2.1096,9.9993,0.24744,0,0,0,0
580.64,2.116,9.9976,0.24894,0,0,0,0
581.64,2.1229,9.996,0.25051,0,0,0,0
582.64,2.1301,9.994,0.25223,0,0,0,0
583.64,2.1371,9.992,0.25388,0,0,0,0
584.64,2.1432,9.99,0.25537,0,0,0,0
585.64,2.1496,9.988,0.25696,0,0,0,0
586.64,2.1562,9.9853,0.25846,0,0,0,0
587.64,2.1637,9.983,0.26012,0,0,0,0
588.64,2.1703,9.9813,0.26171,0,0,0,0
589.64,2.1768,9.9793,0.26349,0,0,0,0
590.64,2.1831,9.977,0.26532,0,0,0,0
591.64,2.1898,9.975,0.26727,0,0,0,0
592.64,2.1974,9.9723,0.26879,0,0,0,0
593.64,2.2042,9.9697,0.27043,0,0,0,0
594.64,2.2105,9.967,0.27172,0,0,0,0
595.64,2.2171,9.9647,0.27336,0,0,0,0
596.64,2.2238,9.9613,0.27527,0,0,0,0
597.64,2.2312,9.9587,0.27705,0,0,0,0
598.64,2.238,9.956,0.27891,0,0,0,0
599.64,2.2443,9.9533,0.28091,0,0,0,0
600.64,2.2511,9.9506,0.28251,0,0,0,0
601.64,2.2582,9.9479,0.28438,0,0,0,0
602.64,2.2653,9.945,0.28627,0,0,0,0
603.64,2.2723,9.941,0.28833,0,0,0,0
604.64,2.2788,9.9384,0.29034,0,0,0,0
605.64,2.2853,9.935,0.29232,0,0,0,0
606.64,2.2924,9.9313,0.29439,0,0,0,0
607.64,2.2998,9.9283,0.29632,0,0,0,0
608.64,2.3066,9.9246,0.29824,0,0,0,0
609.64,2.3129,9.9206,0.30047,0,0,0,0
610.64,2.3198,9.917,0.30248,0,0,0,0
611.64,2.3267,9.913,0.30458,0,0,0,0
612.64,2.3341,9.909,0.30633,0,0,0,0
613.64,2.341,9.9047,0.30835,0,0,0,0
614.64,2.3474,9.9011,0.31025,0,0,0,0
615.64,2.3541,9.897,0.31243,0,0,0,0
616.64,2.3615,9.893,0.31449,0,0,0,0
617.64,2.3687,9.889,0.31654,0,0,0,0
618.64,2.3756,9.8843,0.31869,0,0,0,0
619.64,2.3819,9.8796,0.32092,0,0,0,0
620.64,2.3887,9.8753,0.32325,0,0,0,0
621.64,2.396,9.8707,0.32528,0,0,0,0
622.64,2.4033,9.8657,0.32734,0,0,0,0
623.64,2.4103,9.8614,0.32958,0,0,0,0
624.64,2.4164,9.8567,0.33181,0,0,0,0
625.64,2.4234,9.8517,0.33426,0,0,0,0
626.64,2.4308,9.8467,0.33644,0,0,0,0
627.64,2.438,9.8414,0.33861,0,0,0,0
628.64,2.4446,9.836,0.34085,0,0,0,0
629.64,2.4511,9.831,0.34296,0,0,0,0
630.64,2.4579,9.825,0.34517,0,0,0,0
631.64,2.4654,9.8197,0.34775,0,0,0,0
632.64,2.4729,9.8144,0.35018,0,0,0,0
633.64,2.4794,9.8087,0.3525,0,0,0,0
634.64,2.4858,9.803,0.35469,0,0,0,0
635.64,2.4927,9.7974,0.35689,0,0,0,0
636.64,2.5003,9.791,0.35951,0,0,0,0
637.64,2.5073,9.785,0.36195,0,0,0,0
638.64,2.5138,9.7794,0.36446,0,0,0,0
639.64,2.5203,9.773,0.36676,0,0,0,0
640.64,2.5275,9.7667,0.36917,0,0,0,0
641.64,2.5351,9.7604,0.37166,0,0,0,0
642.64,2.5425,9.7537,0.37455,0,0,0,0
643.64,2.5489,9.7467,0.37717,0,0,0,0
644.64,2.5555,9.7397,0.37941,0,0,0,0
645.64,2.5625,9.7327,0.38204,0,0,0,0
646.64,2.5701,9.7257,0.38479,0,0,0,0
647.64,2.5772,9.7187,0.38765,0,0,0,0
648.64,2.5839,9.7114,0.39038,0,0,0,0
649.64,2.5904,9.7037,0.39291,0,0,0,0
650.64,2.5979,9.6971,0.39552,0,0,0,0
651.64,2.606,9.6883,0.39828,0,0,0,0
652.64,2.6127,9.6804,0.40112,0,0,0,0
653.64,2.6194,9.6721,0.40402,0,0,0,0
654.64,2.6263,9.6639,0.40691,0,0,0,0
655.64,2.6339,9.6557,0.4096,0,0,0,0
656.64,2.6416,9.647,0.41234,0,0,0,0
657.64,2.6481,9.638,0.41512,0,0,0,0
658.64,2.655,9.6293,0.41787,0,0,0,0
659.64,2.6621,9.62,0.42083,0,0,0,0
660.64,2.6699,9.6107,0.42372,0,0,0,0
661.64,2.677,9.6019,0.42647,0,0,0,0
662.64,2.6839,9.5924,0.42934,0,0,0,0
663.64,2.6906,9.5831,0.43235,0,0,0,0
664.64,2.6976,9.5729,0.43493,0,0,0,0
665.64,2.7056,9.5627,0.43837,0,0,0,0
666.64,2.7129,9.5527,0.44159,0,0,0,0
667.64,2.7198,9.5417,0.44476,0,0,0,0
668.64,2.7266,9.531,0.44793,0,0,0,0
669.64,2.7344,9.52,0.45049,0,0,0,0
670.64,2.7419,9.5089,0.45361,0,0,0,0
671.64,2.7491,9.4976,0.45707,0,0,0,0
672.64,2.756,9.4859,0.4604,0,0,0,0
673.64,2.763,9.4744,0.46353,0,0,0,0
674.64,2.7706,9.4634,0.46665,0,0,0,0
675.64,2.7784,9.4507,0.46951,0,0,0,0
676.64,2.7855,9.4377,0.47312,0,0,0,0
677.64,2.7924,9.4254,0.47679,0,0,0,0
678.64,2.7995,9.412,0.48032,0,0,0,0
679.64,2.8077,9.3989,0.48355,0,0,0,0
680.64,2.8153,9.3859,0.48695,0,0,0,0
681.64,2.8221,9.3714,0.49026,0,0,0,0
682.64,2.8293,9.3574,0.49396,0,0,0,0
683.64,2.837,9.3434,0.49715,0,0,0,0
684.64,2.8454,9.3281,0.50055,0,0,0,0
685.64,2.8527,9.3131,0.50403,0,0,0,0
686.64,2.8598,9.2983,0.50753,0,0,0,0
687.64,2.8674,9.2814,0.51125,0,0,0,0
688.64,2.8751,9.266,0.51533,0,0,0,0
689.64,2.8836,9.2486,0.51882,0,0,0,0
690.64,2.8905,9.2316,0.52252,0,0,0,0
691.64,2.8976,9.2146,0.52618,0,0,0,0
692.64,2.9052,9.1964,0.52966,0,0,0,0
693.64,2.9137,9.1784,0.53375,0,0,0,0
694.64,2.9221,9.1594,0.53743,0,0,0,0
695.64,2.929,9.1407,0.54144,0,0,0,0
696.64,2.9363,9.1199,0.54552,0,0,0,0
697.64,2.9448,9.1014,0.54971,0,0,0,0
698.64,2.9532,9.0804,0.55337,0,0,0,0
699.64,2.9609,9.0591,0.55785,0,0,0,0
700.64,2.9684,9.0371,0.56209,0,0,0,0
701.64,2.9762,9.0151,0.56599,0,0,0,0
702.64,2.9846,8.9911,0.56984,0,0,0,0
703.64,2.9929,8.9669,0.57391,0,0,0,0
704.64,3.0006,8.9421,0.57839,0,0,0,0
705.64,3.0082,8.9171,0.58289,0,0,0,0
706.64,3.0165,8.8924,0.58716,0,0,0,0
707.64,3.0251,8.8654,0.59173,0,0,0,0
708.64,3.0331,8.8377,0.59606,0,0,0,0
709.64,3.0412,8.8103,-Inf,0,0,0,0
710.64,3.0494,8.7811,-Inf,0,0,0,0
711.64,3.058,8.7506,-Inf,0,0,0,0
712.64,3.0667,8.7181,-Inf,0,0,0,0
713.64,3.0749,8.6841,-Inf,0,0,0,0
714.64,3.0831,8.6493,-Inf,0,0,0,0
715.64,3.0922,8.614,-Inf,0,0,0,0
716.64,3.1033,8.5738,-Inf,0,0,0,0