File: polyN_optimization/DP600_results/DATA/NT6_90_3.csv
Time[s],Displacement[mm],Force[kN],AxStrain_1,AxStrain_2,Thickness[mm],OuterWidth[mm],InnerWidth[mm]
0.59,0,-0.020733,0,0,1.5269,20,10
1.09,-4.7e-05,-0.021753,2.1e-05,0,0,0,0
1.59,0.00032,-0.02156,0.00015599,0,0,0,0
2.09,0.000234,-0.0091369,-2e-06,0,0,0,0
2.59,0.000391,0.018726,0.00020098,0,0,0,0
3.09,0.000627,0.052846,6.3998e-05,0,0,0,0
3.59,0.000562,0.086432,1.5e-05,0,0,0,0
4.09,0.000741,0.11299,-4.0001e-05,0,0,0,0
4.59,0.000656,0.13815,-8.1003e-05,0,0,0,0
5.09,0.0007,0.162,0,0,0,0,0
5.59,0.000675,0.18571,4.1999e-05,0,0,0,0
6.09,0.000704,0.205,1.3e-05,0,0,0,0
6.59,0.000893,0.22215,-0.00016501,0,0,0,0
7.09,0.000824,0.23814,1e-05,0,0,0,0
7.59,0.000864,0.25572,-0.00014101,0,0,0,0
8.09,0.000837,0.27357,-0.00014501,0,0,0,0
8.59,0.000952,0.29272,-0.00013701,0,0,0,0
9.09,0.000894,0.31157,-0.00025503,0,0,0,0
9.59,0.001075,0.33115,-0.00025603,0,0,0,0
10.09,0.000998,0.34871,-3.8001e-05,0,0,0,0
10.59,0.001224,0.36772,-9.8005e-05,0,0,0,0
11.09,0.001395,0.38628,-0.00014401,0,0,0,0
11.59,0.001428,0.40644,-3.3001e-05,0,0,0,0
12.09,0.001361,0.42542,5.3999e-05,0,0,0,0
12.59,0.001433,0.44543,-0.00014801,0,0,0,0
13.09,0.001712,0.46242,3.1e-05,0,0,0,0
13.59,0.001872,0.47929,1e-05,0,0,0,0
14.09,0.001968,0.49585,2.8e-05,0,0,0,0
14.59,0.002105,0.51529,0.00013599,0,0,0,0
15.09,0.00197,0.53356,1.3e-05,0,0,0,0
15.59,0.002172,0.55272,-0.00024203,0,0,0,0
16.09,0.002304,0.57056,1.7e-05,0,0,0,0
16.59,0.002029,0.589,-3e-05,0,0,0,0
17.09,0.002367,0.60614,9.8995e-05,0,0,0,0
17.59,0.002387,0.62543,-1.3e-05,0,0,0,0
18.09,0.002261,0.64457,-9.6005e-05,0,0,0,0
18.59,0.002122,0.66443,-6.6002e-05,0,0,0,0
19.09,0.002397,0.68271,-0.00014201,0,0,0,0
19.59,0.002152,0.70272,-0.00018202,0,0,0,0
20.09,0.002301,0.72342,-0.00013601,0,0,0,0
20.59,0.002403,0.74543,-0.00012601,0,0,0,0
21.09,0.0024,0.76442,3.5999e-05,0,0,0,0
21.59,0.002612,0.78472,-0.00016201,0,0,0,0
22.09,0.00285,0.80428,-0.00024203,0,0,0,0
22.59,0.002877,0.82429,-0.00023803,0,0,0,0
23.09,0.00296,0.84285,-9.3004e-05,0,0,0,0
23.59,0.003066,0.86343,-8.3003e-05,0,0,0,0
24.09,0.003466,0.88357,-6.0002e-05,0,0,0,0
24.59,0.003632,0.90472,0.00018198,0,0,0,0
25.09,0.003857,0.92528,0.00017199,0,0,0,0
25.59,0.004092,0.94615,-5.3001e-05,0,0,0,0
26.09,0.003959,0.96614,3.5999e-05,0,0,0,0
26.59,0.004105,0.98715,0.00013599,0,0,0,0
27.09,0.004016,1.0079,0.00015599,0,0,0,0
27.59,0.004168,1.0266,0.00015899,0,0,0,0
28.09,0.003973,1.0457,0.00014199,0,0,0,0
28.59,0.004141,1.0667,3e-06,0,0,0,0
29.09,0.0038,1.0891,0.00015599,0,0,0,0
29.59,0.004128,1.1099,-0.00010901,0,0,0,0
30.09,0.003893,1.1311,-2e-05,0,0,0,0
30.59,0.003923,1.1516,-0.00020902,0,0,0,0
31.09,0.004165,1.1721,-0.00014901,0,0,0,0
31.59,0.004062,1.1921,6.5998e-05,0,0,0,0
32.09,0.004214,1.2134,-7e-06,0,0,0,0
32.59,0.004516,1.2331,-0.00027104,0,0,0,0
33.09,0.004784,1.254,0.00010299,0,0,0,0
33.59,0.004876,1.2737,-0.00010601,0,0,0,0
34.09,0.005254,1.2953,-7.6003e-05,0,0,0,0
34.59,0.005241,1.315,-0.00012901,0,0,0,0
35.09,0.005598,1.337,0.00024497,0,0,0,0
35.59,0.005879,1.357,0.00012599,0,0,0,0
36.09,0.006128,1.3776,3e-06,0,0,0,0
36.59,0.006055,1.3966,0.00018898,0,0,0,0
37.09,0.006091,1.4174,-4.3001e-05,0,0,0,0
37.59,0.005836,1.4379,7.2997e-05,0,0,0,0
38.09,0.005959,1.4589,0.00018198,0,0,0,0
38.59,0.005876,1.4791,8.8996e-05,0,0,0,0
39.09,0.005889,1.4999,1.7e-05,0,0,0,0
39.59,0.005956,1.5201,3e-05,0,0,0,0
40.09,0.005651,1.5411,-5.6002e-05,0,0,0,0
40.59,0.005711,1.5616,-7.9003e-05,0,0,0,0
41.09,0.005724,1.5824,-6.3002e-05,0,0,0,0
41.59,0.005783,1.6011,-3.6001e-05,0,0,0,0
42.09,0.005979,1.6213,0,0,0,0,0
42.59,0.006038,1.6407,-8.9004e-05,0,0,0,0
43.09,0.006088,1.6623,-0.00020202,0,0,0,0
43.59,0.006505,1.682,-2e-05,0,0,0,0
44.09,0.00671,1.7037,-2e-05,0,0,0,0
44.59,0.007035,1.7233,0.00011899,0,0,0,0
45.09,0.007114,1.7436,-7.6003e-05,0,0,0,0
45.59,0.007512,1.7629,0.00010899,0,0,0,0
46.09,0.007995,1.7841,0.00014899,0,0,0,0
46.59,0.008184,1.8046,-3e-06,0,0,0,0
47.09,0.008187,1.8254,0.00017498,0,0,0,0
47.59,0.008074,1.8456,0.00027496,0,0,0,0
48.09,0.008299,1.8664,0.00016899,0,0,0,0
48.59,0.007922,1.8863,0.00019498,0,0,0,0
49.09,0.007879,1.9067,0.00013199,0,0,0,0
49.59,0.007833,1.9266,1e-05,0,0,0,0
50.09,0.007694,1.9474,9.5995e-05,0,0,0,0
50.59,0.007449,1.9664,1e-05,0,0,0,0
51.09,0.007618,1.9867,-3.3001e-05,0,0,0,0
51.59,0.007568,2.0063,0,0,0,0,0
52.09,0.007465,2.0277,7e-06,0,0,0,0
52.59,0.007823,2.047,-0.00013601,0,0,0,0
53.09,0.00773,2.0683,-0.00011601,0,0,0,0
53.59,0.007985,2.088,-5.0001e-05,0,0,0,0
54.09,0.008386,2.1083,4.2999e-05,0,0,0,0
54.59,0.008611,2.1271,-7.3003e-05,0,0,0,0
55.09,0.008905,2.1479,0.00012299,0,0,0,0
55.59,0.009104,2.1681,4.2999e-05,0,0,0,0
56.09,0.009511,2.1891,7.8997e-05,0,0,0,0
56.59,0.010044,2.2096,0.00032395,0,0,0,0
57.09,0.010094,2.2301,0.0004469,0,0,0,0
57.59,0.010143,2.2499,3e-05,0,0,0,0
58.09,0.010104,2.2704,0.00029796,0,0,0,0
58.59,0.010047,2.2906,0.00029096,0,0,0,0
59.09,0.010014,2.3114,0.00030495,0,0,0,0
59.59,0.009584,2.3301,0.00022198,0,0,0,0
60.09,0.009395,2.35,0.00027796,0,0,0,0
60.59,0.009505,2.3704,0.00023497,0,0,0,0
61.09,0.009372,2.3924,-1.3e-05,0,0,0,0
61.59,0.009286,2.4129,6.5998e-05,0,0,0,0
62.09,0.009177,2.4339,3e-05,0,0,0,0
62.59,0.009336,2.4524,9.2996e-05,0,0,0,0
63.09,0.009591,2.4709,0.00012599,0,0,0,0
63.59,0.00968,2.4896,0,0,0,0,0
64.09,0.009769,2.5119,0.00011899,0,0,0,0
64.59,0.010107,2.5327,0.00020198,0,0,0,0
65.09,0.010408,2.554,9.5995e-05,0,0,0,0
65.59,0.010951,2.5733,0.00020898,0,0,0,0
66.09,0.011292,2.5936,0.00024197,0,0,0,0
66.59,0.011911,2.6126,0.00019898,0,0,0,0
67.09,0.011905,2.6331,8.8996e-05,0,0,0,0
67.59,0.01216,2.6531,0.00031495,0,0,0,0
68.09,0.012093,2.6739,0.00032795,0,0,0,0
68.59,0.012226,2.6927,0.00056284,0,0,0,0
69.09,0.012007,2.7127,0.00041991,0,0,0,0
69.59,0.011756,2.7331,0.00034794,0,0,0,0
70.09,0.011435,2.7547,0.00042991,0,0,0,0
70.59,0.011229,2.7746,0.00027096,0,0,0,0
71.09,0.0112,2.7954,0.00041391,0,0,0,0
71.59,0.011104,2.8141,0.00024197,0,0,0,0
72.09,0.011011,2.8329,0.00010599,0,0,0,0
72.59,0.010981,2.8516,0.00027196,0,0,0,0
73.09,0.011057,2.8736,0.00030795,0,0,0,0
73.59,0.011362,2.894,0.00024497,0,0,0,0
74.09,0.011524,2.915,0.00017199,0,0,0,0
74.59,0.011753,2.9343,5.2999e-05,0,0,0,0
75.09,0.012196,2.9543,0.00015899,0,0,0,0
75.59,0.012468,2.9729,0.00047289,0,0,0,0
76.09,0.013064,2.9934,0.00026796,0,0,0,0
76.59,0.013355,3.0133,0.00041391,0,0,0,0
77.09,0.013712,3.0337,0.00057883,0,0,0,0
77.59,0.013732,3.0524,0.00041092,0,0,0,0
78.09,0.013931,3.0724,0.00064879,0,0,0,0
78.59,0.013937,3.0916,0.00059882,0,0,0,0
79.09,0.013934,3.1127,0.00056584,0,0,0,0
79.59,0.013643,3.132,0.00056284,0,0,0,0
80.09,0.013408,3.153,0.00051287,0,0,0,0
80.59,0.013358,3.172,0.0004569,0,0,0,0
81.09,0.01311,3.1916,0.00042991,0,0,0,0
81.59,0.012911,3.2099,0.00033394,0,0,0,0
82.09,0.012878,3.2301,0.00025197,0,0,0,0
82.59,0.012964,3.2499,0.00042691,0,0,0,0
83.09,0.012766,3.2701,0.00023497,0,0,0,0
83.59,0.013087,3.2899,0.00018898,0,0,0,0
84.09,0.013381,3.3087,0.00011599,0,0,0,0
84.59,0.013577,3.3274,0.00015899,0,0,0,0
85.09,0.013881,3.3469,0.00024497,0,0,0,0
85.59,0.01458,3.3671,0.00039692,0,0,0,0
86.09,0.014782,3.3869,0.00032095,0,0,0,0
86.59,0.015335,3.4071,0.0006258,0,0,0,0
87.09,0.015563,3.4269,0.00038693,0,0,0,0
87.59,0.01603,3.4471,0.0004439,0,0,0,0
88.09,0.016308,3.4669,0.00064879,0,0,0,0
88.59,0.016146,3.4874,0.00064879,0,0,0,0
89.09,0.016185,3.5061,0.0007807,0,0,0,0
89.59,0.015967,3.526,0.00064579,0,0,0,0
90.09,0.015897,3.5461,0.00073773,0,0,0,0
90.59,0.015719,3.5674,0.00053985,0,0,0,0
91.09,0.015513,3.5857,0.00037393,0,0,0,0
91.59,0.015219,3.6054,0.00042991,0,0,0,0
92.09,0.015292,3.6243,0.00035094,0,0,0,0
92.59,0.015308,3.6436,0.0004369,0,0,0,0
93.09,0.015113,3.6616,0.00026197,0,0,0,0
93.59,0.015166,3.6829,0.00039692,0,0,0,0
94.09,0.015381,3.703,0.00019198,0,0,0,0
94.59,0.015752,3.7226,0.00031795,0,0,0,0
95.09,0.01599,3.7409,0.00028096,0,0,0,0
95.59,0.01643,3.7611,0.00033394,0,0,0,0
96.09,0.01696,3.7809,0.00033394,0,0,0,0
96.59,0.017566,3.8011,0.00031795,0,0,0,0
97.09,0.018066,3.8206,0.00041691,0,0,0,0
97.59,0.018307,3.8404,0.00039692,0,0,0,0
98.09,0.018228,3.8584,0.00059882,0,0,0,0
98.59,0.018586,3.878,0.00055884,0,0,0,0
99.09,0.018546,3.8984,0.00081767,0,0,0,0
99.59,0.018734,3.9201,0.00058283,0,0,0,0
100.09,0.018665,3.9384,0.00066178,0,0,0,0
100.59,0.018486,3.9577,0.00049988,0,0,0,0
101.09,0.018149,3.9763,0.00056284,0,0,0,0
101.59,0.017953,3.9959,0.00036693,0,0,0,0
102.09,0.01788,4.0143,0.00041391,0,0,0,0
102.59,0.017854,4.0344,0.00047988,0,0,0,0
103.09,0.017715,4.0536,0.00042691,0,0,0,0
103.59,0.018006,4.0734,0.00041092,0,0,0,0
104.09,0.018271,4.0917,0.00032395,0,0,0,0
104.59,0.01838,4.1114,0.00040392,0,0,0,0
105.09,0.018731,4.1317,0.00026796,0,0,0,0
105.59,0.019115,4.1531,0.00038393,0,0,0,0
106.09,0.019566,4.1726,0.00032095,0,0,0,0
106.59,0.01993,4.1924,0.00050687,0,0,0,0
107.09,0.020476,4.2104,0.00054285,0,0,0,0
107.59,0.020781,4.23,0.00056584,0,0,0,0
108.09,0.021181,4.2501,0.00056884,0,0,0,0
108.59,0.021174,4.2711,0.00071774,0,0,0,0
109.09,0.021466,4.2887,0.00082366,0,0,0,0
109.59,0.021496,4.308,0.00092657,0,0,0,0
110.09,0.02131,4.327,0.00069476,0,0,0,0
110.59,0.020771,4.3466,0.00066178,0,0,0,0
111.09,0.020824,4.3646,0.00059582,0,0,0,0
111.59,0.021059,4.3853,0.00082766,0,0,0,0
112.09,0.020873,4.4046,0.00066178,0,0,0,0
112.59,0.020493,4.4236,0.00072774,0,0,0,0
113.09,0.020592,4.4419,0.00059582,0,0,0,0
113.59,0.020625,4.4619,0.00046389,0,0,0,0
114.09,0.020724,4.4809,0.00036393,0,0,0,0
114.59,0.020923,4.5004,0.00046389,0,0,0,0
115.09,0.02132,4.5199,0.00042991,0,0,0,0
115.59,0.021618,4.5401,0.00036393,0,0,0,0
116.09,0.022016,4.5584,0.00046389,0,0,0,0
116.59,0.022446,4.5774,0.00059582,0,0,0,0
117.09,0.02281,4.5967,0.00079468,0,0,0,0
117.59,0.023406,4.6171,0.0006288,0,0,0,0
118.09,0.02377,4.6347,0.00069476,0,0,0,0
118.59,0.024002,4.6534,0.0008936,0,0,0,0
119.09,0.024168,4.6716,0.00079468,0,0,0,0
119.59,0.024068,4.6903,0.0010914,0,0,0,0
120.09,0.024234,4.7079,0.00092657,0,0,0,0
120.59,0.024201,4.7286,0.0008936,0,0,0,0
121.09,0.0243,4.7483,0.00099251,0,0,0,0
121.59,0.024101,4.7673,0.00086063,0,0,0,0
122.09,0.023969,4.7849,0.00086063,0,0,0,0
122.59,0.024035,4.8041,0.00076071,0,0,0,0
123.09,0.023803,4.8231,0.0006288,0,0,0,0
123.59,0.024168,4.8429,0.00066178,0,0,0,0
124.09,0.024201,4.8619,0.00082766,0,0,0,0
124.59,0.024068,4.8811,0.00076071,0,0,0,0
125.09,0.0243,4.8987,0.00072774,0,0,0,0
125.59,0.024797,4.9174,0.00046289,0,0,0,0
126.09,0.025061,4.9367,0.00072774,0,0,0,0
126.59,0.025624,4.9571,0.00076071,0,0,0,0
127.09,0.025856,4.9747,0.00076071,0,0,0,0
127.59,0.026253,4.9934,0.00086063,0,0,0,0
128.09,0.02665,5.0116,0.00076071,0,0,0,0
128.59,0.026882,5.0303,0.0010584,0,0,0,0
129.09,0.027147,5.0479,0.0010584,0,0,0,0
129.59,0.027346,5.0683,0.00099251,0,0,0,0
130.09,0.027379,5.0876,0.0010255,0,0,0,0
130.59,0.02771,5.1063,0.0011913,0,0,0,0
131.09,0.02771,5.1241,0.0011254,0,0,0,0
131.59,0.027677,5.1439,0.0010255,0,0,0,0
132.09,0.027875,5.1629,0.00095954,0,0,0,0
132.59,0.027842,5.1821,0.0011254,0,0,0,0
133.09,0.027975,5.2009,0.00099251,0,0,0,0
133.59,0.028041,5.2201,0.00092657,0,0,0,0
134.09,0.028008,5.2374,0.0008936,0,0,0,0
134.59,0.028372,5.2557,0.00082766,0,0,0,0
135.09,0.02867,5.2747,0.00082766,0,0,0,0
135.59,0.028868,5.2951,0.00079468,0,0,0,0
136.09,0.029233,5.3127,0.00086063,0,0,0,0
136.59,0.029762,5.3314,0.00076071,0,0,0,0
137.09,0.030093,5.3493,0.00092657,0,0,0,0
137.59,0.030325,5.3676,0.00092657,0,0,0,0
138.09,0.030623,5.3846,0.0010584,0,0,0,0
138.59,0.030954,5.4046,0.0012572,0,0,0,0
139.09,0.031285,5.4236,0.0012243,0,0,0,0
139.59,0.031649,5.4423,0.0011913,0,0,0,0
140.09,0.031782,5.4596,0.0012902,0,0,0,0
140.59,0.032179,5.4784,0.001389,0,0,0,0
141.09,0.032179,5.4966,0.0015548,0,0,0,0
141.59,0.032444,5.5151,0.0013561,0,0,0,0
142.09,0.032709,5.5331,0.0013561,0,0,0,0
142.59,0.032907,5.5519,0.0012243,0,0,0,0
143.09,0.033272,5.569,0.0011913,0,0,0,0
143.59,0.033537,5.5871,0.0012243,0,0,0,0
144.09,0.033801,5.6057,0.0010924,0,0,0,0
144.59,0.03443,5.6254,0.0012243,0,0,0,0
145.09,0.034894,5.6424,0.0012243,0,0,0,0
145.59,0.035192,5.6607,0.0011913,0,0,0,0
146.09,0.035424,5.6783,0.0011583,0,0,0,0
146.59,0.035821,5.6963,0.0013561,0,0,0,0
147.09,0.035854,5.7131,0.0011254,0,0,0,0
147.59,0.03645,5.733,0.0012243,0,0,0,0
148.09,0.036616,5.7516,0.001423,0,0,0,0
148.59,0.036616,5.7696,0.00139,0,0,0,0
149.09,0.037013,5.7866,0.0015218,0,0,0,0
149.59,0.037245,5.8051,0.0016536,0,0,0,0
150.09,0.037477,5.8229,0.0015877,0,0,0,0
150.59,0.037742,5.8414,0.0020509,0,0,0,0
151.09,0.038073,5.8593,0.0020838,0,0,0,0
151.59,0.038536,5.8774,0.0020509,0,0,0,0
152.09,0.038735,5.8937,0.001984,0,0,0,0
152.59,0.039265,5.9114,0.0017535,0,0,0,0
153.09,0.039861,5.9297,0.0017864,0,0,0,0
153.59,0.040489,5.9489,0.0017205,0,0,0,0
154.09,0.041119,5.965,0.0017535,0,0,0,0
154.59,0.041748,5.9824,0.0017205,0,0,0,0
155.09,0.04231,5.9996,0.0016536,0,0,0,0
155.59,0.042973,6.017,0.0017205,0,0,0,0
156.09,0.043403,6.0331,0.0016207,0,0,0,0
156.59,0.043734,6.0523,0.0015548,0,0,0,0
157.09,0.043833,6.0703,0.0016536,0,0,0,0
157.59,0.044231,6.0876,0.0017535,0,0,0,0
158.09,0.044363,6.1039,0.0018523,0,0,0,0
158.59,0.044495,6.1219,0.0019511,0,0,0,0
159.09,0.044826,6.1391,0.0023143,0,0,0,0
159.59,0.04486,6.1569,0.0021826,0,0,0,0
160.09,0.045257,6.1739,0.0023812,0,0,0,0
160.59,0.045687,6.1914,0.0026784,0,0,0,0
161.09,0.046184,6.2074,0.0027113,0,0,0,0
161.59,0.04678,6.2241,0.0027113,0,0,0,0
162.09,0.047409,6.241,0.0027113,0,0,0,0
162.59,0.048302,6.2591,0.0024799,0,0,0,0
163.09,0.048964,6.2747,0.0027113,0,0,0,0
163.59,0.049958,6.2914,0.0026455,0,0,0,0
164.09,0.050852,6.3076,0.0025787,0,0,0,0
164.59,0.051878,6.3243,0.0025468,0,0,0,0
165.09,0.052374,6.3399,0.002447,0,0,0,0
165.59,0.053169,6.358,0.0023153,0,0,0,0
166.09,0.053566,6.3749,0.002447,0,0,0,0
166.59,0.054096,6.3913,0.0026126,0,0,0,0
167.09,0.054692,6.4066,0.0027442,0,0,0,0
167.59,0.05499,6.4234,0.0026126,0,0,0,0
168.09,0.055387,6.4396,0.002844,0,0,0,0
168.59,0.055685,6.4564,0.0027771,0,0,0,0
169.09,0.056248,6.4726,0.0029427,0,0,0,0
169.59,0.056447,6.4891,0.0032726,0,0,0,0
170.09,0.057009,6.504,0.0036354,0,0,0,0
170.59,0.057539,6.5199,0.0036683,0,0,0,0
171.09,0.0584,6.5363,0.0038336,0,0,0,0
171.59,0.058996,6.5539,0.0041305,0,0,0,0
172.09,0.059824,6.5687,0.003998,0,0,0,0
172.59,0.061048,6.5841,0.0041633,0,0,0,0
173.09,0.062075,6.5994,0.0038336,0,0,0,0
173.59,0.062704,6.6154,0.0038008,0,0,0,0
174.09,0.0632,6.6304,0.0040976,0,0,0,0
174.59,0.063962,6.6477,0.0037679,0,0,0,0
175.09,0.06479,6.6639,0.003735,0,0,0,0
175.59,0.065452,6.6793,0.003735,0,0,0,0
176.09,0.066048,6.6939,0.0038008,0,0,0,0
176.59,0.066942,6.7099,0.003735,0,0,0,0
177.09,0.067471,6.7251,0.0038994,0,0,0,0
177.59,0.068299,6.7409,0.003999,0,0,0,0
178.09,0.069028,6.7561,0.0041962,0,0,0,0
178.59,0.069756,6.7719,0.0042948,0,0,0,0
179.09,0.070716,6.7863,0.00446,0,0,0,0
179.59,0.071908,6.8019,0.0046581,0,0,0,0
180.09,0.072736,6.8174,0.0049219,0,0,0,0
180.59,0.074126,6.8334,0.0054153,0,0,0,0
181.09,0.075351,6.8473,0.0057117,0,0,0,0
181.59,0.07598,6.8626,0.0057445,0,0,0,0
182.09,0.076775,6.8771,0.0058111,0,0,0,0
182.59,0.07747,6.892,0.0057117,0,0,0,0
183.09,0.078,6.9059,0.005646,0,0,0,0
183.59,0.078828,6.9217,0.0056788,0,0,0,0
184.09,0.079291,6.9364,0.0057445,0,0,0,0
184.59,0.079854,6.951,0.005481,0,0,0,0
185.09,0.08055,6.9649,0.0053497,0,0,0,0
185.59,0.081179,6.9799,0.0053497,0,0,0,0
186.09,0.081874,6.9941,0.0052174,0,0,0,0
186.59,0.083,7.0089,0.0054153,0,0,0,0
187.09,0.083728,7.0231,0.0054153,0,0,0,0
187.59,0.08492,7.0379,0.0055804,0,0,0,0
188.09,0.086145,7.051,0.0055138,0,0,0,0
188.59,0.087535,7.0649,0.0056788,0,0,0,0
189.09,0.08886,7.0793,0.0062057,0,0,0,0
189.59,0.090316,7.0949,0.0064362,0,0,0,0
190.09,0.091244,7.1083,0.0066002,0,0,0,0
190.59,0.092137,7.1226,0.0070938,0,0,0,0
191.09,0.093064,7.1361,0.0071265,0,0,0,0
191.59,0.094091,7.15,0.0073896,0,0,0,0
192.09,0.094952,7.1629,0.0074879,0,0,0,0
192.59,0.095713,7.178,0.0075862,0,0,0,0
193.09,0.096673,7.1921,0.0075534,0,0,0,0
193.59,0.097567,7.206,0.0074224,0,0,0,0
194.09,0.09856,7.2186,0.0072576,0,0,0,0
194.59,0.099454,7.2324,0.0070938,0,0,0,0
195.09,0.10071,7.2459,0.0072248,0,0,0,0
195.59,0.10184,7.2599,0.0069617,0,0,0,0
196.09,0.1029,7.2731,0.0068962,0,0,0,0
196.59,0.10449,7.2869,0.0069617,0,0,0,0
197.09,0.10568,7.2993,0.0069289,0,0,0,0
197.59,0.1067,7.3126,0.007061,0,0,0,0
198.09,0.10743,7.3263,0.0073569,0,0,0,0
198.59,0.10836,7.3409,0.0075862,0,0,0,0
199.09,0.10922,7.3533,0.0078164,0,0,0,0
199.59,0.11008,7.3646,0.0080465,0,0,0,0
200.09,0.11104,7.3773,0.0083421,0,0,0,0
200.59,0.11187,7.3917,0.0087684,0,0,0,0
201.09,0.1128,7.4061,0.0089984,0,0,0,0
201.59,0.11376,7.4191,0.009261,0,0,0,0
202.09,0.11485,7.4317,0.0093591,0,0,0,0
202.59,0.11624,7.4441,0.0095889,0,0,0,0
203.09,0.11736,7.456,0.0095235,0,0,0,0
203.59,0.11879,7.4689,0.0094245,0,0,0,0
204.09,0.12031,7.482,0.0092937,0,0,0,0
204.59,0.12177,7.4959,0.0091956,0,0,0,0
205.09,0.12336,7.5081,0.0089657,0,0,0,0
205.59,0.12458,7.5211,0.0090311,0,0,0,0
206.09,0.12581,7.533,0.0089003,0,0,0,0
206.59,0.127,7.5447,0.0087357,0,0,0,0
207.09,0.12796,7.5561,0.0088349,0,0,0,0
207.59,0.12909,7.5697,0.0089984,0,0,0,0
208.09,0.13014,7.5827,0.0092937,0,0,0,0
208.59,0.1312,7.5963,0.0093274,0,0,0,0
209.09,0.1322,7.6084,0.0096552,0,0,0,0
209.59,0.13352,7.621,0.009983,0,0,0,0
210.09,0.13471,7.6326,0.010311,0,0,0,0
210.59,0.13604,7.6451,0.010704,0,0,0,0
211.09,0.13776,7.6571,0.010998,0,0,0,0
211.59,0.13912,7.6699,0.011195,0,0,0,0
212.09,0.14057,7.6816,0.011589,0,0,0,0
212.59,0.14183,7.694,0.011392,0,0,0,0
213.09,0.14299,7.7066,0.011752,0,0,0,0
213.59,0.14415,7.7199,0.011654,0,0,0,0
214.09,0.14521,7.7319,0.011522,0,0,0,0
214.59,0.14604,7.7441,0.011457,0,0,0,0
215.09,0.14696,7.7553,0.011097,0,0,0,0
215.59,0.14809,7.7664,0.011065,0,0,0,0
216.09,0.14902,7.7774,0.010999,0,0,0,0
216.59,0.15001,7.7907,0.011032,0,0,0,0
217.09,0.15147,7.8034,0.011131,0,0,0,0
217.59,0.15302,7.8163,0.011131,0,0,0,0
218.09,0.15428,7.8277,0.011261,0,0,0,0
218.59,0.15617,7.8394,0.011556,0,0,0,0
219.09,0.15762,7.8504,0.011916,0,0,0,0
219.59,0.15938,7.8626,0.012145,0,0,0,0
220.09,0.16093,7.8744,0.012603,0,0,0,0
220.59,0.16236,7.8863,0.012897,0,0,0,0
221.09,0.16371,7.8977,0.013126,0,0,0,0
221.59,0.16478,7.9093,0.013486,0,0,0,0
222.09,0.16597,7.9207,0.013845,0,0,0,0
222.59,0.16736,7.9326,0.013813,0,0,0,0
223.09,0.16858,7.9441,0.013747,0,0,0,0
223.59,0.16997,7.9559,0.01378,0,0,0,0
224.09,0.1712,7.9666,0.013846,0,0,0,0
224.59,0.17285,7.9774,0.013649,0,0,0,0
225.09,0.17438,7.9881,0.013552,0,0,0,0
225.59,0.1764,8.0004,0.013421,0,0,0,0
226.09,0.17808,8.012,0.013323,0,0,0,0
226.59,0.17967,8.0231,0.013453,0,0,0,0
227.09,0.1813,8.0334,0.01329,0,0,0,0
227.59,0.18259,8.0446,0.013453,0,0,0,0
228.09,0.18398,8.0557,0.013748,0,0,0,0
228.59,0.1852,8.0673,0.013812,0,0,0,0
229.09,0.18633,8.0781,0.014107,0,0,0,0
229.59,0.18775,8.0891,0.014497,0,0,0,0
230.09,0.18871,8.0999,0.014694,0,0,0,0
230.59,0.1901,8.1111,0.015053,0,0,0,0
231.09,0.19113,8.1219,0.015346,0,0,0,0
231.59,0.19269,8.1329,0.015542,0,0,0,0
232.09,0.19401,8.1426,0.01577,0,0,0,0
232.59,0.19586,8.153,0.016063,0,0,0,0
233.09,0.19782,8.1633,0.01603,0,0,0,0
233.59,0.19908,8.1747,0.016128,0,0,0,0
234.09,0.2007,8.185,0.016128,0,0,0,0
234.59,0.20219,8.196,0.0159,0,0,0,0
235.09,0.20348,8.2063,0.01603,0,0,0,0
235.59,0.2049,8.2169,0.015574,0,0,0,0
236.09,0.20619,8.2267,0.015737,0,0,0,0
236.59,0.20749,8.2376,0.015573,0,0,0,0
237.09,0.20871,8.2481,0.015672,0,0,0,0
237.59,0.21023,8.2586,0.015737,0,0,0,0
238.09,0.21179,8.2684,0.0159,0,0,0,0
238.59,0.21341,8.2789,0.01616,0,0,0,0
239.09,0.2152,8.2894,0.016356,0,0,0,0
239.59,0.21729,8.3003,0.016681,0,0,0,0
240.09,0.21924,8.3104,0.017007,0,0,0,0
240.59,0.22103,8.3206,0.017398,0,0,0,0
241.09,0.22278,8.3299,0.017592,0,0,0,0
241.59,0.22407,8.34,0.01782,0,0,0,0
242.09,0.22576,8.35,0.018047,0,0,0,0
242.59,0.22725,8.3607,0.018243,0,0,0,0
243.09,0.22848,8.37,0.01847,0,0,0,0
243.59,0.23006,8.3803,0.018373,0,0,0,0
244.09,0.23142,8.39,0.018438,0,0,0,0
244.59,0.23305,8.4001,0.018276,0,0,0,0
245.09,0.2344,8.4094,0.018406,0,0,0,0
245.59,0.23632,8.4196,0.018308,0,0,0,0
246.09,0.23804,8.4291,0.018308,0,0,0,0
246.59,0.24003,8.4391,0.018275,0,0,0,0
247.09,0.24202,8.4489,0.018406,0,0,0,0
247.59,0.2438,8.4589,0.018341,0,0,0,0
248.09,0.2453,8.4684,0.018535,0,0,0,0
248.59,0.24705,8.4786,0.018763,0,0,0,0
249.09,0.24841,8.4884,0.018892,0,0,0,0
249.59,0.24976,8.4986,0.01912,0,0,0,0
250.09,0.25122,8.5076,0.019608,0,0,0,0
250.59,0.25238,8.517,0.019803,0,0,0,0
251.09,0.25394,8.526,0.020094,0,0,0,0
251.59,0.25556,8.536,0.020353,0,0,0,0
252.09,0.25718,8.5453,0.020516,0,0,0,0
252.59,0.25877,8.5557,0.020581,0,0,0,0
253.09,0.26079,8.565,0.020808,0,0,0,0
253.59,0.26271,8.5744,0.020873,0,0,0,0
254.09,0.26476,8.5831,0.021035,0,0,0,0
254.59,0.26652,8.5929,0.02097,0,0,0,0
255.09,0.26804,8.6024,0.02097,0,0,0,0
255.59,0.26966,8.6123,0.020937,0,0,0,0
256.09,0.27125,8.6214,0.020971,0,0,0,0
256.59,0.27277,8.6306,0.020971,0,0,0,0
257.09,0.27436,8.6394,0.021262,0,0,0,0
257.59,0.27585,8.6489,0.021327,0,0,0,0
258.09,0.27748,8.6581,0.021522,0,0,0,0
258.59,0.2793,8.6676,0.021489,0,0,0,0
259.09,0.28125,8.6759,0.021716,0,0,0,0
259.59,0.2834,8.685,0.021845,0,0,0,0
260.09,0.28546,8.694,0.022202,0,0,0,0
260.59,0.28754,8.704,0.022461,0,0,0,0
261.09,0.28959,8.7127,0.022687,0,0,0,0
261.59,0.29132,8.722,0.022817,0,0,0,0
262.09,0.29301,8.7303,0.023205,0,0,0,0
262.59,0.29476,8.7394,0.02327,0,0,0,0
263.09,0.29645,8.7481,0.023464,0,0,0,0
263.59,0.29797,8.7573,0.023626,0,0,0,0
264.09,0.29976,8.7657,0.023658,0,0,0,0
264.59,0.30128,8.7746,0.023788,0,0,0,0
265.09,0.30304,8.7834,0.023756,0,0,0,0
265.59,0.30496,8.7926,0.023756,0,0,0,0
266.09,0.30731,8.8014,0.02395,0,0,0,0
266.59,0.30936,8.8103,0.024143,0,0,0,0
267.09,0.31155,8.8187,0.024014,0,0,0,0
267.59,0.3135,8.8276,0.02424,0,0,0,0
268.09,0.31522,8.8359,0.024337,0,0,0,0
268.59,0.31717,8.8447,0.024694,0,0,0,0
269.09,0.31863,8.853,0.024822,0,0,0,0
269.59,0.32019,8.862,0.024886,0,0,0,0
270.09,0.32181,8.87,0.02508,0,0,0,0
270.59,0.32343,8.879,0.025081,0,0,0,0
271.09,0.32519,8.8873,0.025436,0,0,0,0
271.59,0.32694,8.8959,0.025726,0,0,0,0
272.09,0.3289,8.9037,0.025823,0,0,0,0
272.59,0.33098,8.9123,0.026177,0,0,0,0
273.09,0.33313,8.9207,0.026371,0,0,0,0
273.59,0.33519,8.9293,0.026307,0,0,0,0
274.09,0.33701,8.9377,0.026662,0,0,0,0
274.59,0.33876,8.946,0.026661,0,0,0,0
275.09,0.34055,8.954,0.026759,0,0,0,0
275.59,0.34207,8.9623,0.02692,0,0,0,0
276.09,0.34356,8.9707,0.026953,0,0,0,0
276.59,0.34548,8.9793,0.027082,0,0,0,0
277.09,0.34701,8.9871,0.027501,0,0,0,0
277.59,0.34876,8.9954,0.027468,0,0,0,0
278.09,0.35058,9.0033,0.027501,0,0,0,0
278.59,0.3528,9.0117,0.027662,0,0,0,0
279.09,0.35475,9.0196,0.027888,0,0,0,0
279.59,0.35717,9.0281,0.028017,0,0,0,0
280.09,0.35936,9.0356,0.028209,0,0,0,0
280.59,0.36134,9.0431,0.028241,0,0,0,0
281.09,0.3633,9.0504,0.028531,0,0,0,0
281.59,0.36489,9.0586,0.028788,0,0,0,0
282.09,0.36691,9.0664,0.028918,0,0,0,0
282.59,0.36856,9.0746,0.02911,0,0,0,0
283.09,0.37035,9.0824,0.029303,0,0,0,0
283.59,0.37247,9.0906,0.029562,0,0,0,0
284.09,0.37432,9.0981,0.029657,0,0,0,0
284.59,0.37618,9.1056,0.029947,0,0,0,0
285.09,0.37846,9.1133,0.030011,0,0,0,0
285.59,0.38084,9.1211,0.030076,0,0,0,0
286.09,0.38329,9.1289,0.030397,0,0,0,0
286.59,0.38538,9.1364,0.03059,0,0,0,0
287.09,0.3875,9.1449,0.03059,0,0,0,0
287.59,0.38939,9.1529,0.030751,0,0,0,0
288.09,0.39117,9.16,0.030848,0,0,0,0
288.59,0.393,9.1666,0.03104,0,0,0,0
289.09,0.39478,9.1737,0.031265,0,0,0,0
289.59,0.3965,9.1816,0.031361,0,0,0,0
290.09,0.39846,9.1894,0.031617,0,0,0,0
290.59,0.40051,9.1979,0.03181,0,0,0,0
291.09,0.40253,9.2056,0.031938,0,0,0,0
291.59,0.40475,9.2134,0.032001,0,0,0,0
292.09,0.40736,9.2206,0.032162,0,0,0,0
292.59,0.40929,9.2279,0.032291,0,0,0,0
293.09,0.41157,9.2347,0.03261,0,0,0,0
293.59,0.41362,9.2423,0.032835,0,0,0,0
294.09,0.41571,9.2497,0.033029,0,0,0,0
294.59,0.41746,9.2573,0.033316,0,0,0,0
295.09,0.41915,9.2641,0.033155,0,0,0,0
295.59,0.42107,9.2714,0.033572,0,0,0,0
296.09,0.42289,9.2789,0.033605,0,0,0,0
296.59,0.42481,9.2869,0.033829,0,0,0,0
297.09,0.42693,9.2941,0.034053,0,0,0,0
297.59,0.42892,9.3016,0.034148,0,0,0,0
298.09,0.4314,9.3081,0.034148,0,0,0,0
298.59,0.43385,9.3149,0.034532,0,0,0,0
299.09,0.43574,9.3214,0.0345,0,0,0,0
299.59,0.43802,9.3289,0.03482,0,0,0,0
300.09,0.43971,9.3359,0.035076,0,0,0,0
300.59,0.44153,9.3434,0.035011,0,0,0,0
301.09,0.44329,9.3503,0.035426,0,0,0,0
301.59,0.44557,9.3571,0.03565,0,0,0,0
302.09,0.4471,9.3634,0.035683,0,0,0,0
302.59,0.44905,9.3706,0.035715,0,0,0,0
303.09,0.45113,9.3777,0.036129,0,0,0,0
303.59,0.45349,9.3853,0.036449,0,0,0,0
304.09,0.45577,9.3919,0.036289,0,0,0,0
304.59,0.45832,9.3984,0.036608,0,0,0,0
305.09,0.4606,9.4051,0.036832,0,0,0,0
305.59,0.46296,9.4126,0.037087,0,0,0,0
306.09,0.46491,9.4194,0.037119,0,0,0,0
306.59,0.46699,9.4266,0.037437,0,0,0,0
307.09,0.46871,9.4329,0.03747,0,0,0,0
307.59,0.47067,9.4389,0.037756,0,0,0,0
308.09,0.47265,9.4447,0.038043,0,0,0,0
308.59,0.47461,9.4519,0.03798,0,0,0,0
309.09,0.47679,9.4589,0.038235,0,0,0,0
309.59,0.47908,9.4659,0.038362,0,0,0,0
310.09,0.48159,9.4721,0.038617,0,0,0,0
310.59,0.48414,9.4786,0.038744,0,0,0,0
311.09,0.48676,9.4847,0.038935,0,0,0,0
311.59,0.48891,9.4916,0.03938,0,0,0,0
312.09,0.4911,9.4984,0.039317,0,0,0,0
312.59,0.49315,9.5053,0.03954,0,0,0,0
313.09,0.49523,9.5111,0.039795,0,0,0,0
313.59,0.49699,9.5174,0.040018,0,0,0,0
314.09,0.49914,9.5241,0.040367,0,0,0,0
314.59,0.50113,9.5316,0.040271,0,0,0,0
315.09,0.50331,9.5381,0.040589,0,0,0,0
315.59,0.50557,9.5446,0.040812,0,0,0,0
316.09,0.50802,9.5501,0.040938,0,0,0,0
316.59,0.51083,9.5559,0.041129,0,0,0,0
317.09,0.51321,9.5617,0.041448,0,0,0,0
317.59,0.51546,9.5686,0.041574,0,0,0,0
318.09,0.51758,9.5751,0.041637,0,0,0,0
318.59,0.51974,9.5819,0.041986,0,0,0,0
319.09,0.52169,9.5879,0.041987,0,0,0,0
319.59,0.52384,9.5939,0.042272,0,0,0,0
320.09,0.52546,9.5997,0.042558,0,0,0,0
320.59,0.52768,9.6063,0.042717,0,0,0,0
321.09,0.52997,9.6124,0.042939,0,0,0,0
321.59,0.53225,9.6186,0.043002,0,0,0,0
322.09,0.5348,9.6244,0.043256,0,0,0,0
322.59,0.53699,9.6306,0.043604,0,0,0,0
323.09,0.53964,9.6367,0.0437,0,0,0,0
323.59,0.54215,9.643,0.04389,0,0,0,0
324.09,0.54421,9.649,0.04424,0,0,0,0
324.59,0.54642,9.6553,0.044301,0,0,0,0
325.09,0.54814,9.6611,0.044713,0,0,0,0
325.59,0.55013,9.6669,0.044777,0,0,0,0
326.09,0.55218,9.6724,0.045125,0,0,0,0
326.59,0.554,9.6789,0.045316,0,0,0,0
327.09,0.55636,9.6849,0.045316,0,0,0,0
327.59,0.55861,9.6911,0.045662,0,0,0,0
328.09,0.56109,9.6969,0.045884,0,0,0,0
328.59,0.56384,9.7026,0.045917,0,0,0,0
329.09,0.56629,9.708,0.046043,0,0,0,0
329.59,0.56861,9.7143,0.046517,0,0,0,0
330.09,0.57069,9.7204,0.046391,0,0,0,0
330.59,0.57268,9.7266,0.046707,0,0,0,0
331.09,0.57477,9.7321,0.047054,0,0,0,0
331.59,0.57669,9.7379,0.047244,0,0,0,0
332.09,0.57877,9.7437,0.047528,0,0,0,0
332.59,0.58106,9.75,0.04778,0,0,0,0
333.09,0.58331,9.7557,0.048097,0,0,0,0
333.59,0.58559,9.7613,0.048191,0,0,0,0
334.09,0.58827,9.7664,0.048475,0,0,0,0
334.59,0.59092,9.7716,0.048475,0,0,0,0
335.09,0.59351,9.7767,0.048663,0,0,0,0
335.59,0.59599,9.7829,0.04901,0,0,0,0
336.09,0.59808,9.7889,0.049231,0,0,0,0
336.59,0.60023,9.7951,0.049389,0,0,0,0
337.09,0.60235,9.8009,0.049547,0,0,0,0
337.59,0.60453,9.8066,0.049799,0,0,0,0
338.09,0.60672,9.8117,0.05005,0,0,0,0
338.59,0.6089,9.8173,0.050241,0,0,0,0
339.09,0.61152,9.8227,0.05065,0,0,0,0
339.59,0.6141,9.8283,0.050776,0,0,0,0
340.09,0.61662,9.8334,0.050933,0,0,0,0
340.59,0.6194,9.8389,0.051153,0,0,0,0
341.09,0.62205,9.8444,0.051436,0,0,0,0
341.59,0.62443,9.85,0.05172,0,0,0,0
342.09,0.62665,9.8553,0.051939,0,0,0,0
342.59,0.62893,9.8607,0.052285,0,0,0,0
343.09,0.63105,9.866,0.052474,0,0,0,0
343.59,0.63301,9.871,0.052694,0,0,0,0
344.09,0.63532,9.8757,0.052882,0,0,0,0
344.59,0.63781,9.8806,0.053133,0,0,0,0
345.09,0.64032,9.8857,0.053479,0,0,0,0
345.59,0.64314,9.8919,0.053573,0,0,0,0
346.09,0.64592,9.8976,0.053824,0,0,0,0
346.59,0.64847,9.9029,0.054075,0,0,0,0
347.09,0.65099,9.9074,0.054421,0,0,0,0
347.59,0.65337,9.9126,0.054576,0,0,0,0
348.09,0.65572,9.9177,0.054891,0,0,0,0
348.59,0.65777,9.9233,0.055237,0,0,0,0
349.09,0.66012,9.9284,0.055361,0,0,0,0
349.59,0.66204,9.9336,0.055518,0,0,0,0
350.09,0.66459,9.9384,0.055737,0,0,0,0
350.59,0.66704,9.9436,0.056143,0,0,0,0
351.09,0.66969,9.9487,0.056143,0,0,0,0
351.59,0.67244,9.9543,0.056363,0,0,0,0
352.09,0.67512,9.9591,0.056707,0,0,0,0
352.59,0.67774,9.9636,0.056989,0,0,0,0
353.09,0.68039,9.968,0.057208,0,0,0,0
353.59,0.68257,9.9736,0.057458,0,0,0,0
354.09,0.68502,9.9789,0.057833,0,0,0,0
354.59,0.68707,9.9841,0.058115,0,0,0,0
355.09,0.68923,9.9889,0.058302,0,0,0,0
355.59,0.69154,9.9936,0.058614,0,0,0,0
356.09,0.69386,9.9977,0.059176,0,0,0,0
356.59,0.69654,10.003,0.059269,0,0,0,0
357.09,0.69913,10.008,0.059239,0,0,0,0
357.59,0.70184,10.013,0.059582,0,0,0,0
358.09,0.70459,10.017,0.059831,0,0,0,0
358.59,0.70724,10.021,0.0603,0,0,0,0
359.09,0.70962,10.026,0.060455,0,0,0,0
359.59,0.71177,10.032,0.060611,0,0,0,0
360.09,0.71403,10.036,0.06083,0,0,0,0
360.59,0.71621,10.041,0.061141,0,0,0,0
361.09,0.71843,10.045,0.061327,0,0,0,0
361.59,0.72071,10.05,0.06167,0,0,0,0
362.09,0.72349,10.054,0.061825,0,0,0,0
362.59,0.72588,10.06,0.062231,0,0,0,0
363.09,0.72863,10.065,0.062666,0,0,0,0
363.59,0.73157,10.07,0.062822,0,0,0,0
364.09,0.73412,10.074,0.063194,0,0,0,0
364.59,0.73677,10.079,0.063475,0,0,0,0
365.09,0.73925,10.083,0.063662,0,0,0,0
365.59,0.74141,10.088,0.064035,0,0,0,0
366.09,0.74343,10.092,0.064314,0,0,0,0
366.59,0.74601,10.096,0.064532,0,0,0,0
367.09,0.74826,10.1,0.06478,0,0,0,0
367.59,0.75048,10.105,0.065121,0,0,0,0
368.09,0.75319,10.109,0.065463,0,0,0,0
368.59,0.75594,10.114,0.065617,0,0,0,0
369.09,0.75882,10.118,0.065989,0,0,0,0
369.59,0.76177,10.123,0.066175,0,0,0,0
370.09,0.76448,10.127,0.066486,0,0,0,0
370.59,0.76664,10.131,0.066827,0,0,0,0
371.09,0.76905,10.135,0.06695,0,0,0,0
371.59,0.77127,10.14,0.067168,0,0,0,0
372.09,0.77382,10.144,0.067477,0,0,0,0
372.59,0.77591,10.149,0.068066,0,0,0,0
373.09,0.77842,10.153,0.068159,0,0,0,0
373.59,0.78097,10.158,0.068623,0,0,0,0
374.09,0.78385,10.161,0.0689,0,0,0,0
374.59,0.78683,10.166,0.069117,0,0,0,0
375.09,0.78971,10.169,0.069396,0,0,0,0
375.59,0.79243,10.174,0.069642,0,0,0,0
376.09,0.79491,10.177,0.070105,0,0,0,0
376.59,0.79733,10.182,0.070136,0,0,0,0
377.09,0.79961,10.186,0.070444,0,0,0,0
377.59,0.80203,10.191,0.070722,0,0,0,0
378.09,0.80415,10.194,0.070937,0,0,0,0
378.59,0.80683,10.199,0.071217,0,0,0,0
379.09,0.80928,10.202,0.071494,0,0,0,0
379.59,0.812,10.206,0.071864,0,0,0,0
380.09,0.81534,10.21,0.072081,0,0,0,0
380.59,0.81799,10.214,0.07248,0,0,0,0
381.09,0.82071,10.218,0.072633,0,0,0,0
381.59,0.82342,10.222,0.073157,0,0,0,0
382.09,0.82574,10.226,0.073527,0,0,0,0
382.59,0.82835,10.23,0.073987,0,0,0,0
383.09,0.83084,10.233,0.074112,0,0,0,0
383.59,0.83282,10.238,0.074634,0,0,0,0
384.09,0.8355,10.242,0.074633,0,0,0,0
384.59,0.83802,10.246,0.07494,0,0,0,0
385.09,0.84087,10.25,0.075218,0,0,0,0
385.59,0.84372,10.253,0.075493,0,0,0,0
386.09,0.84703,10.257,0.075893,0,0,0,0
386.59,0.84984,10.26,0.076046,0,0,0,0
387.09,0.85246,10.264,0.076322,0,0,0,0
387.59,0.8552,10.267,0.076598,0,0,0,0
388.09,0.85762,10.272,0.076967,0,0,0,0
388.59,0.85984,10.275,0.07709,0,0,0,0
389.09,0.86229,10.279,0.077394,0,0,0,0
389.59,0.86484,10.283,0.07807,0,0,0,0
390.09,0.86742,10.286,0.078253,0,0,0,0
390.59,0.87014,10.29,0.078681,0,0,0,0
391.09,0.87315,10.294,0.079019,0,0,0,0
391.59,0.87603,10.297,0.079478,0,0,0,0
392.09,0.87904,10.301,0.079815,0,0,0,0
392.59,0.88179,10.304,0.080273,0,0,0,0
393.09,0.88441,10.307,0.080456,0,0,0,0
393.59,0.88706,10.311,0.080824,0,0,0,0
394.09,0.88954,10.315,0.08116,0,0,0,0
394.59,0.89189,10.318,0.081463,0,0,0,0
395.09,0.89431,10.322,0.081738,0,0,0,0
395.59,0.89686,10.325,0.081922,0,0,0,0
396.09,0.8996,10.328,0.082105,0,0,0,0
396.59,0.90248,10.332,0.082562,0,0,0,0
397.09,0.9058,10.336,0.082653,0,0,0,0
397.59,0.90864,10.34,0.083019,0,0,0,0
398.09,0.91146,10.343,0.083293,0,0,0,0
398.59,0.91414,10.346,0.08375,0,0,0,0
399.09,0.91682,10.35,0.084024,0,0,0,0
399.59,0.91937,10.353,0.084511,0,0,0,0
400.09,0.92175,10.357,0.084846,0,0,0,0
400.59,0.9244,10.36,0.085332,0,0,0,0
401.09,0.92666,10.363,0.085727,0,0,0,0
401.59,0.92954,10.366,0.086275,0,0,0,0
402.09,0.93252,10.369,0.0867,0,0,0,0
402.59,0.93563,10.372,0.08673,0,0,0,0
403.09,0.93861,10.375,0.087217,0,0,0,0
403.59,0.94156,10.378,0.087671,0,0,0,0
404.09,0.9443,10.382,0.087914,0,0,0,0
404.59,0.94675,10.385,0.088246,0,0,0,0
405.09,0.94937,10.389,0.088672,0,0,0,0
405.59,0.95162,10.392,0.088824,0,0,0,0
406.09,0.95437,10.395,0.089276,0,0,0,0
406.59,0.95698,10.398,0.089642,0,0,0,0
407.09,0.95993,10.402,0.089881,0,0,0,0
407.59,0.96291,10.404,0.090277,0,0,0,0
408.09,0.96602,10.408,0.090519,0,0,0,0
408.59,0.9691,10.411,0.090971,0,0,0,0
409.09,0.97192,10.414,0.091335,0,0,0,0
409.59,0.9743,10.417,0.091696,0,0,0,0
410.09,0.97682,10.42,0.092211,0,0,0,0
410.59,0.97947,10.422,0.092512,0,0,0,0
411.09,0.98205,10.425,0.093145,0,0,0,0
411.59,0.9846,10.428,0.093448,0,0,0,0
412.09,0.98715,10.431,0.093749,0,0,0,0
412.59,0.99033,10.433,0.094233,0,0,0,0
413.09,0.99324,10.436,0.094534,0,0,0,0
413.59,0.99619,10.439,0.094925,0,0,0,0
414.09,0.99937,10.442,0.095227,0,0,0,0
414.59,1.0022,10.445,0.095557,0,0,0,0
415.09,1.0048,10.447,0.095827,0,0,0,0
415.59,1.0073,10.45,0.096609,0,0,0,0
416.09,1.0099,10.453,0.096731,0,0,0,0
416.59,1.0125,10.456,0.09724,0,0,0,0
417.09,1.0149,10.459,0.097331,0,0,0,0
417.59,1.0178,10.461,0.097992,0,0,0,0
418.09,1.0205,10.464,0.098502,0,0,0,0
418.59,1.0238,10.467,0.098771,0,0,0,0
419.09,1.027,10.469,0.099131,0,0,0,0
419.59,1.03,10.472,0.099611,0,0,0,0
420.09,1.0328,10.475,0.10003,0,0,0,0
420.59,1.0354,10.477,0.10042,0,0,0,0
421.09,1.038,10.479,0.10072,0,0,0,0
421.59,1.0405,10.482,0.1012,0,0,0,0
422.09,1.0431,10.484,0.10156,0,0,0,0
422.59,1.0457,10.487,0.10213,0,0,0,0
423.09,1.0485,10.49,0.10242,0,0,0,0
423.59,1.0515,10.492,0.10278,0,0,0,0
424.09,1.0547,10.494,0.10323,0,0,0,0
424.59,1.058,10.497,0.10359,0,0,0,0
425.09,1.0609,10.499,0.10401,0,0,0,0
425.59,1.0637,10.501,0.10449,0,0,0,0
426.09,1.0662,10.504,0.10481,0,0,0,0
426.59,1.0691,10.506,0.10523,0,0,0,0
427.09,1.0713,10.509,0.10562,0,0,0,0
427.59,1.074,10.511,0.10627,0,0,0,0
428.09,1.0767,10.513,0.10657,0,0,0,0
428.59,1.0796,10.515,0.10708,0,0,0,0
429.09,1.0827,10.517,0.10743,0,0,0,0
429.59,1.086,10.52,0.10791,0,0,0,0
430.09,1.0894,10.522,0.10835,0,0,0,0
430.59,1.0922,10.525,0.10871,0,0,0,0
431.09,1.095,10.527,0.10919,0,0,0,0
431.59,1.0979,10.529,0.10963,0,0,0,0
432.09,1.1003,10.532,0.11017,0,0,0,0
432.59,1.1031,10.534,0.11049,0,0,0,0
433.09,1.1056,10.536,0.11094,0,0,0,0
433.59,1.1083,10.537,0.11123,0,0,0,0
434.09,1.1115,10.539,0.11191,0,0,0,0
434.59,1.1146,10.541,0.11242,0,0,0,0
435.09,1.1176,10.543,0.11271,0,0,0,0
435.59,1.121,10.545,0.11342,0,0,0,0
436.09,1.1241,10.547,0.11363,0,0,0,0
436.59,1.1268,10.55,0.11411,0,0,0,0
437.09,1.1296,10.552,0.11464,0,0,0,0
437.59,1.1321,10.554,0.11523,0,0,0,0
438.09,1.1349,10.555,0.11561,0,0,0,0
438.59,1.1376,10.557,0.11626,0,0,0,0
439.09,1.1405,10.559,0.11661,0,0,0,0
439.59,1.1438,10.561,0.11726,0,0,0,0
440.09,1.1467,10.563,0.11764,0,0,0,0
440.59,1.1503,10.565,0.1182,0,0,0,0
441.09,1.1535,10.567,0.11856,0,0,0,0
441.59,1.1565,10.569,0.11909,0,0,0,0
442.09,1.1592,10.57,0.11961,0,0,0,0
442.59,1.1619,10.572,0.1202,0,0,0,0
443.09,1.1645,10.574,0.12061,0,0,0,0
443.59,1.1674,10.576,0.12105,0,0,0,0
444.09,1.1702,10.577,0.12161,0,0,0,0
444.59,1.173,10.579,0.12211,0,0,0,0
445.09,1.1764,10.581,0.12252,0,0,0,0
445.59,1.1797,10.583,0.12307,0,0,0,0
446.09,1.1829,10.584,0.12354,0,0,0,0
446.59,1.1862,10.585,0.12392,0,0,0,0
447.09,1.189,10.587,0.12465,0,0,0,0
447.59,1.1919,10.589,0.12515,0,0,0,0
448.09,1.1947,10.59,0.12562,0,0,0,0
448.59,1.1974,10.592,0.12623,0,0,0,0
449.09,1.2004,10.594,0.12678,0,0,0,0
449.59,1.2032,10.595,0.12728,0,0,0,0
450.09,1.2062,10.597,0.12763,0,0,0,0
450.59,1.2096,10.598,0.12833,0,0,0,0
451.09,1.2131,10.6,0.12883,0,0,0,0
451.59,1.2163,10.601,0.12938,0,0,0,0
452.09,1.2194,10.602,0.12982,0,0,0,0
452.59,1.2223,10.603,0.13057,0,0,0,0
453.09,1.2252,10.604,0.13104,0,0,0,0
453.59,1.228,10.606,0.13156,0,0,0,0
454.09,1.2308,10.607,0.13191,0,0,0,0
454.59,1.2337,10.608,0.1326,0,0,0,0
455.09,1.2366,10.609,0.13327,0,0,0,0
455.59,1.2398,10.61,0.13364,0,0,0,0
456.09,1.2433,10.612,0.13425,0,0,0,0
456.59,1.2468,10.613,0.13503,0,0,0,0
457.09,1.2498,10.614,0.13553,0,0,0,0
457.59,1.2529,10.615,0.1359,0,0,0,0
458.09,1.2558,10.616,0.13662,0,0,0,0
458.59,1.2585,10.618,0.13709,0,0,0,0
459.09,1.2612,10.619,0.13761,0,0,0,0
459.59,1.2642,10.62,0.13833,0,0,0,0
460.09,1.2673,10.621,0.13905,0,0,0,0
460.59,1.2703,10.622,0.13963,0,0,0,0
461.09,1.2738,10.623,0.13991,0,0,0,0
461.59,1.2772,10.624,0.14066,0,0,0,0
462.09,1.2806,10.625,0.14133,0,0,0,0
462.59,1.2836,10.626,0.14193,0,0,0,0
463.09,1.2864,10.626,0.14256,0,0,0,0
463.59,1.2894,10.627,0.14319,0,0,0,0
464.09,1.2922,10.628,0.14388,0,0,0,0
464.59,1.2951,10.629,0.14457,0,0,0,0
465.09,1.2981,10.63,0.14508,0,0,0,0
465.59,1.3013,10.63,0.14574,0,0,0,0
466.09,1.3045,10.631,0.14632,0,0,0,0
466.59,1.3083,10.632,0.14683,0,0,0,0
467.09,1.3115,10.633,0.1476,0,0,0,0
467.59,1.3148,10.634,0.14814,0,0,0,0
468.09,1.3178,10.634,0.14877,0,0,0,0
468.59,1.3207,10.634,0.14943,0,0,0,0
469.09,1.3236,10.635,0.15014,0,0,0,0
469.59,1.3265,10.636,0.15068,0,0,0,0
470.09,1.3294,10.636,0.15148,0,0,0,0
470.59,1.3324,10.636,0.15219,0,0,0,0
471.09,1.3359,10.636,0.15287,0,0,0,0
471.59,1.3391,10.637,0.15335,0,0,0,0
472.09,1.3427,10.638,0.15418,0,0,0,0
472.59,1.3459,10.639,0.15477,0,0,0,0
473.09,1.3493,10.639,0.15542,0,0,0,0
473.59,1.3521,10.639,0.15613,0,0,0,0
474.09,1.3551,10.639,0.15673,0,0,0,0
474.59,1.3581,10.64,0.15732,0,0,0,0
475.09,1.3609,10.641,0.158,0,0,0,0
475.59,1.3641,10.641,0.15882,0,0,0,0
476.09,1.3672,10.641,0.15927,0,0,0,0
476.59,1.3709,10.641,0.16017,0,0,0,0
477.09,1.3745,10.641,0.16082,0,0,0,0
477.59,1.378,10.642,0.16184,0,0,0,0
478.09,1.3813,10.642,0.16257,0,0,0,0
478.59,1.3842,10.642,0.16319,0,0,0,0
479.09,1.3871,10.642,0.16384,0,0,0,0
479.59,1.3902,10.642,0.16473,0,0,0,0
480.09,1.3931,10.642,0.16532,0,0,0,0
480.59,1.3961,10.642,0.16614,0,0,0,0
481.09,1.3995,10.642,0.16687,0,0,0,0
481.59,1.4032,10.642,0.16768,0,0,0,0
482.09,1.4069,10.642,0.16838,0,0,0,0
482.59,1.4102,10.642,0.16899,0,0,0,0
483.09,1.4137,10.642,0.16995,0,0,0,0
483.59,1.4168,10.642,0.17076,0,0,0,0
484.09,1.4197,10.642,0.17165,0,0,0,0
484.59,1.4223,10.641,0.17237,0,0,0,0
485.09,1.4257,10.64,0.17329,0,0,0,0
485.59,1.4288,10.64,0.17404,0,0,0,0
486.09,1.4321,10.64,0.17485,0,0,0,0
486.59,1.4356,10.64,0.17588,0,0,0,0
487.09,1.4393,10.639,0.17663,0,0,0,0
487.59,1.4429,10.638,0.17749,0,0,0,0
488.09,1.4462,10.638,0.17818,0,0,0,0
488.59,1.4494,10.638,0.17904,0,0,0,0
489.09,1.4526,10.637,0.1799,0,0,0,0
489.59,1.4556,10.637,0.18059,0,0,0,0
490.09,1.4586,10.636,0.18142,0,0,0,0
490.59,1.4616,10.636,0.18235,0,0,0,0
491.09,1.4652,10.635,0.18315,0,0,0,0
491.59,1.4687,10.634,0.18401,0,0,0,0
492.09,1.4725,10.634,0.18494,0,0,0,0
492.59,1.476,10.633,0.18583,0,0,0,0
493.09,1.4795,10.632,0.1867,0,0,0,0
493.59,1.4829,10.631,0.1875,0,0,0,0
494.09,1.4858,10.63,0.18841,0,0,0,0
494.59,1.4886,10.629,0.18926,0,0,0,0
495.09,1.4918,10.628,0.19016,0,0,0,0
495.59,1.495,10.627,0.19112,0,0,0,0
496.09,1.4983,10.626,0.1918,0,0,0,0
496.59,1.5021,10.625,0.19273,0,0,0,0
497.09,1.5057,10.624,0.19391,0,0,0,0
497.59,1.5094,10.623,0.19478,0,0,0,0
498.09,1.5127,10.621,0.19554,0,0,0,0
498.59,1.5158,10.62,0.19677,0,0,0,0
499.09,1.5189,10.619,0.19761,0,0,0,0
499.59,1.522,10.617,0.1988,0,0,0,0
500.09,1.5251,10.616,0.19964,0,0,0,0
500.59,1.5281,10.615,0.20081,0,0,0,0
501.09,1.5318,10.614,0.20168,0,0,0,0
501.59,1.5352,10.612,0.20268,0,0,0,0
502.09,1.539,10.611,0.20338,0,0,0,0
502.59,1.5427,10.61,0.20438,0,0,0,0
503.09,1.5461,10.608,0.20549,0,0,0,0
503.59,1.5493,10.606,0.20641,0,0,0,0
504.09,1.5524,10.604,0.2074,0,0,0,0
504.59,1.5554,10.603,0.20848,0,0,0,0
505.09,1.5586,10.601,0.20944,0,0,0,0
505.59,1.5619,10.6,0.2106,0,0,0,0
506.09,1.5653,10.598,0.21151,0,0,0,0
506.59,1.5689,10.596,0.21264,0,0,0,0
507.09,1.5728,10.594,0.21376,0,0,0,0
507.59,1.5764,10.592,0.21462,0,0,0,0
508.09,1.5797,10.591,0.2156,0,0,0,0
508.59,1.5831,10.589,0.21664,0,0,0,0
509.09,1.586,10.587,0.21774,0,0,0,0
509.59,1.5893,10.585,0.21888,0,0,0,0
510.09,1.5924,10.583,0.21994,0,0,0,0
510.59,1.5958,10.581,0.22093,0,0,0,0
511.09,1.5993,10.579,0.22202,0,0,0,0
511.59,1.6032,10.577,0.22318,0,0,0,0
512.09,1.607,10.575,0.22414,0,0,0,0
512.59,1.6108,10.573,0.22525,0,0,0,0
513.09,1.6141,10.57,0.22617,0,0,0,0
513.59,1.6172,10.568,0.22752,0,0,0,0
514.09,1.6201,10.565,0.22847,0,0,0,0
514.59,1.6234,10.562,0.2297,0,0,0,0
515.09,1.6266,10.56,0.23081,0,0,0,0
515.59,1.6299,10.557,0.23201,0,0,0,0
516.09,1.6335,10.555,0.23304,0,0,0,0
516.59,1.6373,10.552,0.23443,0,0,0,0
517.09,1.6411,10.55,0.23571,0,0,0,0
517.59,1.6448,10.547,0.23691,0,0,0,0
518.09,1.6484,10.545,0.23825,0,0,0,0
518.59,1.6515,10.542,0.23926,0,0,0,0
519.09,1.6548,10.539,0.24036,0,0,0,0
519.59,1.6579,10.537,0.24171,0,0,0,0
520.09,1.6612,10.533,0.24288,0,0,0,0
520.59,1.6646,10.531,0.2441,0,0,0,0
521.09,1.6682,10.527,0.24524,0,0,0,0
521.59,1.6721,10.525,0.24669,0,0,0,0
522.09,1.6761,10.521,0.24806,0,0,0,0
522.59,1.6798,10.518,0.24928,0,0,0,0
523.09,1.6831,10.514,0.25052,0,0,0,0
523.59,1.6864,10.511,0.25183,0,0,0,0
524.09,1.6897,10.508,0.25296,0,0,0,0
524.59,1.6929,10.505,0.25407,0,0,0,0
525.09,1.6963,10.502,0.2553,0,0,0,0
525.59,1.7,10.498,0.25673,0,0,0,0
526.09,1.7038,10.495,0.25791,0,0,0,0
526.59,1.7077,10.491,0.25917,0,0,0,0
527.09,1.7115,10.488,0.26062,0,0,0,0
527.59,1.7149,10.484,0.26205,0,0,0,0
528.09,1.7186,10.48,0.26345,0,0,0,0
528.59,1.7217,10.476,0.26495,0,0,0,0
529.09,1.7249,10.472,0.26655,0,0,0,0
529.59,1.7283,10.469,0.26774,0,0,0,0
530.09,1.7317,10.464,0.26916,0,0,0,0
530.59,1.7352,10.461,0.2705,0,0,0,0
531.09,1.7392,10.456,0.27189,0,0,0,0
531.59,1.7433,10.452,0.2729,0,0,0,0
532.09,1.747,10.448,0.27414,0,0,0,0
532.59,1.7504,10.443,0.27555,0,0,0,0
533.09,1.7538,10.439,0.2768,0,0,0,0
533.59,1.7571,10.435,0.27813,0,0,0,0
534.09,1.7602,10.431,0.27949,0,0,0,0
534.59,1.7638,10.427,0.28109,0,0,0,0
535.09,1.7673,10.422,0.28246,0,0,0,0
535.59,1.7712,10.418,0.28403,0,0,0,0
536.09,1.7754,10.413,0.28531,0,0,0,0
536.59,1.7793,10.408,0.2867,0,0,0,0
537.09,1.783,10.403,0.28824,0,0,0,0
537.59,1.7863,10.399,0.28966,0,0,0,0
538.09,1.7896,10.393,0.29136,0,0,0,0
538.59,1.7931,10.388,0.29255,0,0,0,0
539.09,1.7963,10.383,0.29396,0,0,0,0
539.59,1.7997,10.378,0.29539,0,0,0,0
540.09,1.8034,10.373,0.2967,0,0,0,0
540.59,1.8075,10.369,0.29827,0,0,0,0
541.09,1.8115,10.363,0.29962,0,0,0,0
541.59,1.8151,10.357,0.30131,0,0,0,0
542.09,1.8188,10.351,0.30281,0,0,0,0
542.59,1.8223,10.347,0.30439,0,0,0,0
543.09,1.8255,10.341,0.30593,0,0,0,0
543.59,1.8288,10.336,0.30754,0,0,0,0
544.09,1.8323,10.33,0.30902,0,0,0,0
544.59,1.836,10.324,0.31034,0,0,0,0
545.09,1.8398,10.319,0.31165,0,0,0,0
545.59,1.8438,10.313,0.313,0,0,0,0
546.09,1.8478,10.307,0.31443,0,0,0,0
546.59,1.8515,10.301,0.31588,0,0,0,0
547.09,1.8552,10.295,0.31767,0,0,0,0
547.59,1.8585,10.289,0.31929,0,0,0,0
548.09,1.8619,10.283,0.32085,0,0,0,0
548.59,1.8652,10.277,0.32256,0,0,0,0
549.09,1.8691,10.271,0.32426,0,0,0,0
549.59,1.8725,10.264,0.32581,0,0,0,0
550.09,1.8764,10.257,0.32713,0,0,0,0
550.59,1.8806,10.25,0.32871,0,0,0,0
551.09,1.8846,10.244,0.33023,0,0,0,0
551.59,1.8882,10.238,0.33201,0,0,0,0
552.09,1.8918,10.231,0.33365,0,0,0,0
552.59,1.8952,10.224,0.33524,0,0,0,0
553.09,1.8984,10.216,0.33711,0,0,0,0
553.59,1.9022,10.21,0.33893,0,0,0,0
554.09,1.9059,10.203,0.34103,0,0,0,0
554.59,1.9098,10.195,0.34251,0,0,0,0
555.09,1.9141,10.188,0.34439,0,0,0,0
555.59,1.918,10.181,0.34596,0,0,0,0
556.09,1.9218,10.173,0.34765,0,0,0,0
556.59,1.9254,10.165,0.34931,0,0,0,0
557.09,1.929,10.157,0.35099,0,0,0,0
557.59,1.9322,10.15,0.35295,0,0,0,0
558.09,1.9357,10.141,0.35471,0,0,0,0
558.59,1.9397,10.134,0.35631,0,0,0,0
559.09,1.9436,10.125,0.35819,0,0,0,0
559.59,1.9478,10.117,0.35983,0,0,0,0
560.09,1.9519,10.109,0.3615,0,0,0,0
560.59,1.9557,10.101,0.36323,0,0,0,0
561.09,1.9596,10.093,0.36501,0,0,0,0
561.59,1.963,10.084,0.36694,0,0,0,0
562.09,1.9666,10.074,0.36865,0,0,0,0
562.59,1.9701,10.066,0.37039,0,0,0,0
563.09,1.9739,10.057,0.37229,0,0,0,0
563.59,1.9776,10.048,0.37384,0,0,0,0
564.09,1.9819,10.039,0.37523,0,0,0,0
564.59,1.9861,10.03,0.37698,0,0,0,0
565.09,1.9902,10.02,0.37873,0,0,0,0
565.59,1.9941,10.01,0.38084,0,0,0,0
566.09,1.9978,10.001,0.38226,0,0,0,0
566.59,2.0012,9.9916,0.38472,0,0,0,0
567.09,2.0052,9.9814,0.38659,0,0,0,0
567.59,2.0087,9.9716,0.3886,0,0,0,0
568.09,2.0128,9.9611,0.39052,0,0,0,0
568.59,2.0167,9.9509,0.3923,0,0,0,0
569.09,2.0213,9.9401,0.39446,0,0,0,0
569.59,2.0257,9.9304,0.39645,0,0,0,0
570.09,2.0295,9.9197,0.39856,0,0,0,0
570.59,2.0332,9.9084,0.40055,0,0,0,0
571.09,2.037,9.8961,0.40225,0,0,0,0
571.59,2.0405,9.8854,0.40418,0,0,0,0
572.09,2.0444,9.874,0.40606,0,0,0,0
572.59,2.0486,9.863,0.40767,0,0,0,0
573.09,2.0529,9.8513,0.40957,0,0,0,0
573.59,2.0572,9.8399,0.41181,0,0,0,0
574.09,2.0613,9.8266,0.41396,0,0,0,0
574.59,2.0656,9.814,0.41597,0,0,0,0
575.09,2.0695,9.8016,0.41787,0,0,0,0
575.59,2.073,9.7899,0.41992,0,0,0,0
576.09,2.0766,9.7769,0.42164,0,0,0,0
576.59,2.0805,9.7641,0.42359,0,0,0,0
577.09,2.0846,9.7509,0.42554,0,0,0,0
577.59,2.089,9.7379,0.42738,0,0,0,0
578.09,2.0935,9.7241,0.42934,0,0,0,0
578.59,2.098,9.7114,0.43126,0,0,0,0
579.09,2.1021,9.6974,0.43399,0,0,0,0
579.59,2.1061,9.6827,0.43629,0,0,0,0
580.09,2.1098,9.6669,0.43858,0,0,0,0
580.59,2.1135,9.653,0.44069,0,0,0,0
581.09,2.1176,9.6379,0.44274,0,0,0,0
581.59,2.1219,9.6231,0.44508,0,0,0,0
582.09,2.1264,9.6077,0.44726,0,0,0,0
582.59,2.131,9.5929,0.44953,0,0,0,0
583.09,2.1358,9.575,0.45211,0,0,0,0
583.59,2.1399,9.5579,0.45434,0,0,0,0
584.09,2.144,9.5404,0.45692,0,0,0,0
584.59,2.1483,9.5234,0.4595,0,0,0,0
585.09,2.1522,9.5043,0.46189,0,0,0,0
585.59,2.1568,9.4846,0.46385,0,0,0,0
586.09,2.1619,9.4623,0.46708,0,0,0,0