File: polyN_optimization/DP600_results/DATA/NT6_00_2.csv
Time[s],Displacement[mm],Force[kN],AxStrain_1,AxStrain_2,Thickness[mm],OuterWidth[mm],InnerWidth[mm]
0.6,0,-0.018766,0,0,1.5199,20,10.897
1.1,2.8e-05,-0.021241,-3.6001e-05,0,0,0,0
1.6,6.5e-05,-0.023282,0.00024897,0,0,0,0
2.1,0.000234,-0.011693,-3.3001e-05,0,0,0,0
2.6,0.00046,0.014423,7.2997e-05,0,0,0,0
3.1,0.000288,0.049863,-0.00016301,0,0,0,0
3.6,0.000647,0.080701,3.3999e-05,0,0,0,0
4.1,0.000485,0.10815,1.4e-05,0,0,0,0
4.6,0.000713,0.132,-0.00019002,0,0,0,0
5.1,0.000349,0.15629,-0.00015901,0,0,0,0
5.6,0.000342,0.177,-5e-06,0,0,0,0
6.1,0.000446,0.19586,1e-05,0,0,0,0
6.6,0.000424,0.21171,-0.00012101,0,0,0,0
7.1,0.000578,0.22872,-0.00022903,0,0,0,0
7.6,0.000472,0.24556,-0.00016101,0,0,0,0
8.1,0.00065,0.26472,-0.00012501,0,0,0,0
8.6,0.000634,0.28371,-0.00020102,0,0,0,0
9.1,0.000798,0.30415,-0.00012601,0,0,0,0
9.6,0.000666,0.32171,-0.00025003,0,0,0,0
10.1,0.000741,0.339,-0.00010201,0,0,0,0
10.6,0.000935,0.35614,-0.00023603,0,0,0,0
11.1,0.00085,0.37515,-0.00016901,0,0,0,0
11.6,0.000993,0.39357,-3.3001e-05,0,0,0,0
12.1,0.001337,0.41329,-7.4003e-05,0,0,0,0
12.6,0.001333,0.43156,-8.5004e-05,0,0,0,0
13.1,0.00152,0.44958,-1.2e-05,0,0,0,0
13.6,0.001617,0.46657,0.00012799,0,0,0,0
14.1,0.001761,0.48515,1.5e-05,0,0,0,0
14.6,0.001846,0.50285,-0.00015201,0,0,0,0
15.1,0.001813,0.52143,0.00016199,0,0,0,0
15.6,0.002071,0.53814,-3e-06,0,0,0,0
16.1,0.0023,0.55601,3.5999e-05,0,0,0,0
16.6,0.002303,0.57328,0.00023797,0,0,0,0
17.1,0.002075,0.59272,-7.6003e-05,0,0,0,0
17.6,0.001991,0.61171,7e-06,0,0,0,0
18.1,0.002055,0.63243,-8.6004e-05,0,0,0,0
18.6,0.002127,0.65042,0.00010899,0,0,0,0
19.1,0.001929,0.66858,0.00016599,0,0,0,0
19.6,0.002105,0.68685,1.7e-05,0,0,0,0
20.1,0.002088,0.70715,-9.3004e-05,0,0,0,0
20.6,0.002327,0.72685,-0.00015901,0,0,0,0
21.1,0.002332,0.74858,3.5999e-05,0,0,0,0
21.6,0.002327,0.76899,5.2999e-05,0,0,0,0
22.1,0.002403,0.78858,-0.00012601,0,0,0,0
22.6,0.002687,0.80685,3.2999e-05,0,0,0,0
23.1,0.002877,0.82715,-6.3002e-05,0,0,0,0
23.6,0.003106,0.84685,6.9998e-05,0,0,0,0
24.1,0.003347,0.86743,5.2999e-05,0,0,0,0
24.6,0.003588,0.88642,0.00027496,0,0,0,0
25.1,0.003741,0.90644,0.00013199,0,0,0,0
25.6,0.003744,0.92556,0.00022497,0,0,0,0
26.1,0.004281,0.94672,0.00032395,0,0,0,0
26.6,0.004103,0.96714,0.00020898,0,0,0,0
27.1,0.00398,0.989,0.00027796,0,0,0,0
27.6,0.003994,1.0079,0.00010599,0,0,0,0
28.1,0.004169,1.0269,-2e-05,0,0,0,0
28.6,0.004043,1.0456,0.00015899,0,0,0,0
29.1,0.003789,1.0664,-7.6003e-05,0,0,0,0
29.6,0.003878,1.0869,0.00011899,0,0,0,0
30.1,0.003825,1.1093,-3e-06,0,0,0,0
30.6,0.003941,1.1303,3.9999e-05,0,0,0,0
31.1,0.00415,1.1506,7.2997e-05,0,0,0,0
31.6,0.004137,1.1696,0.00012899,0,0,0,0
32.1,0.003985,1.1904,3.5999e-05,0,0,0,0
32.6,0.004302,1.2106,-3.3001e-05,0,0,0,0
33.1,0.004398,1.2314,6.9998e-05,0,0,0,0
33.6,0.004607,1.2504,-7e-06,0,0,0,0
34.1,0.004991,1.2707,0.00019198,0,0,0,0
34.6,0.00512,1.2903,0.00010899,0,0,0,0
35.1,0.005352,1.312,0.00019198,0,0,0,0
35.6,0.005654,1.3331,0.00013899,0,0,0,0
36.1,0.005992,1.3554,0.00024797,0,0,0,0
36.6,0.006194,1.3744,0.00023197,0,0,0,0
37.1,0.006188,1.3936,0.0004369,0,0,0,0
37.6,0.006237,1.4126,0.00018198,0,0,0,0
38.1,0.006255,1.4334,0.00024497,0,0,0,0
38.6,0.006092,1.4536,0.00010899,0,0,0,0
39.1,0.005911,1.4756,8.5996e-05,0,0,0,0
39.6,0.00597,1.4963,6.9998e-05,0,0,0,0
40.1,0.005847,1.5166,0.00020898,0,0,0,0
40.6,0.005847,1.5356,0.00029496,0,0,0,0
41.1,0.005841,1.5567,0.00017199,0,0,0,0
41.6,0.005658,1.5773,0.00024497,0,0,0,0
42.1,0.005798,1.5981,0.00028096,0,0,0,0
42.6,0.005738,1.6167,0.00015599,0,0,0,0
43.1,0.006162,1.6367,0.00023797,0,0,0,0
43.6,0.00639,1.6563,0.00017898,0,0,0,0
44.1,0.006401,1.6777,0.00018498,0,0,0,0
44.6,0.006745,1.6984,0.00027496,0,0,0,0
45.1,0.007173,1.7204,0.00013899,0,0,0,0
45.6,0.007315,1.7391,0.00023497,0,0,0,0
46.1,0.007659,1.7579,0.00025497,0,0,0,0
46.6,0.007957,1.7766,0.00040692,0,0,0,0
47.1,0.008173,1.7971,0.00042391,0,0,0,0
47.6,0.008534,1.8169,0.00030495,0,0,0,0
48.1,0.008448,1.8386,0.00042391,0,0,0,0
48.6,0.008289,1.8593,0.00031395,0,0,0,0
49.1,0.008213,1.8793,0.00038393,0,0,0,0
49.6,0.008048,1.8979,0.00030095,0,0,0,0
50.1,0.007787,1.9184,0.00024497,0,0,0,0
50.6,0.007869,1.9383,0.00025797,0,0,0,0
51.1,0.007664,1.9587,0.00030095,0,0,0,0
51.6,0.007555,1.9771,0.00041092,0,0,0,0
52.1,0.007548,1.997,0.00024497,0,0,0,0
52.6,0.007568,2.016,0.00022497,0,0,0,0
53.1,0.007784,2.037,0.00018198,0,0,0,0
53.6,0.007936,2.0574,8.8996e-05,0,0,0,0
54.1,0.00822,2.0794,9.8995e-05,0,0,0,0
54.6,0.008306,2.0981,0.00020498,0,0,0,0
55.1,0.008634,2.1166,0.00015599,0,0,0,0
55.6,0.009197,2.1349,0.00030095,0,0,0,0
56.1,0.009416,2.1551,0.00019498,0,0,0,0
56.6,0.00969,2.1746,0.00016899,0,0,0,0
57.1,0.010151,2.1959,0.00022797,0,0,0,0
57.6,0.010277,2.216,0.00033095,0,0,0,0
58.1,0.010347,2.2359,0.00055585,0,0,0,0
58.6,0.010419,2.2543,0.00025497,0,0,0,0
59.1,0.010452,2.2747,0.0004399,0,0,0,0
59.6,0.010089,2.2943,0.00020898,0,0,0,0
60.1,0.010006,2.3144,0.00027796,0,0,0,0
60.6,0.009701,2.3327,0.00026197,0,0,0,0
61.1,0.009559,2.3527,0.00021198,0,0,0,0
61.6,0.009459,2.372,0.00012599,0,0,0,0
62.1,0.009645,2.393,0.00033095,0,0,0,0
62.6,0.009356,2.4134,0.00016599,0,0,0,0
63.1,0.009267,2.4351,0.00013199,0,0,0,0
63.6,0.009519,2.4534,0.00012199,0,0,0,0
64.1,0.009654,2.4719,0.00016899,0,0,0,0
64.6,0.009774,2.4906,0.00026496,0,0,0,0
65.1,0.010224,2.5111,0.00011299,0,0,0,0
65.6,0.010717,2.5309,0.00026496,0,0,0,0
66.1,0.011128,2.5526,0.00025797,0,0,0,0
66.6,0.01126,2.573,0.00015199,0,0,0,0
67.1,0.011892,2.5926,0.00014599,0,0,0,0
67.6,0.012305,2.6109,0.00030795,0,0,0,0
68.1,0.012244,2.6311,0.00035094,0,0,0,0
68.6,0.012319,2.6509,0.00036093,0,0,0,0
69.1,0.012299,2.6711,0.00040392,0,0,0,0
69.6,0.012359,2.6897,0.00047988,0,0,0,0
70.1,0.012115,2.7094,0.00042691,0,0,0,0
70.6,0.011853,2.7283,0.00031795,0,0,0,0
71.1,0.011509,2.749,0.0004399,0,0,0,0
71.6,0.011552,2.7694,0.00018498,0,0,0,0
72.1,0.011357,2.7914,0.00025197,0,0,0,0
72.6,0.011399,2.8101,0.00031095,0,0,0,0
73.1,0.011333,2.8289,0.00036693,0,0,0,0
73.6,0.011309,2.8473,0.00030495,0,0,0,0
74.1,0.011565,2.8689,0.00013899,0,0,0,0
74.6,0.011683,2.8893,0.00042991,0,0,0,0
75.1,0.01218,2.9107,0.00033794,0,0,0,0
75.6,0.012452,2.9314,0.00046289,0,0,0,0
76.1,0.012925,2.952,0.00031795,0,0,0,0
76.6,0.013273,2.9711,0.00038093,0,0,0,0
77.1,0.013683,2.9894,0.00046689,0,0,0,0
77.6,0.014272,3.0087,0.0004469,0,0,0,0
78.1,0.014283,3.0287,0.00067477,0,0,0,0
78.6,0.014789,3.0501,0.00052986,0,0,0,0
79.1,0.014891,3.0684,0.00050287,0,0,0,0
79.6,0.014617,3.088,0.00067177,0,0,0,0
80.1,0.01466,3.107,0.00052286,0,0,0,0
80.6,0.014458,3.1269,0.00052986,0,0,0,0
81.1,0.01422,3.1453,0.00048688,0,0,0,0
81.6,0.013998,3.1669,0.00056284,0,0,0,0
82.1,0.013898,3.187,0.00057883,0,0,0,0
82.6,0.0136,3.2066,0.00049988,0,0,0,0
83.1,0.013756,3.2249,0.0004469,0,0,0,0
83.6,0.013654,3.2451,0.00035094,0,0,0,0
84.1,0.013687,3.2646,0.00036693,0,0,0,0
84.6,0.013813,3.2844,0.0004369,0,0,0,0
85.1,0.01425,3.3039,0.00037393,0,0,0,0
85.6,0.014544,3.3241,0.00055285,0,0,0,0
86.1,0.014918,3.3427,0.0004469,0,0,0,0
86.6,0.015383,3.3624,0.00046289,0,0,0,0
87.1,0.016069,3.3824,0.00048688,0,0,0,0
87.6,0.016372,3.4037,0.00058583,0,0,0,0
88.1,0.017031,3.4221,0.00070175,0,0,0,0
88.6,0.017104,3.4417,0.00069476,0,0,0,0
89.1,0.017304,3.4603,0.00071474,0,0,0,0
89.6,0.017681,3.4796,0.00067477,0,0,0,0
90.1,0.017509,3.4979,0.00065479,0,0,0,0
90.6,0.017571,3.5193,0.00093656,0,0,0,0
91.1,0.01733,3.5396,0.0007707,0,0,0,0
91.6,0.017105,3.5593,0.00080068,0,0,0,0
92.1,0.016996,3.5776,0.00064579,0,0,0,0
92.6,0.016559,3.5971,0.00072474,0,0,0,0
93.1,0.016473,3.6161,0.00064179,0,0,0,0
93.6,0.016463,3.6359,0.00046289,0,0,0,0
94.1,0.016556,3.6551,0.00056584,0,0,0,0
94.6,0.016658,3.6751,0.00059282,0,0,0,0
95.1,0.016818,3.6934,0.00051287,0,0,0,0
95.6,0.017115,3.7127,0.00049988,0,0,0,0
96.1,0.017645,3.7327,0.00068477,0,0,0,0
96.6,0.018162,3.7541,0.00050287,0,0,0,0
97.1,0.018616,3.7724,0.00055884,0,0,0,0
97.6,0.019023,3.7917,0.00076071,0,0,0,0
98.1,0.01942,3.8103,0.00050687,0,0,0,0
98.6,0.019804,3.8296,0.00084764,0,0,0,0
99.1,0.019961,3.8476,0.0007747,0,0,0,0
99.6,0.019994,3.8686,0.00074472,0,0,0,0
100.1,0.020322,3.8883,0.00076471,0,0,0,0
100.6,0.020409,3.9073,0.00075771,0,0,0,0
101.1,0.020323,3.9251,0.00093356,0,0,0,0
101.6,0.020101,3.9451,0.00065179,0,0,0,0
102.1,0.019916,3.9646,0.00074172,0,0,0,0
102.6,0.019761,3.9841,0.00073773,0,0,0,0
103.1,0.019513,4.0029,0.00059282,0,0,0,0
103.6,0.019506,4.0224,0.00060881,0,0,0,0
104.1,0.019404,4.0404,0.00058883,0,0,0,0
104.6,0.019576,4.0597,0.0004369,0,0,0,0
105.1,0.01953,4.0794,0.00051986,0,0,0,0
105.6,0.01972,4.1001,0.00056884,0,0,0,0
106.1,0.020206,4.1177,0.00068177,0,0,0,0
106.6,0.020355,4.1367,0.00055585,0,0,0,0
107.1,0.021103,4.1553,0.00066478,0,0,0,0
107.6,0.021318,4.1746,0.00069476,0,0,0,0
108.1,0.021914,4.1926,0.0006258,0,0,0,0
108.6,0.022103,4.2136,0.00096953,0,0,0,0
109.1,0.022371,4.233,0.00098951,0,0,0,0
109.6,0.022669,4.2519,0.00085663,0,0,0,0
110.1,0.022855,4.2696,0.00095654,0,0,0,0
110.6,0.022837,4.2894,0.0010195,0,0,0,0
111.1,0.02284,4.3086,0.00086063,0,0,0,0
111.6,0.022864,4.3281,0.00082766,0,0,0,0
112.1,0.022987,4.3469,0.00072774,0,0,0,0
112.6,0.023003,4.3664,0.00086063,0,0,0,0
113.1,0.022792,4.3844,0.00082766,0,0,0,0
113.6,0.022556,4.4037,0.00059582,0,0,0,0
114.1,0.022628,4.4231,0.00066178,0,0,0,0
114.6,0.022265,4.4437,0.00056284,0,0,0,0
115.1,0.022596,4.4614,0.00086063,0,0,0,0
115.6,0.022696,4.4807,0.00066178,0,0,0,0
116.1,0.022893,4.4993,0.00056284,0,0,0,0
116.6,0.023556,4.518,0.00049688,0,0,0,0
117.1,0.023854,4.5351,0.00069476,0,0,0,0
117.6,0.024283,4.5556,0.00076071,0,0,0,0
118.1,0.02478,4.5753,0.00092657,0,0,0,0
118.6,0.025145,4.5943,0.00082766,0,0,0,0
119.1,0.025443,4.6119,0.0008936,0,0,0,0
119.6,0.025706,4.6309,0.00092657,0,0,0,0
120.1,0.025938,4.6491,0.0011254,0,0,0,0
120.6,0.026138,4.6681,0.0012243,0,0,0,0
121.1,0.026137,4.6871,0.0011254,0,0,0,0
121.6,0.026368,4.7066,0.0010914,0,0,0,0
122.1,0.02617,4.724,0.0012243,0,0,0,0
122.6,0.026501,4.7424,0.0011913,0,0,0,0
123.1,0.026368,4.7617,0.00099251,0,0,0,0
123.6,0.026567,4.7821,0.0010255,0,0,0,0
124.1,0.026369,4.7997,0.0011254,0,0,0,0
124.6,0.026468,4.8184,0.00092657,0,0,0,0
125.1,0.026634,4.8363,0.00092657,0,0,0,0
125.6,0.026899,4.8546,0.00099251,0,0,0,0
126.1,0.027098,4.8716,0.00086063,0,0,0,0
126.6,0.027594,4.8916,0.00095954,0,0,0,0
127.1,0.028059,4.9103,0.0008936,0,0,0,0
127.6,0.028589,4.9286,0.00095954,0,0,0,0
128.1,0.028953,4.9456,0.0011254,0,0,0,0
128.6,0.028854,4.9644,0.0011583,0,0,0,0
129.1,0.029417,4.9829,0.0011254,0,0,0,0
129.6,0.029682,5.0019,0.0012572,0,0,0,0
130.1,0.029748,5.0199,0.0012902,0,0,0,0
130.6,0.030013,5.0384,0.0012572,0,0,0,0
131.1,0.030211,5.0554,0.0012572,0,0,0,0
131.6,0.030444,5.0737,0.0015218,0,0,0,0
132.1,0.030312,5.0924,0.0015548,0,0,0,0
132.6,0.030841,5.1124,0.0014889,0,0,0,0
133.1,0.031007,5.1294,0.001389,0,0,0,0
133.6,0.031107,5.1466,0.0012902,0,0,0,0
134.1,0.031306,5.1636,0.0014559,0,0,0,0
134.6,0.031704,5.1836,0.0013561,0,0,0,0
135.1,0.031836,5.2023,0.0011913,0,0,0,0
135.6,0.032102,5.2217,0.0012243,0,0,0,0
136.1,0.032467,5.2396,0.0012572,0,0,0,0
136.6,0.032833,5.258,0.0011583,0,0,0,0
137.1,0.033295,5.2749,0.0011583,0,0,0,0
137.6,0.033628,5.2934,0.0013231,0,0,0,0
138.1,0.033695,5.3116,0.0011913,0,0,0,0
138.6,0.034125,5.3301,0.0012902,0,0,0,0
139.1,0.034323,5.347,0.0012902,0,0,0,0
139.6,0.034688,5.3654,0.0015218,0,0,0,0
140.1,0.034788,5.3847,0.0016207,0,0,0,0
140.6,0.034886,5.4049,0.0013231,0,0,0,0
141.1,0.035084,5.4229,0.0017864,0,0,0,0
141.6,0.03545,5.4414,0.002017,0,0,0,0
142.1,0.035681,5.4584,0.0019511,0,0,0,0
142.6,0.036078,5.4756,0.0019511,0,0,0,0
143.1,0.036342,5.4923,0.002017,0,0,0,0
143.6,0.036772,5.5116,0.0017864,0,0,0,0
144.1,0.037071,5.5299,0.0016866,0,0,0,0
144.6,0.0377,5.5491,0.0016866,0,0,0,0
145.1,0.038229,5.5666,0.0016536,0,0,0,0
145.6,0.038295,5.5843,0.0016866,0,0,0,0
146.1,0.039255,5.6009,0.0015548,0,0,0,0
146.6,0.039916,5.6189,0.0016207,0,0,0,0
147.1,0.04048,5.6364,0.0016536,0,0,0,0
147.6,0.040745,5.6549,0.0016536,0,0,0,0
148.1,0.041043,5.6717,0.0018523,0,0,0,0
148.6,0.041109,5.6891,0.0019511,0,0,0,0
149.1,0.041176,5.7067,0.0019182,0,0,0,0
149.6,0.04144,5.7254,0.0018852,0,0,0,0
150.1,0.041606,5.7431,0.0020509,0,0,0,0
150.6,0.041838,5.7616,0.0022814,0,0,0,0
151.1,0.042169,5.778,0.0022814,0,0,0,0
151.6,0.0425,5.7943,0.0025458,0,0,0,0
152.1,0.042931,5.8106,0.0026116,0,0,0,0
152.6,0.043395,5.8293,0.0026784,0,0,0,0
153.1,0.044056,5.8469,0.0024799,0,0,0,0
153.6,0.044652,5.8651,0.0025458,0,0,0,0
154.1,0.045547,5.8819,0.0025787,0,0,0,0
154.6,0.046243,5.899,0.0025128,0,0,0,0
155.1,0.047137,5.9149,0.0024799,0,0,0,0
155.6,0.04813,5.9324,0.0023812,0,0,0,0
156.1,0.048892,5.9496,0.002447,0,0,0,0
156.6,0.049256,5.9671,0.0025128,0,0,0,0
157.1,0.049985,5.9827,0.0025128,0,0,0,0
157.6,0.050284,5.9994,0.0024141,0,0,0,0
158.1,0.051013,6.0167,0.0023812,0,0,0,0
158.6,0.05108,6.0351,0.0023812,0,0,0,0
159.1,0.05151,6.0519,0.0024799,0,0,0,0
159.6,0.051577,6.0689,0.0027442,0,0,0,0
160.1,0.051776,6.084,0.0029088,0,0,0,0
160.6,0.052074,6.0993,0.0030743,0,0,0,0
161.1,0.052406,6.1149,0.0032726,0,0,0,0
161.6,0.052805,6.133,0.0035029,0,0,0,0
162.1,0.053301,6.1499,0.0036354,0,0,0,0
162.6,0.054031,6.1671,0.0035686,0,0,0,0
163.1,0.055124,6.1826,0.0037998,0,0,0,0
163.6,0.055853,6.1983,0.0037011,0,0,0,0
164.1,0.056948,6.2131,0.0036683,0,0,0,0
164.6,0.057709,6.2299,0.0036683,0,0,0,0
165.1,0.058736,6.2459,0.0033055,0,0,0,0
165.6,0.059631,6.2621,0.00347,0,0,0,0
166.1,0.06026,6.277,0.0033384,0,0,0,0
166.6,0.06079,6.2929,0.0032726,0,0,0,0
167.1,0.061485,6.309,0.0034042,0,0,0,0
167.6,0.062149,6.3261,0.0035357,0,0,0,0
168.1,0.062479,6.3416,0.0035696,0,0,0,0
168.6,0.063275,6.3574,0.0035029,0,0,0,0
169.1,0.063673,6.372,0.003734,0,0,0,0
169.6,0.064534,6.3867,0.0040309,0,0,0,0
170.1,0.065229,6.4011,0.0040309,0,0,0,0
170.6,0.065958,6.4177,0.004459,0,0,0,0
171.1,0.066786,6.4331,0.0045914,0,0,0,0
171.6,0.06768,6.4491,0.0049865,0,0,0,0
172.1,0.068641,6.4639,0.0049865,0,0,0,0
172.6,0.069469,6.4787,0.0051517,0,0,0,0
173.1,0.070296,6.4924,0.0053487,0,0,0,0
173.6,0.071126,6.5079,0.0053815,0,0,0,0
174.1,0.071919,6.5229,0.0052174,0,0,0,0
174.6,0.072417,6.5381,0.0051517,0,0,0,0
175.1,0.073113,6.552,0.005085,0,0,0,0
175.6,0.073808,6.5669,0.0050194,0,0,0,0
176.1,0.074171,6.582,0.0050194,0,0,0,0
176.6,0.074966,6.5981,0.0048224,0,0,0,0
177.1,0.075661,6.6129,0.004888,0,0,0,0
177.6,0.07629,6.6279,0.0049865,0,0,0,0
178.1,0.077184,6.6413,0.0049537,0,0,0,0
178.6,0.078211,6.6547,0.0051179,0,0,0,0
179.1,0.079402,6.6681,0.0053815,0,0,0,0
179.6,0.080395,6.684,0.005481,0,0,0,0
180.1,0.081687,6.6989,0.0057773,0,0,0,0
180.6,0.083044,6.7139,0.0061063,0,0,0,0
181.1,0.084137,6.7274,0.0064025,0,0,0,0
181.6,0.08546,6.7417,0.0066985,0,0,0,0
182.1,0.086421,6.7551,0.0068952,0,0,0,0
182.6,0.087414,6.7699,0.0071911,0,0,0,0
183.1,0.088208,6.7841,0.0074869,0,0,0,0
183.6,0.088905,6.7989,0.0074541,0,0,0,0
184.1,0.090063,6.812,0.0073559,0,0,0,0
184.6,0.090758,6.8259,0.0074214,0,0,0,0
185.1,0.091288,6.8403,0.0071256,0,0,0,0
185.6,0.092314,6.8556,0.0069279,0,0,0,0
186.1,0.093042,6.8694,0.0069279,0,0,0,0
186.6,0.094136,6.8836,0.0067641,0,0,0,0
187.1,0.09513,6.8963,0.0068624,0,0,0,0
187.6,0.096123,6.909,0.0068296,0,0,0,0
188.1,0.097481,6.9219,0.0069945,0,0,0,0
188.6,0.098441,6.9367,0.00706,0,0,0,0
189.1,0.099898,6.9504,0.0071256,0,0,0,0
189.6,0.10089,6.9649,0.0072904,0,0,0,0
190.1,0.10192,6.9781,0.0075534,0,0,0,0
190.6,0.10278,6.9917,0.008111,0,0,0,0
191.1,0.10374,7.0041,0.0083738,0,0,0,0
191.6,0.10457,7.0179,0.008703,0,0,0,0
192.1,0.10553,7.0311,0.0090311,0,0,0,0
192.6,0.10642,7.0449,0.0090965,0,0,0,0
193.1,0.10752,7.0573,0.0094898,0,0,0,0
193.6,0.10851,7.0706,0.0093918,0,0,0,0
194.1,0.1099,7.0843,0.0095889,0,0,0,0
194.6,0.11099,7.0986,0.0095889,0,0,0,0
195.1,0.11219,7.1114,0.0094898,0,0,0,0
195.6,0.11387,7.1249,0.0090965,0,0,0,0
196.1,0.1153,7.137,0.0089984,0,0,0,0
196.6,0.11666,7.1499,0.0090311,0,0,0,0
197.1,0.11828,7.1624,0.008703,0,0,0,0
197.6,0.11941,7.1763,0.0087357,0,0,0,0
198.1,0.1205,7.1896,0.0087684,0,0,0,0
198.6,0.12139,7.2039,0.0087357,0,0,0,0
199.1,0.12242,7.2163,0.0090965,0,0,0,0
199.6,0.12355,7.2284,0.009261,0,0,0,0
200.1,0.12448,7.2401,0.0095889,0,0,0,0
200.6,0.12534,7.2531,0.0097196,0,0,0,0
201.1,0.1263,7.2659,0.010179,0,0,0,0
201.6,0.12726,7.2797,0.010507,0,0,0,0
202.1,0.12875,7.2927,0.010965,0,0,0,0
202.6,0.1302,7.3051,0.011391,0,0,0,0
203.1,0.13153,7.3167,0.011554,0,0,0,0
203.6,0.13286,7.3296,0.011587,0,0,0,0
204.1,0.13401,7.3421,0.011684,0,0,0,0
204.6,0.13521,7.3549,0.011619,0,0,0,0
205.1,0.13647,7.3663,0.011587,0,0,0,0
205.6,0.13772,7.3783,0.011357,0,0,0,0
206.1,0.13878,7.39,0.011194,0,0,0,0
206.6,0.13975,7.4033,0.010965,0,0,0,0
207.1,0.14077,7.4163,0.010834,0,0,0,0
207.6,0.1418,7.4296,0.010867,0,0,0,0
208.1,0.14303,7.4406,0.010867,0,0,0,0
208.6,0.14425,7.4517,0.010965,0,0,0,0
209.1,0.14551,7.4631,0.011063,0,0,0,0
209.6,0.1468,7.4759,0.011489,0,0,0,0
210.1,0.14856,7.4881,0.011685,0,0,0,0
210.6,0.15008,7.5014,0.011849,0,0,0,0
211.1,0.15174,7.5137,0.012372,0,0,0,0
211.6,0.15333,7.5254,0.012862,0,0,0,0
212.1,0.15482,7.5364,0.012927,0,0,0,0
212.6,0.15617,7.5486,0.013254,0,0,0,0
213.1,0.15743,7.5601,0.013614,0,0,0,0
213.6,0.15882,7.5719,0.013874,0,0,0,0
214.1,0.16002,7.5826,0.013939,0,0,0,0
214.6,0.16121,7.5946,0.01394,0,0,0,0
215.1,0.1624,7.6061,0.013907,0,0,0,0
215.6,0.16379,7.6186,0.013809,0,0,0,0
216.1,0.16492,7.6303,0.013679,0,0,0,0
216.6,0.16627,7.6429,0.013286,0,0,0,0
217.1,0.16803,7.6536,0.013286,0,0,0,0
217.6,0.16945,7.6644,0.013254,0,0,0,0
218.1,0.17131,7.6751,0.013319,0,0,0,0
218.6,0.17283,7.6869,0.013254,0,0,0,0
219.1,0.17439,7.6981,0.013286,0,0,0,0
219.6,0.17585,7.7107,0.013385,0,0,0,0
220.1,0.17687,7.7227,0.013712,0,0,0,0
220.6,0.17793,7.7341,0.014168,0,0,0,0
221.1,0.17912,7.7444,0.014397,0,0,0,0
221.6,0.18032,7.7559,0.014854,0,0,0,0
222.1,0.18128,7.7671,0.01531,0,0,0,0
222.6,0.18257,7.7789,0.015636,0,0,0,0
223.1,0.18396,7.7893,0.015994,0,0,0,0
223.6,0.18538,7.8003,0.01619,0,0,0,0
224.1,0.18687,7.8107,0.016255,0,0,0,0
224.6,0.18879,7.8226,0.01632,0,0,0,0
225.1,0.19078,7.8343,0.016125,0,0,0,0
225.6,0.19217,7.8466,0.016158,0,0,0,0
226.1,0.19409,7.8569,0.015962,0,0,0,0
226.6,0.19548,7.8671,0.015897,0,0,0,0
227.1,0.19707,7.8774,0.015734,0,0,0,0
227.6,0.19859,7.8886,0.015864,0,0,0,0
228.1,0.19995,7.8994,0.015539,0,0,0,0
228.6,0.20114,7.9111,0.015701,0,0,0,0
229.1,0.20253,7.922,0.015734,0,0,0,0
229.6,0.20409,7.9324,0.015994,0,0,0,0
230.1,0.20561,7.9424,0.016516,0,0,0,0
230.6,0.207,7.9533,0.016613,0,0,0,0
231.1,0.20889,7.9637,0.017005,0,0,0,0
231.6,0.21081,7.9743,0.01733,0,0,0,0
232.1,0.2127,7.9839,0.01772,0,0,0,0
232.6,0.21462,7.994,0.017947,0,0,0,0
233.1,0.21624,8.0043,0.018338,0,0,0,0
233.6,0.21789,8.0157,0.018468,0,0,0,0
234.1,0.21965,8.0266,0.01863,0,0,0,0
234.6,0.22084,8.0376,0.018663,0,0,0,0
235.1,0.2221,8.0469,0.018792,0,0,0,0
235.6,0.22362,8.0564,0.018663,0,0,0,0
236.1,0.22478,8.0661,0.018663,0,0,0,0
236.6,0.2263,8.0766,0.018566,0,0,0,0
237.1,0.22786,8.0864,0.018338,0,0,0,0
237.6,0.22951,8.0971,0.018338,0,0,0,0
238.1,0.23104,8.1073,0.018468,0,0,0,0
238.6,0.23283,8.1174,0.018403,0,0,0,0
239.1,0.23485,8.1271,0.018501,0,0,0,0
239.6,0.23653,8.1376,0.018729,0,0,0,0
240.1,0.23799,8.1474,0.018923,0,0,0,0
240.6,0.23961,8.1576,0.019118,0,0,0,0
241.1,0.24097,8.1669,0.019475,0,0,0,0
241.6,0.2424,8.1767,0.019767,0,0,0,0
242.1,0.24359,8.1863,0.020059,0,0,0,0
242.6,0.24508,8.1967,0.020481,0,0,0,0
243.1,0.2465,8.2069,0.020708,0,0,0,0
243.6,0.24802,8.2173,0.020774,0,0,0,0
244.1,0.24958,8.2261,0.021032,0,0,0,0
244.6,0.25111,8.2351,0.021098,0,0,0,0
245.1,0.25329,8.2444,0.021066,0,0,0,0
245.6,0.25494,8.2543,0.021162,0,0,0,0
246.1,0.25706,8.2637,0.021227,0,0,0,0
246.6,0.25912,8.2741,0.021098,0,0,0,0
247.1,0.26097,8.2843,0.020903,0,0,0,0
247.6,0.2625,8.2939,0.02113,0,0,0,0
248.1,0.26428,8.3027,0.02113,0,0,0,0
248.6,0.26534,8.3123,0.02113,0,0,0,0
249.1,0.26703,8.3214,0.021162,0,0,0,0
249.6,0.26862,8.3309,0.021325,0,0,0,0
250.1,0.27028,8.3396,0.021552,0,0,0,0
250.6,0.2718,8.349,0.021844,0,0,0,0
251.1,0.27362,8.358,0.02207,0,0,0,0
251.6,0.27531,8.3677,0.022361,0,0,0,0
252.1,0.27746,8.3771,0.022555,0,0,0,0
252.6,0.27968,8.3873,0.022847,0,0,0,0
253.1,0.2818,8.3961,0.023073,0,0,0,0
253.6,0.28379,8.4049,0.023462,0,0,0,0
254.1,0.28558,8.4131,0.023526,0,0,0,0
254.6,0.2873,8.4221,0.02372,0,0,0,0
255.1,0.28872,8.4311,0.023849,0,0,0,0
255.6,0.29035,8.4411,0.023882,0,0,0,0
256.1,0.2919,8.4503,0.023882,0,0,0,0
256.6,0.29339,8.4591,0.023882,0,0,0,0
257.1,0.29535,8.4674,0.023946,0,0,0,0
257.6,0.297,8.4769,0.023947,0,0,0,0
258.1,0.29886,8.4861,0.024172,0,0,0,0
258.6,0.30078,8.4956,0.024172,0,0,0,0
259.1,0.3029,8.5036,0.024496,0,0,0,0
259.6,0.30472,8.512,0.02456,0,0,0,0
260.1,0.30674,8.5206,0.024496,0,0,0,0
260.6,0.30853,8.5301,0.024916,0,0,0,0
261.1,0.31025,8.5391,0.025045,0,0,0,0
261.6,0.31148,8.5486,0.025335,0,0,0,0
262.1,0.3129,8.5569,0.025529,0,0,0,0
262.6,0.31452,8.5649,0.025723,0,0,0,0
263.1,0.31581,8.5727,0.026077,0,0,0,0
263.6,0.31757,8.5813,0.026174,0,0,0,0
264.1,0.31936,8.5897,0.026335,0,0,0,0
264.6,0.32125,8.5989,0.026561,0,0,0,0
265.1,0.32337,8.6076,0.026851,0,0,0,0
265.6,0.32561,8.6161,0.026883,0,0,0,0
266.1,0.3276,8.6244,0.026851,0,0,0,0
266.6,0.32962,8.6333,0.02698,0,0,0,0
267.1,0.33164,8.6417,0.027013,0,0,0,0
267.6,0.33337,8.6503,0.027012,0,0,0,0
268.1,0.33492,8.6581,0.02727,0,0,0,0
268.6,0.33658,8.6667,0.027399,0,0,0,0
269.1,0.33823,8.675,0.027657,0,0,0,0
269.6,0.34005,8.6837,0.027721,0,0,0,0
270.1,0.34184,8.6919,0.027817,0,0,0,0
270.6,0.34373,8.7009,0.028107,0,0,0,0
271.1,0.34605,8.7089,0.028139,0,0,0,0
271.6,0.34807,8.7169,0.028365,0,0,0,0
272.1,0.35072,8.7244,0.028687,0,0,0,0
272.6,0.35277,8.7326,0.028783,0,0,0,0
273.1,0.35486,8.7404,0.028879,0,0,0,0
273.6,0.35681,8.7494,0.029136,0,0,0,0
274.1,0.35863,8.758,0.029458,0,0,0,0
274.6,0.36055,8.7661,0.029458,0,0,0,0
275.1,0.36204,8.7734,0.029747,0,0,0,0
275.6,0.36399,8.7813,0.029779,0,0,0,0
276.1,0.36568,8.789,0.030036,0,0,0,0
276.6,0.36734,8.7973,0.030261,0,0,0,0
277.1,0.36972,8.8049,0.030293,0,0,0,0
277.6,0.37184,8.8127,0.030164,0,0,0,0
278.1,0.37429,8.8203,0.03055,0,0,0,0
278.6,0.37651,8.8287,0.030679,0,0,0,0
279.1,0.37883,8.8369,0.030903,0,0,0,0
279.6,0.38085,8.8456,0.031127,0,0,0,0
280.1,0.3824,8.8529,0.031384,0,0,0,0
280.6,0.38433,8.8599,0.031384,0,0,0,0
281.1,0.38595,8.8667,0.031545,0,0,0,0
281.6,0.3879,8.8746,0.031705,0,0,0,0
282.1,0.38946,8.8824,0.031994,0,0,0,0
282.6,0.39138,8.8906,0.032026,0,0,0,0
283.1,0.3934,8.8981,0.032153,0,0,0,0
283.6,0.39545,8.9056,0.032475,0,0,0,0
284.1,0.39774,8.9127,0.03273,0,0,0,0
284.6,0.39986,8.9206,0.032987,0,0,0,0
285.1,0.40221,8.9284,0.033116,0,0,0,0
285.6,0.40439,8.9366,0.033243,0,0,0,0
286.1,0.40628,8.9436,0.0335,0,0,0,0
286.6,0.40807,8.951,0.033692,0,0,0,0
287.1,0.40979,8.9583,0.033692,0,0,0,0
287.6,0.41154,8.9664,0.033947,0,0,0,0
288.1,0.41326,8.9739,0.033915,0,0,0,0
288.6,0.41512,8.9816,0.034171,0,0,0,0
289.1,0.41691,8.9881,0.034459,0,0,0,0
289.6,0.41903,8.9949,0.034556,0,0,0,0
290.1,0.42125,9.0017,0.034811,0,0,0,0
290.6,0.42363,9.0096,0.034939,0,0,0,0
291.1,0.42618,9.0171,0.035162,0,0,0,0
291.6,0.4285,9.0251,0.035355,0,0,0,0
292.1,0.43055,9.0326,0.035579,0,0,0,0
292.6,0.4324,9.0399,0.035706,0,0,0,0
293.1,0.43436,9.0464,0.035993,0,0,0,0
293.6,0.43611,9.0536,0.036249,0,0,0,0
294.1,0.43807,9.0607,0.036536,0,0,0,0
294.6,0.43985,9.068,0.036664,0,0,0,0
295.1,0.44204,9.0744,0.036665,0,0,0,0
295.6,0.44416,9.0817,0.037143,0,0,0,0
296.1,0.44634,9.0896,0.037015,0,0,0,0
296.6,0.44909,9.0973,0.03727,0,0,0,0
297.1,0.45164,9.1031,0.037493,0,0,0,0
297.6,0.45399,9.1097,0.037557,0,0,0,0
298.1,0.45618,9.1166,0.03778,0,0,0,0
298.6,0.458,9.1239,0.03794,0,0,0,0
299.1,0.46038,9.1304,0.038162,0,0,0,0
299.6,0.46201,9.1379,0.038418,0,0,0,0
300.1,0.46406,9.1449,0.038609,0,0,0,0
300.6,0.46585,9.1519,0.038641,0,0,0,0
301.1,0.46784,9.1584,0.038831,0,0,0,0
301.6,0.47019,9.1653,0.039054,0,0,0,0
302.1,0.47237,9.172,0.039246,0,0,0,0
302.6,0.47489,9.179,0.039627,0,0,0,0
303.1,0.47757,9.1857,0.039882,0,0,0,0
303.6,0.47992,9.1926,0.04001,0,0,0,0
304.1,0.48247,9.1989,0.0402,0,0,0,0
304.6,0.48469,9.2054,0.040486,0,0,0,0
305.1,0.48648,9.2121,0.040518,0,0,0,0
305.6,0.48853,9.2196,0.041058,0,0,0,0
306.1,0.49068,9.2259,0.041122,0,0,0,0
306.6,0.49244,9.2324,0.041154,0,0,0,0
307.1,0.49419,9.2386,0.041344,0,0,0,0
307.6,0.49631,9.2449,0.041535,0,0,0,0
308.1,0.49856,9.2507,0.041599,0,0,0,0
308.6,0.50088,9.2579,0.041663,0,0,0,0
309.1,0.50336,9.2646,0.04198,0,0,0,0
309.6,0.50595,9.2709,0.042044,0,0,0,0
310.1,0.50856,9.2767,0.042234,0,0,0,0
310.6,0.51072,9.2833,0.042456,0,0,0,0
311.1,0.51257,9.29,0.0429,0,0,0,0
311.6,0.51469,9.2967,0.043281,0,0,0,0
312.1,0.51648,9.303,0.043218,0,0,0,0
312.6,0.51836,9.3093,0.043725,0,0,0,0
313.1,0.52032,9.3151,0.043883,0,0,0,0
313.6,0.52241,9.3214,0.044105,0,0,0,0
314.1,0.52476,9.3281,0.044453,0,0,0,0
314.6,0.52721,9.3353,0.044738,0,0,0,0
315.1,0.53002,9.3411,0.044897,0,0,0,0
315.6,0.53207,9.3471,0.04496,0,0,0,0
316.1,0.53449,9.3529,0.044992,0,0,0,0
316.6,0.53658,9.3589,0.04515,0,0,0,0
317.1,0.53873,9.3644,0.045403,0,0,0,0
317.6,0.54058,9.3709,0.045498,0,0,0,0
318.1,0.54231,9.3769,0.045877,0,0,0,0
318.6,0.54436,9.3829,0.045814,0,0,0,0
319.1,0.54635,9.3884,0.046067,0,0,0,0
319.6,0.54856,9.3946,0.046193,0,0,0,0
320.1,0.55092,9.4004,0.046478,0,0,0,0
320.6,0.55337,9.4066,0.046825,0,0,0,0
321.1,0.55602,9.4124,0.04711,0,0,0,0
321.6,0.55866,9.4186,0.047363,0,0,0,0
322.1,0.56098,9.4241,0.047521,0,0,0,0
322.6,0.56294,9.4301,0.047805,0,0,0,0
323.1,0.56509,9.4361,0.048215,0,0,0,0
323.6,0.56717,9.4423,0.048436,0,0,0,0
324.1,0.56926,9.4474,0.048594,0,0,0,0
324.6,0.57138,9.4531,0.048972,0,0,0,0
325.1,0.5735,9.4589,0.049003,0,0,0,0
325.6,0.57575,9.4646,0.049382,0,0,0,0
326.1,0.5783,9.4697,0.049256,0,0,0,0
326.6,0.58095,9.4759,0.049571,0,0,0,0
327.1,0.58363,9.4819,0.049887,0,0,0,0
327.6,0.58618,9.4876,0.049854,0,0,0,0
328.1,0.58853,9.4927,0.050075,0,0,0,0
328.6,0.59082,9.4986,0.05017,0,0,0,0
329.1,0.59287,9.5044,0.050421,0,0,0,0
329.6,0.59489,9.5103,0.050705,0,0,0,0
330.1,0.59717,9.5157,0.050988,0,0,0,0
330.6,0.59916,9.5216,0.051176,0,0,0,0
331.1,0.60135,9.5269,0.051429,0,0,0,0
331.6,0.60386,9.5324,0.051774,0,0,0,0
332.1,0.60611,9.5379,0.052088,0,0,0,0
332.6,0.60889,9.5439,0.052371,0,0,0,0
333.1,0.61171,9.5491,0.052623,0,0,0,0
333.6,0.61439,9.5549,0.053093,0,0,0,0
334.1,0.61674,9.5601,0.053062,0,0,0,0
334.6,0.61913,9.5656,0.053376,0,0,0,0
335.1,0.62118,9.5707,0.053564,0,0,0,0
335.6,0.62333,9.5769,0.053722,0,0,0,0
336.1,0.62555,9.5826,0.053815,0,0,0,0
336.6,0.6275,9.5879,0.054066,0,0,0,0
337.1,0.62982,9.5927,0.05416,0,0,0,0
337.6,0.63223,9.5983,0.054254,0,0,0,0
338.1,0.63492,9.6037,0.054505,0,0,0,0
338.6,0.63783,9.6093,0.054819,0,0,0,0
339.1,0.64061,9.6147,0.055069,0,0,0,0
339.6,0.64303,9.62,0.055415,0,0,0,0
340.1,0.64558,9.6244,0.055665,0,0,0,0
340.6,0.6478,9.6294,0.055821,0,0,0,0
341.1,0.64985,9.6351,0.056322,0,0,0,0
341.6,0.6522,9.641,0.056478,0,0,0,0
342.1,0.65412,9.6454,0.056823,0,0,0,0
342.6,0.65621,9.6501,0.05701,0,0,0,0
343.1,0.65879,9.6551,0.057353,0,0,0,0
343.6,0.66104,9.6606,0.057541,0,0,0,0
344.1,0.66402,9.6654,0.057728,0,0,0,0
344.6,0.66647,9.6709,0.057823,0,0,0,0
345.1,0.66909,9.6761,0.058135,0,0,0,0
345.6,0.67197,9.6813,0.058385,0,0,0,0
346.1,0.67425,9.686,0.058635,0,0,0,0
346.6,0.67631,9.6913,0.058853,0,0,0,0
347.1,0.67849,9.6964,0.058884,0,0,0,0
347.6,0.68035,9.7016,0.05929,0,0,0,0
348.1,0.6827,9.7064,0.059571,0,0,0,0
348.6,0.68515,9.7113,0.059695,0,0,0,0
349.1,0.68727,9.7157,0.060069,0,0,0,0
349.6,0.68991,9.7206,0.06035,0,0,0,0
350.1,0.6928,9.7254,0.06063,0,0,0,0
350.6,0.69574,9.7306,0.061004,0,0,0,0
351.1,0.69799,9.7351,0.061129,0,0,0,0
351.6,0.70078,9.7401,0.061378,0,0,0,0
352.1,0.70316,9.7449,0.061783,0,0,0,0
352.6,0.70534,9.7493,0.061814,0,0,0,0
353.1,0.70723,9.7533,0.062187,0,0,0,0
353.6,0.70929,9.7583,0.062499,0,0,0,0
354.1,0.71173,9.7634,0.062654,0,0,0,0
354.6,0.71412,9.7683,0.062964,0,0,0,0
355.1,0.7167,9.7727,0.063307,0,0,0,0
355.6,0.71938,9.7773,0.063369,0,0,0,0
356.1,0.72216,9.7817,0.063586,0,0,0,0
356.6,0.72495,9.7866,0.063927,0,0,0,0
357.1,0.72763,9.7914,0.064301,0,0,0,0
357.6,0.73001,9.7957,0.064394,0,0,0,0
358.1,0.73236,9.7996,0.064766,0,0,0,0
358.6,0.73438,9.804,0.064889,0,0,0,0
359.1,0.7366,9.809,0.065169,0,0,0,0
359.6,0.73905,9.8137,0.065572,0,0,0,0
360.1,0.74133,9.818,0.065789,0,0,0,0
360.6,0.74392,9.822,0.066285,0,0,0,0
361.1,0.74676,9.8266,0.066409,0,0,0,0
361.6,0.74968,9.8311,0.066781,0,0,0,0
362.1,0.75262,9.8359,0.066998,0,0,0,0
362.6,0.75524,9.8401,0.067401,0,0,0,0
363.1,0.75766,9.8446,0.067524,0,0,0,0
363.6,0.76007,9.8484,0.067803,0,0,0,0
364.1,0.76252,9.8526,0.068205,0,0,0,0
364.6,0.76484,9.8567,0.068513,0,0,0,0
365.1,0.76709,9.8613,0.068792,0,0,0,0
365.6,0.76931,9.8654,0.069039,0,0,0,0
366.1,0.77193,9.8696,0.069225,0,0,0,0
366.6,0.77471,9.8737,0.069564,0,0,0,0
367.1,0.77739,9.8783,0.069841,0,0,0,0
367.6,0.78034,9.8827,0.070119,0,0,0,0
368.1,0.78325,9.8873,0.070367,0,0,0,0
368.6,0.7859,9.8911,0.070705,0,0,0,0
369.1,0.78832,9.8949,0.071138,0,0,0,0
369.6,0.7906,9.8984,0.07123,0,0,0,0
370.1,0.79288,9.9029,0.0716,0,0,0,0
370.6,0.79547,9.9074,0.072031,0,0,0,0
371.1,0.79765,9.9123,0.072278,0,0,0,0
371.6,0.8001,9.9164,0.072432,0,0,0,0
372.1,0.80288,9.9203,0.072894,0,0,0,0
372.6,0.80583,9.924,0.073171,0,0,0,0
373.1,0.80891,9.9283,0.073509,0,0,0,0
373.6,0.81182,9.9324,0.073694,0,0,0,0
374.1,0.81461,9.9366,0.074093,0,0,0,0
374.6,0.81699,9.9404,0.074308,0,0,0,0
375.1,0.81944,9.9443,0.074738,0,0,0,0
375.6,0.82172,9.948,0.075046,0,0,0,0
376.1,0.82411,9.9523,0.075261,0,0,0,0
376.6,0.82649,9.9564,0.075599,0,0,0,0
377.1,0.82904,9.9603,0.075936,0,0,0,0
377.6,0.83159,9.9634,0.07612,0,0,0,0
378.1,0.83457,9.9671,0.076427,0,0,0,0
378.6,0.83748,9.9711,0.076642,0,0,0,0
379.1,0.84046,9.9756,0.077285,0,0,0,0
379.6,0.84328,9.9794,0.077469,0,0,0,0
380.1,0.84583,9.9836,0.077837,0,0,0,0
380.6,0.84825,9.9871,0.078173,0,0,0,0
381.1,0.85076,9.9909,0.07848,0,0,0,0
381.6,0.85301,9.9944,0.078817,0,0,0,0
382.1,0.85559,9.9986,0.07903,0,0,0,0
382.6,0.85804,10.002,0.079275,0,0,0,0
383.1,0.86073,10.006,0.079672,0,0,0,0
383.6,0.86344,10.009,0.08007,0,0,0,0
384.1,0.86655,10.013,0.080436,0,0,0,0
384.6,0.8695,10.016,0.080681,0,0,0,0
385.1,0.87208,10.02,0.080864,0,0,0,0
385.6,0.8746,10.024,0.081352,0,0,0,0
386.1,0.87735,10.027,0.081657,0,0,0,0
386.6,0.87973,10.03,0.081993,0,0,0,0
387.1,0.88221,10.034,0.082268,0,0,0,0
387.6,0.8847,10.038,0.082481,0,0,0,0
388.1,0.88705,10.041,0.082999,0,0,0,0
388.6,0.88963,10.045,0.083396,0,0,0,0
389.1,0.89238,10.048,0.083609,0,0,0,0
389.6,0.89519,10.051,0.084065,0,0,0,0
390.1,0.8986,10.055,0.084553,0,0,0,0
390.6,0.90139,10.058,0.084613,0,0,0,0
391.1,0.90414,10.061,0.085221,0,0,0,0
391.6,0.90639,10.065,0.085525,0,0,0,0
392.1,0.9088,10.068,0.085708,0,0,0,0
392.6,0.91112,10.072,0.086102,0,0,0,0
393.1,0.9138,10.075,0.086436,0,0,0,0
393.6,0.91609,10.079,0.08677,0,0,0,0
394.1,0.91877,10.081,0.087044,0,0,0,0
394.6,0.92152,10.085,0.087316,0,0,0,0
395.1,0.9246,10.088,0.087802,0,0,0,0
395.6,0.92748,10.091,0.088135,0,0,0,0
396.1,0.93046,10.094,0.088409,0,0,0,0
396.6,0.93291,10.097,0.088772,0,0,0,0
397.1,0.93556,10.101,0.089136,0,0,0,0
397.6,0.93807,10.104,0.089559,0,0,0,0
398.1,0.94029,10.107,0.089892,0,0,0,0
398.6,0.94297,10.111,0.090316,0,0,0,0
399.1,0.94556,10.114,0.0908,0,0,0,0
399.6,0.94827,10.117,0.091162,0,0,0,0
400.1,0.95112,10.12,0.091495,0,0,0,0
400.6,0.95413,10.123,0.091737,0,0,0,0
401.1,0.95718,10.126,0.09225,0,0,0,0
401.6,0.95989,10.129,0.092552,0,0,0,0
402.1,0.96264,10.132,0.092854,0,0,0,0
402.6,0.96546,10.135,0.093185,0,0,0,0
403.1,0.96794,10.138,0.093547,0,0,0,0
403.6,0.97032,10.141,0.094029,0,0,0,0
404.1,0.97281,10.144,0.094392,0,0,0,0
404.6,0.97536,10.147,0.094813,0,0,0,0
405.1,0.97817,10.15,0.095084,0,0,0,0
405.6,0.98098,10.153,0.095535,0,0,0,0
406.1,0.9843,10.156,0.095835,0,0,0,0
406.6,0.98747,10.159,0.096197,0,0,0,0
407.1,0.99039,10.162,0.096768,0,0,0,0
407.6,0.99327,10.165,0.096918,0,0,0,0
408.1,0.99575,10.168,0.09749,0,0,0,0
408.6,0.99837,10.171,0.097999,0,0,0,0
409.1,1.001,10.173,0.098299,0,0,0,0
409.6,1.0034,10.175,0.09851,0,0,0,0
410.1,1.0062,10.178,0.09902,0,0,0,0
410.6,1.0087,10.181,0.099319,0,0,0,0
411.1,1.0119,10.183,0.099829,0,0,0,0
411.6,1.0152,10.186,0.10025,0,0,0,0
412.1,1.0181,10.189,0.10067,0,0,0,0
412.6,1.0212,10.191,0.10103,0,0,0,0
413.1,1.024,10.194,0.10157,0,0,0,0
413.6,1.0265,10.196,0.10192,0,0,0,0
414.1,1.0292,10.199,0.10246,0,0,0,0
414.6,1.0319,10.202,0.10267,0,0,0,0
415.1,1.0343,10.205,0.10303,0,0,0,0
415.6,1.037,10.207,0.10342,0,0,0,0
416.1,1.04,10.211,0.10375,0,0,0,0
416.6,1.0431,10.213,0.1044,0,0,0,0
417.1,1.0466,10.216,0.1047,0,0,0,0
417.6,1.0496,10.218,0.10515,0,0,0,0
418.1,1.0524,10.22,0.10539,0,0,0,0
418.6,1.0552,10.222,0.10601,0,0,0,0
419.1,1.058,10.225,0.1064,0,0,0,0
419.6,1.0604,10.227,0.10687,0,0,0,0
420.1,1.063,10.23,0.10729,0,0,0,0
420.6,1.0656,10.232,0.10777,0,0,0,0
421.1,1.0685,10.234,0.10815,0,0,0,0
421.6,1.0714,10.237,0.10872,0,0,0,0
422.1,1.0748,10.239,0.1091,0,0,0,0
422.6,1.0781,10.241,0.10955,0,0,0,0
423.1,1.0811,10.244,0.11008,0,0,0,0
423.6,1.0843,10.246,0.11038,0,0,0,0
424.1,1.0867,10.249,0.11074,0,0,0,0
424.6,1.0895,10.251,0.11121,0,0,0,0
425.1,1.0921,10.253,0.1118,0,0,0,0
425.6,1.0949,10.255,0.11216,0,0,0,0
426.1,1.0978,10.257,0.11266,0,0,0,0
426.6,1.1005,10.259,0.11307,0,0,0,0
427.1,1.1038,10.261,0.11352,0,0,0,0
427.6,1.107,10.264,0.11399,0,0,0,0
428.1,1.1103,10.266,0.11461,0,0,0,0
428.6,1.1133,10.268,0.11491,0,0,0,0
429.1,1.1162,10.27,0.11535,0,0,0,0
429.6,1.1191,10.272,0.11594,0,0,0,0
430.1,1.1215,10.274,0.11632,0,0,0,0
430.6,1.1242,10.275,0.11667,0,0,0,0
431.1,1.127,10.277,0.11726,0,0,0,0
431.6,1.1298,10.28,0.11747,0,0,0,0
432.1,1.1326,10.282,0.11815,0,0,0,0
432.6,1.1359,10.284,0.11865,0,0,0,0
433.1,1.139,10.285,0.11903,0,0,0,0
433.6,1.1423,10.287,0.11965,0,0,0,0
434.1,1.1454,10.289,0.12,0,0,0,0
434.6,1.1485,10.291,0.12056,0,0,0,0
435.1,1.1512,10.293,0.12102,0,0,0,0
435.6,1.1536,10.295,0.1217,0,0,0,0
436.1,1.1564,10.296,0.1222,0,0,0,0
436.6,1.1591,10.298,0.12246,0,0,0,0
437.1,1.162,10.3,0.12302,0,0,0,0
437.6,1.1652,10.302,0.12363,0,0,0,0
438.1,1.1682,10.304,0.12396,0,0,0,0
438.6,1.1715,10.305,0.1246,0,0,0,0
439.1,1.1746,10.307,0.12504,0,0,0,0
439.6,1.178,10.308,0.12556,0,0,0,0
440.1,1.1806,10.31,0.12591,0,0,0,0
440.6,1.1834,10.312,0.12635,0,0,0,0
441.1,1.1862,10.313,0.12693,0,0,0,0
441.6,1.189,10.315,0.12749,0,0,0,0
442.1,1.1915,10.316,0.12804,0,0,0,0
442.6,1.1945,10.318,0.12862,0,0,0,0
443.1,1.1977,10.319,0.12918,0,0,0,0
443.6,1.2012,10.321,0.12982,0,0,0,0
444.1,1.2044,10.322,0.13037,0,0,0,0
444.6,1.2076,10.324,0.1306,0,0,0,0
445.1,1.2107,10.326,0.13133,0,0,0,0
445.6,1.2134,10.327,0.13191,0,0,0,0
446.1,1.2162,10.328,0.13237,0,0,0,0
446.6,1.2187,10.33,0.13301,0,0,0,0
447.1,1.2217,10.331,0.13344,0,0,0,0
447.6,1.2244,10.333,0.13399,0,0,0,0
448.1,1.2277,10.334,0.13457,0,0,0,0
448.6,1.2308,10.335,0.13501,0,0,0,0
449.1,1.2344,10.337,0.13567,0,0,0,0
449.6,1.2376,10.338,0.13619,0,0,0,0
450.1,1.2408,10.339,0.13677,0,0,0,0
450.6,1.2438,10.34,0.13732,0,0,0,0
451.1,1.2465,10.342,0.13801,0,0,0,0
451.6,1.2492,10.343,0.1387,0,0,0,0
452.1,1.252,10.344,0.13922,0,0,0,0
452.6,1.2551,10.346,0.13983,0,0,0,0
453.1,1.2578,10.347,0.14052,0,0,0,0
453.6,1.2611,10.348,0.14109,0,0,0,0
454.1,1.2648,10.349,0.14155,0,0,0,0
454.6,1.2682,10.35,0.14227,0,0,0,0
455.1,1.2716,10.35,0.14287,0,0,0,0
455.6,1.2743,10.351,0.14333,0,0,0,0
456.1,1.2773,10.353,0.14399,0,0,0,0
456.6,1.2801,10.354,0.14451,0,0,0,0
457.1,1.2828,10.355,0.14517,0,0,0,0
457.6,1.2856,10.356,0.14562,0,0,0,0
458.1,1.2888,10.357,0.14631,0,0,0,0
458.6,1.2918,10.357,0.14697,0,0,0,0
459.1,1.2954,10.358,0.14771,0,0,0,0
459.6,1.2991,10.359,0.14823,0,0,0,0
460.1,1.3025,10.36,0.14882,0,0,0,0
460.6,1.3053,10.361,0.14974,0,0,0,0
461.1,1.3086,10.361,0.15016,0,0,0,0
461.6,1.3111,10.362,0.15082,0,0,0,0
462.1,1.314,10.363,0.15164,0,0,0,0
462.6,1.3168,10.364,0.1521,0,0,0,0
463.1,1.3198,10.365,0.15284,0,0,0,0
463.6,1.3231,10.365,0.15329,0,0,0,0
464.1,1.3265,10.366,0.15406,0,0,0,0
464.6,1.3299,10.366,0.15463,0,0,0,0
465.1,1.3333,10.367,0.15531,0,0,0,0
465.6,1.3365,10.368,0.1559,0,0,0,0
466.1,1.3396,10.368,0.1565,0,0,0,0
466.6,1.3427,10.369,0.15723,0,0,0,0
467.1,1.3453,10.369,0.15786,0,0,0,0
467.6,1.3482,10.37,0.15839,0,0,0,0
468.1,1.3512,10.37,0.15916,0,0,0,0
468.6,1.3543,10.37,0.15995,0,0,0,0
469.1,1.3576,10.371,0.16062,0,0,0,0
469.6,1.3615,10.371,0.16127,0,0,0,0
470.1,1.3646,10.372,0.16195,0,0,0,0
470.6,1.3679,10.372,0.16265,0,0,0,0
471.1,1.3711,10.372,0.16333,0,0,0,0
471.6,1.3742,10.372,0.16408,0,0,0,0
472.1,1.3772,10.373,0.1649,0,0,0,0
472.6,1.38,10.373,0.1656,0,0,0,0
473.1,1.383,10.373,0.16619,0,0,0,0
473.6,1.386,10.373,0.16695,0,0,0,0
474.1,1.3894,10.373,0.16767,0,0,0,0
474.6,1.393,10.374,0.16857,0,0,0,0
475.1,1.3966,10.374,0.16933,0,0,0,0
475.6,1.4003,10.374,0.17005,0,0,0,0
476.1,1.4034,10.374,0.17103,0,0,0,0
476.6,1.4063,10.374,0.17187,0,0,0,0
477.1,1.4092,10.374,0.17245,0,0,0,0
477.6,1.4123,10.374,0.17323,0,0,0,0
478.1,1.4152,10.374,0.17393,0,0,0,0
478.6,1.4184,10.374,0.17482,0,0,0,0
479.1,1.4216,10.373,0.17548,0,0,0,0
479.6,1.4251,10.373,0.17626,0,0,0,0
480.1,1.429,10.373,0.17693,0,0,0,0
480.6,1.4325,10.373,0.17781,0,0,0,0
481.1,1.4355,10.373,0.17851,0,0,0,0
481.6,1.4386,10.373,0.17928,0,0,0,0
482.1,1.4415,10.372,0.1802,0,0,0,0
482.6,1.4444,10.372,0.1808,0,0,0,0
483.1,1.4475,10.372,0.18163,0,0,0,0
483.6,1.4506,10.372,0.18271,0,0,0,0
484.1,1.454,10.372,0.18342,0,0,0,0
484.6,1.4577,10.371,0.18425,0,0,0,0
485.1,1.4615,10.37,0.18521,0,0,0,0
485.6,1.465,10.37,0.18607,0,0,0,0
486.1,1.4683,10.37,0.18703,0,0,0,0
486.6,1.4716,10.369,0.18788,0,0,0,0
487.1,1.4745,10.368,0.18876,0,0,0,0
487.6,1.4774,10.367,0.18955,0,0,0,0
488.1,1.4807,10.367,0.19048,0,0,0,0
488.6,1.4836,10.366,0.19141,0,0,0,0
489.1,1.4871,10.366,0.19226,0,0,0,0
489.6,1.4905,10.365,0.19305,0,0,0,0
490.1,1.4943,10.364,0.19406,0,0,0,0
490.6,1.498,10.363,0.19496,0,0,0,0
491.1,1.5015,10.362,0.19589,0,0,0,0
491.6,1.5046,10.362,0.19687,0,0,0,0
492.1,1.5076,10.361,0.19782,0,0,0,0
492.6,1.5108,10.36,0.19882,0,0,0,0
493.1,1.5138,10.359,0.19972,0,0,0,0
493.6,1.517,10.358,0.20072,0,0,0,0
494.1,1.5204,10.357,0.20148,0,0,0,0
494.6,1.5242,10.356,0.2024,0,0,0,0
495.1,1.5281,10.355,0.20334,0,0,0,0
495.6,1.5316,10.354,0.20431,0,0,0,0
496.1,1.5349,10.352,0.20537,0,0,0,0
496.6,1.5381,10.352,0.20626,0,0,0,0
497.1,1.5411,10.35,0.20736,0,0,0,0
497.6,1.5444,10.349,0.20838,0,0,0,0
498.1,1.5474,10.348,0.20913,0,0,0,0
498.6,1.5507,10.346,0.20999,0,0,0,0
499.1,1.5542,10.345,0.21101,0,0,0,0
499.6,1.558,10.343,0.2119,0,0,0,0
500.1,1.5618,10.342,0.21297,0,0,0,0
500.6,1.5653,10.341,0.21388,0,0,0,0
501.1,1.5688,10.339,0.21481,0,0,0,0
501.6,1.572,10.337,0.2158,0,0,0,0
502.1,1.5752,10.336,0.21689,0,0,0,0
502.6,1.5781,10.334,0.21759,0,0,0,0
503.1,1.5813,10.332,0.2187,0,0,0,0
503.6,1.5846,10.331,0.21995,0,0,0,0
504.1,1.5881,10.329,0.22112,0,0,0,0
504.6,1.5917,10.328,0.22216,0,0,0,0
505.1,1.5954,10.326,0.22316,0,0,0,0
505.6,1.5991,10.324,0.22427,0,0,0,0
506.1,1.6026,10.322,0.22525,0,0,0,0
506.6,1.6058,10.32,0.22623,0,0,0,0
507.1,1.6088,10.318,0.22742,0,0,0,0
507.6,1.612,10.316,0.22829,0,0,0,0
508.1,1.6152,10.315,0.22931,0,0,0,0
508.6,1.6185,10.313,0.23045,0,0,0,0
509.1,1.6221,10.311,0.23139,0,0,0,0
509.6,1.6258,10.308,0.23257,0,0,0,0
510.1,1.6295,10.306,0.2337,0,0,0,0
510.6,1.6333,10.304,0.2348,0,0,0,0
511.1,1.6369,10.302,0.23595,0,0,0,0
511.6,1.6398,10.299,0.23721,0,0,0,0
512.1,1.6429,10.297,0.23828,0,0,0,0
512.6,1.6459,10.294,0.23935,0,0,0,0
513.1,1.6494,10.292,0.24047,0,0,0,0
513.6,1.6529,10.29,0.24164,0,0,0,0
514.1,1.6564,10.288,0.2427,0,0,0,0
514.6,1.6602,10.285,0.24405,0,0,0,0
515.1,1.664,10.282,0.24514,0,0,0,0
515.6,1.6674,10.28,0.24636,0,0,0,0
516.1,1.671,10.278,0.2476,0,0,0,0
516.6,1.6739,10.275,0.24884,0,0,0,0
517.1,1.6771,10.272,0.25,0,0,0,0
517.6,1.6804,10.269,0.25116,0,0,0,0
518.1,1.6836,10.267,0.25234,0,0,0,0
518.6,1.6871,10.264,0.25345,0,0,0,0
519.1,1.6908,10.261,0.25458,0,0,0,0
519.6,1.6948,10.258,0.25573,0,0,0,0
520.1,1.6988,10.256,0.25678,0,0,0,0
520.6,1.7022,10.253,0.25806,0,0,0,0
521.1,1.7055,10.25,0.25944,0,0,0,0
521.6,1.7089,10.247,0.26072,0,0,0,0
522.1,1.712,10.243,0.26179,0,0,0,0
522.6,1.7151,10.24,0.26334,0,0,0,0
523.1,1.7184,10.237,0.26454,0,0,0,0
523.6,1.7221,10.234,0.26583,0,0,0,0
524.1,1.7258,10.231,0.26687,0,0,0,0
524.6,1.7298,10.227,0.26822,0,0,0,0
525.1,1.7337,10.224,0.26938,0,0,0,0
525.6,1.7372,10.221,0.2708,0,0,0,0
526.1,1.7404,10.217,0.27206,0,0,0,0
526.6,1.7436,10.214,0.27327,0,0,0,0
527.1,1.7471,10.21,0.2748,0,0,0,0
527.6,1.7502,10.207,0.27626,0,0,0,0
528.1,1.7536,10.203,0.27734,0,0,0,0
528.6,1.7572,10.199,0.27887,0,0,0,0
529.1,1.7611,10.195,0.28004,0,0,0,0
529.6,1.7652,10.192,0.28139,0,0,0,0
530.1,1.769,10.188,0.28279,0,0,0,0
530.6,1.7727,10.184,0.28431,0,0,0,0
531.1,1.7758,10.18,0.28566,0,0,0,0
531.6,1.7789,10.176,0.28705,0,0,0,0
532.1,1.7822,10.172,0.28854,0,0,0,0
532.6,1.7855,10.168,0.29,0,0,0,0
533.1,1.7892,10.164,0.29137,0,0,0,0
533.6,1.793,10.16,0.2928,0,0,0,0
534.1,1.7971,10.155,0.29416,0,0,0,0
534.6,1.8008,10.151,0.29541,0,0,0,0
535.1,1.8046,10.146,0.29682,0,0,0,0
535.6,1.8081,10.142,0.29807,0,0,0,0
536.1,1.8115,10.137,0.29969,0,0,0,0
536.6,1.8147,10.133,0.30131,0,0,0,0
537.1,1.8178,10.129,0.30285,0,0,0,0
537.6,1.8216,10.124,0.30415,0,0,0,0
538.1,1.8251,10.119,0.30573,0,0,0,0
538.6,1.8289,10.115,0.30702,0,0,0,0
539.1,1.8331,10.11,0.30841,0,0,0,0
539.6,1.837,10.105,0.30967,0,0,0,0
540.1,1.8407,10.1,0.31123,0,0,0,0
540.6,1.8441,10.094,0.31261,0,0,0,0
541.1,1.8473,10.089,0.31401,0,0,0,0
541.6,1.8507,10.084,0.31566,0,0,0,0
542.1,1.8541,10.079,0.31739,0,0,0,0
542.6,1.8577,10.074,0.31893,0,0,0,0
543.1,1.8614,10.069,0.32052,0,0,0,0
543.6,1.8656,10.064,0.32182,0,0,0,0
544.1,1.8698,10.058,0.32335,0,0,0,0
544.6,1.8736,10.052,0.32462,0,0,0,0
545.1,1.8772,10.046,0.3261,0,0,0,0
545.6,1.8805,10.041,0.32759,0,0,0,0
546.1,1.884,10.035,0.32916,0,0,0,0
546.6,1.8872,10.03,0.33085,0,0,0,0
547.1,1.8906,10.023,0.33249,0,0,0,0
547.6,1.8943,10.018,0.33401,0,0,0,0
548.1,1.8984,10.011,0.33569,0,0,0,0
548.6,1.9024,10.006,0.33734,0,0,0,0
549.1,1.9063,9.9991,0.33881,0,0,0,0
549.6,1.9099,9.9929,0.34041,0,0,0,0
550.1,1.9133,9.9864,0.34208,0,0,0,0
550.6,1.9167,9.9809,0.34356,0,0,0,0
551.1,1.9201,9.9746,0.34546,0,0,0,0
551.6,1.9235,9.9681,0.34707,0,0,0,0
552.1,1.9272,9.9609,0.34888,0,0,0,0
552.6,1.9309,9.9544,0.35049,0,0,0,0
553.1,1.9352,9.9476,0.35212,0,0,0,0
553.6,1.9395,9.9411,0.35386,0,0,0,0
554.1,1.9433,9.9341,0.35533,0,0,0,0
554.6,1.9469,9.9276,0.35699,0,0,0,0
555.1,1.9502,9.9204,0.35862,0,0,0,0
555.6,1.9534,9.9133,0.36021,0,0,0,0
556.1,1.9571,9.9057,0.36187,0,0,0,0
556.6,1.9604,9.8983,0.36358,0,0,0,0
557.1,1.9643,9.8907,0.36535,0,0,0,0
557.6,1.9684,9.8833,0.36704,0,0,0,0
558.1,1.9725,9.8757,0.36847,0,0,0,0
558.6,1.9765,9.8683,0.37013,0,0,0,0
559.1,1.9805,9.8604,0.37201,0,0,0,0
559.6,1.9841,9.8529,0.37372,0,0,0,0
560.1,1.9872,9.8446,0.37552,0,0,0,0
560.6,1.9907,9.8367,0.37715,0,0,0,0
561.1,1.9943,9.828,0.37924,0,0,0,0
561.6,1.9979,9.82,0.38075,0,0,0,0
562.1,2.0022,9.811,0.38261,0,0,0,0
562.6,2.0064,9.803,0.38435,0,0,0,0
563.1,2.0106,9.7946,0.3861,0,0,0,0
563.6,2.0144,9.7866,0.38777,0,0,0,0
564.1,2.0181,9.7774,0.38974,0,0,0,0
564.6,2.0216,9.7683,0.39167,0,0,0,0
565.1,2.025,9.7587,0.39343,0,0,0,0
565.6,2.0287,9.7496,0.39537,0,0,0,0
566.1,2.0324,9.7401,0.39733,0,0,0,0
566.6,2.0364,9.7306,0.39918,0,0,0,0
567.1,2.0408,9.7207,0.40093,0,0,0,0
567.6,2.0451,9.7113,0.40275,0,0,0,0
568.1,2.0491,9.7011,0.40461,0,0,0,0
568.6,2.053,9.6914,0.40648,0,0,0,0
569.1,2.0565,9.6813,0.40851,0,0,0,0
569.6,2.0602,9.6717,0.41047,0,0,0,0
570.1,2.0638,9.6607,0.41235,0,0,0,0
570.6,2.0676,9.65,0.41437,0,0,0,0
571.1,2.0717,9.6383,0.41635,0,0,0,0
571.6,2.0762,9.6277,0.41814,0,0,0,0
572.1,2.0803,9.6169,0.41995,0,0,0,0
572.6,2.0845,9.6066,0.42212,0,0,0,0
573.1,2.0884,9.5951,0.42405,0,0,0,0
573.6,2.092,9.5836,0.42583,0,0,0,0
574.1,2.0957,9.5714,0.42781,0,0,0,0
574.6,2.0995,9.5599,0.42984,0,0,0,0
575.1,2.1033,9.5479,0.43189,0,0,0,0
575.6,2.1073,9.5356,0.43384,0,0,0,0
576.1,2.1118,9.5224,0.43564,0,0,0,0
576.6,2.1163,9.5099,0.43774,0,0,0,0
577.1,2.1204,9.4969,0.43981,0,0,0,0
577.6,2.1245,9.485,0.44172,0,0,0,0
578.1,2.1283,9.4721,0.44398,0,0,0,0
578.6,2.132,9.4596,0.44593,0,0,0,0
579.1,2.1357,9.4451,0.44811,0,0,0,0
579.6,2.1399,9.4319,0.45031,0,0,0,0
580.1,2.1443,9.4171,0.45252,0,0,0,0
580.6,2.1484,9.4036,0.45467,0,0,0,0
581.1,2.1531,9.389,0.45712,0,0,0,0
581.6,2.1575,9.3751,0.45934,0,0,0,0
582.1,2.1616,9.3599,0.46149,0,0,0,0
582.6,2.1656,9.3449,0.46333,0,0,0,0
583.1,2.1693,9.3291,0.46539,0,0,0,0
583.6,2.1733,9.3136,0.46736,0,0,0,0
584.1,2.1776,9.2971,0.46935,0,0,0,0
584.6,2.182,9.2809,0.47156,0,0,0,0
585.1,2.187,9.2641,0.47416,0,0,0,0
585.6,2.1913,9.2476,0.47651,0,0,0,0
586.1,2.1957,9.2301,0.47883,0,0,0,0
586.6,2.2001,9.214,0.48135,0,0,0,0
587.1,2.2041,9.1966,0.48364,0,0,0,0
587.6,2.2082,9.1791,0.48592,0,0,0,0
588.1,2.2123,9.1596,0.48838,0,0,0,0
588.6,2.2169,9.1414,0.49069,0,0,0,0
589.1,2.2217,9.121,0.4931,0,0,0,0
589.6,2.2266,9.102,0.49573,0,0,0,0
590.1,2.2314,9.0821,0.49796,0,0,0,0
590.6,2.2358,9.0631,0.50064,0,0,0,0
591.1,2.2399,9.0416,0.50338,0,0,0,0
591.6,2.2441,9.0201,0.50598,0,0,0,0
592.1,2.2487,8.9976,0.50839,0,0,0,0
592.6,2.253,8.9751,0.51084,0,0,0,0
593.1,2.258,8.9513,0.51367,0,0,0,0
593.6,2.2633,8.9274,0.51703,0,0,0,0
594.1,2.2684,8.9017,0.51991,0,0,0,0
594.6,2.2732,8.8757,0.52243,0,0,0,0
595.1,2.2781,8.8474,0.52519,0,0,0,0