File: polyN_optimization/DP600_results/DATA/NT6_45_3.csv
Time[s],Displacement[mm],Force[kN],AxStrain_1,AxStrain_2,Thickness[mm],OuterWidth[mm],InnerWidth[mm]
0.64,0,-0.017858,0,0,1.5259,20,9.9894
1.14,-3.5e-05,-0.021175,-1.6e-05,0,0,0,0
1.64,0.000238,-0.023996,8.8996e-05,0,0,0,0
2.14,0.000238,-0.012407,-0.00013501,0,0,0,0
2.64,0.000572,0.014423,0.00011699,0,0,0,0
3.14,0.000451,0.049145,-7.7003e-05,0,0,0,0
3.64,0.000561,0.080423,-8e-06,0,0,0,0
4.14,0.000337,0.11015,-0.00030305,0,0,0,0
4.64,0.000648,0.13528,-0.00011701,0,0,0,0
5.14,0.000641,0.16058,-0.00018002,0,0,0,0
5.64,0.00067,0.18471,-0.00021302,0,0,0,0
6.14,0.000698,0.20757,1.4e-05,0,0,0,0
6.64,0.000754,0.22557,-0.00016101,0,0,0,0
7.14,0.000779,0.24315,-1e-06,0,0,0,0
7.64,0.000922,0.259,-1.1e-05,0,0,0,0
8.14,0.000869,0.27529,0.00012099,0,0,0,0
8.64,0.000783,0.29214,3.1999e-05,0,0,0,0
9.14,0.000846,0.31258,7.7997e-05,0,0,0,0
9.64,0.001141,0.33228,-2.2e-05,0,0,0,0
10.14,0.000977,0.35272,0.00021098,0,0,0,0
10.64,0.001004,0.37128,1.6e-05,0,0,0,0
11.14,0.001185,0.39029,0.00020298,0,0,0,0
11.64,0.001196,0.40785,0.00014599,0,0,0,0
12.14,0.001219,0.42743,0.00015899,0,0,0,0
12.64,0.001436,0.44628,8.3996e-05,0,0,0,0
13.14,0.001495,0.46543,0.00035694,0,0,0,0
13.64,0.001623,0.48271,3.7999e-05,0,0,0,0
14.14,0.001756,0.50115,0.00018498,0,0,0,0
14.64,0.00193,0.52,0.00022198,0,0,0,0
15.14,0.001947,0.53986,-7.9003e-05,0,0,0,0
15.64,0.001907,0.55814,-2.6e-05,0,0,0,0
16.14,0.001867,0.57715,-0.00010601,0,0,0,0
16.64,0.001841,0.59471,2.3e-05,0,0,0,0
17.14,0.001851,0.61229,-0.00014901,0,0,0,0
17.64,0.001864,0.62985,-9.9005e-05,0,0,0,0
18.14,0.001996,0.65058,-1.3e-05,0,0,0,0
18.64,0.00191,0.67056,-1.3e-05,0,0,0,0
19.14,0.002059,0.69172,-0.00012601,0,0,0,0
19.64,0.001927,0.71099,5.2999e-05,0,0,0,0
20.14,0.001957,0.73058,0.00010899,0,0,0,0
20.64,0.002145,0.74914,0.00012899,0,0,0,0
21.14,0.002066,0.77015,9.2996e-05,0,0,0,0
21.64,0.002218,0.79057,0.00011599,0,0,0,0
22.14,0.002486,0.81172,0.00038693,0,0,0,0
22.64,0.002576,0.83085,0.00025497,0,0,0,0
23.14,0.002549,0.85129,0.00026197,0,0,0,0
23.64,0.002708,0.87214,0.00027096,0,0,0,0
24.14,0.00285,0.89443,0.00028096,0,0,0,0
24.64,0.003178,0.91485,6.9998e-05,0,0,0,0
25.14,0.003314,0.93615,0.00033095,0,0,0,0
25.64,0.00344,0.95542,5.5998e-05,0,0,0,0
26.14,0.003453,0.97458,1.3e-05,0,0,0,0
26.64,0.003383,0.99385,0.00022198,0,0,0,0
27.14,0.003605,1.0166,0.00013599,0,0,0,0
27.64,0.003377,1.038,0.00017498,0,0,0,0
28.14,0.003602,1.0597,-0.00014601,0,0,0,0
28.64,0.003443,1.0796,1e-05,0,0,0,0
29.14,0.003463,1.1003,-0.00011601,0,0,0,0
29.64,0.003493,1.1199,3e-05,0,0,0,0
30.14,0.003638,1.1411,-9.3004e-05,0,0,0,0
30.64,0.003661,1.1619,-5.6002e-05,0,0,0,0
31.14,0.003546,1.1831,7.5997e-05,0,0,0,0
31.64,0.003675,1.2024,0.00015199,0,0,0,0
32.14,0.003853,1.223,2e-05,0,0,0,0
32.64,0.003933,1.2444,0.00012599,0,0,0,0
33.14,0.004373,1.2671,0.00014899,0,0,0,0
33.64,0.004532,1.2879,6.2998e-05,0,0,0,0
34.14,0.004582,1.3094,0.00014599,0,0,0,0
34.64,0.004936,1.3289,0.00016599,0,0,0,0
35.14,0.005247,1.3481,0.00028796,0,0,0,0
35.64,0.00528,1.3676,7.2997e-05,0,0,0,0
36.14,0.005456,1.3906,0.00020898,0,0,0,0
36.64,0.005591,1.412,5.2999e-05,0,0,0,0
37.14,0.00535,1.4337,-8.9004e-05,0,0,0,0
37.64,0.005317,1.4533,0.00013199,0,0,0,0
38.14,0.005234,1.4739,-7.6003e-05,0,0,0,0
38.64,0.005204,1.4936,6.2998e-05,0,0,0,0
39.14,0.005154,1.5151,-1.7e-05,0,0,0,0
39.64,0.00527,1.5356,-5.0001e-05,0,0,0,0
40.14,0.005111,1.5567,-5.3001e-05,0,0,0,0
40.64,0.005237,1.5761,-0.00010301,0,0,0,0
41.14,0.005125,1.597,-3.6001e-05,0,0,0,0
41.64,0.005135,1.6181,9.5995e-05,0,0,0,0
42.14,0.005383,1.6404,0.00020198,0,0,0,0
42.64,0.005529,1.6606,0.00019898,0,0,0,0
43.14,0.005813,1.6814,0.00017498,0,0,0,0
43.64,0.006141,1.7004,0.00034794,0,0,0,0
44.14,0.006396,1.7196,0.00023197,0,0,0,0
44.64,0.006747,1.7389,0.00035394,0,0,0,0
45.14,0.007035,1.7616,0.00012899,0,0,0,0
45.64,0.007432,1.783,0.00043391,0,0,0,0
46.14,0.007422,1.8047,0.00020198,0,0,0,0
46.64,0.007485,1.8243,5.2999e-05,0,0,0,0
47.14,0.007339,1.8446,3.5999e-05,0,0,0,0
47.64,0.007247,1.8636,0.00023197,0,0,0,0
48.14,0.007339,1.8847,0.00011299,0,0,0,0
48.64,0.007151,1.9053,1e-05,0,0,0,0
49.14,0.007045,1.9261,5.9998e-05,0,0,0,0
49.64,0.006959,1.9447,5.9998e-05,0,0,0,0
50.14,0.0068,1.9647,-6.6002e-05,0,0,0,0
50.64,0.006873,1.9857,-1.3e-05,0,0,0,0
51.14,0.006853,2.0079,9.2996e-05,0,0,0,0
51.64,0.007068,2.0281,0.00011299,0,0,0,0
52.14,0.007058,2.0491,0.00027096,0,0,0,0
52.64,0.007306,2.0696,0.00015199,0,0,0,0
53.14,0.007455,2.0904,0.00022797,0,0,0,0
53.64,0.007902,2.1109,0.00016899,0,0,0,0
54.14,0.008174,2.1307,0.00047689,0,0,0,0
54.64,0.008299,2.1504,0.0004539,0,0,0,0
55.14,0.008753,2.1709,0.00034094,0,0,0,0
55.64,0.009134,2.1933,0.00027096,0,0,0,0
56.14,0.009435,2.2143,0.00033794,0,0,0,0
56.64,0.009511,2.2346,0.00034394,0,0,0,0
57.14,0.009534,2.2539,0.00051287,0,0,0,0
57.64,0.0097,2.2749,0.00014199,0,0,0,0
58.14,0.009488,2.2951,3.2999e-05,0,0,0,0
58.64,0.009008,2.3159,0.00022497,0,0,0,0
59.14,0.009058,2.3361,8.8996e-05,0,0,0,0
59.64,0.008816,2.3569,3.2999e-05,0,0,0,0
60.14,0.008892,2.3757,7.5997e-05,0,0,0,0
60.64,0.008899,2.3957,0.00016599,0,0,0,0
61.14,0.00867,2.4164,0.00031395,0,0,0,0
61.64,0.008813,2.4384,0.00020498,0,0,0,0
62.14,0.008991,2.4574,0.00025197,0,0,0,0
62.64,0.008962,2.478,0.00039092,0,0,0,0
63.14,0.00914,2.4977,0.00010899,0,0,0,0
63.64,0.009491,2.5179,0.00030795,0,0,0,0
64.14,0.009922,2.5369,0.00023797,0,0,0,0
64.64,0.010279,2.5596,0.00036093,0,0,0,0
65.14,0.010666,2.5807,0.00040692,0,0,0,0
65.64,0.011196,2.6009,0.00034394,0,0,0,0
66.14,0.011378,2.6196,0.00017199,0,0,0,0
66.64,0.011855,2.6404,0.00031795,0,0,0,0
67.14,0.011613,2.6609,0.00047689,0,0,0,0
67.64,0.01164,2.6821,0.0004499,0,0,0,0
68.14,0.011276,2.7026,0.00018198,0,0,0,0
68.64,0.011137,2.7234,0.00023797,0,0,0,0
69.14,0.011127,2.7421,-8.6004e-05,0,0,0,0
69.64,0.010756,2.762,0.00014199,0,0,0,0
70.14,0.010882,2.7824,6.9998e-05,0,0,0,0
70.64,0.010832,2.8044,7.2997e-05,0,0,0,0
71.14,0.010488,2.8234,3e-05,0,0,0,0
71.64,0.010769,2.8437,-1.7e-05,0,0,0,0
72.14,0.010623,2.8633,3e-05,0,0,0,0
72.64,0.010964,2.8836,7.5997e-05,0,0,0,0
73.14,0.011097,2.9026,0.00029796,0,0,0,0
73.64,0.011458,2.9246,0.00029496,0,0,0,0
74.14,0.011799,2.9453,0.00040392,0,0,0,0
74.64,0.012365,2.9653,0.00041391,0,0,0,0
75.14,0.012712,2.9841,0.00036693,0,0,0,0
75.64,0.013113,3.0051,0.00032395,0,0,0,0
76.14,0.013547,3.0256,0.00050987,0,0,0,0
76.64,0.013514,3.0461,0.00024497,0,0,0,0
77.14,0.013696,3.0659,0.00038693,0,0,0,0
77.64,0.013699,3.0867,0.00035394,0,0,0,0
78.14,0.013669,3.1059,0.00026496,0,0,0,0
78.64,0.01357,3.126,0.00018198,0,0,0,0
79.14,0.013302,3.1464,-7e-06,0,0,0,0
79.64,0.013083,3.1684,3.5999e-05,0,0,0,0
80.14,0.012924,3.1874,2.3e-05,0,0,0,0
80.64,0.0126,3.2077,-3.6001e-05,0,0,0,0
81.14,0.012736,3.227,0.00019198,0,0,0,0
81.64,0.012716,3.2469,0.00022497,0,0,0,0
82.14,0.012689,3.2656,1.3e-05,0,0,0,0
82.64,0.012967,3.2873,8.5996e-05,0,0,0,0
83.14,0.01304,3.3076,0.00030095,0,0,0,0
83.64,0.013345,3.3276,0.00029496,0,0,0,0
84.14,0.013908,3.3466,0.00029796,0,0,0,0
84.64,0.014404,3.3671,0.0004439,0,0,0,0
85.14,0.014811,3.3866,0.0004569,0,0,0,0
85.64,0.015043,3.4064,0.00050687,0,0,0,0
86.14,0.015609,3.4259,0.00046689,0,0,0,0
86.64,0.015781,3.4461,0.00038693,0,0,0,0
87.14,0.01592,3.4647,0.00046989,0,0,0,0
87.64,0.016172,3.4844,0.00040092,0,0,0,0
88.14,0.016013,3.5047,0.00057883,0,0,0,0
88.64,0.015877,3.5264,0.00017598,0,0,0,0
89.14,0.015675,3.5451,0.00036393,0,0,0,0
89.64,0.015152,3.565,0.00028096,0,0,0,0
90.14,0.015169,3.584,0.00026496,0,0,0,0
90.64,0.014838,3.6036,0.00023197,0,0,0,0
91.14,0.014831,3.6219,0.00016199,0,0,0,0
91.64,0.014907,3.6436,0.00026197,0,0,0,0
92.14,0.014848,3.664,0.00035794,0,0,0,0
92.64,0.015086,3.6836,0.00031795,0,0,0,0
93.14,0.015245,3.7016,0.0004399,0,0,0,0
93.64,0.015407,3.7217,0.00042991,0,0,0,0
94.14,0.015917,3.7416,0.00039392,0,0,0,0
94.64,0.016503,3.7621,0.00040392,0,0,0,0
95.14,0.016827,3.7819,0.00057284,0,0,0,0
95.64,0.017367,3.8021,0.00069876,0,0,0,0
96.14,0.017642,3.8204,0.00074472,0,0,0,0
96.64,0.018079,3.84,0.0006318,0,0,0,0
97.14,0.018009,3.8601,0.00069876,0,0,0,0
97.64,0.018254,3.8814,0.00072474,0,0,0,0
98.14,0.018344,3.8997,0.00082366,0,0,0,0
98.64,0.018095,3.9194,0.00060282,0,0,0,0
99.14,0.017874,3.9383,0.00055585,0,0,0,0
99.64,0.017741,3.9579,0.00051687,0,0,0,0
100.14,0.017556,3.9766,0.00060282,0,0,0,0
100.64,0.017235,3.9983,0.0004569,0,0,0,0
101.14,0.017036,4.0183,0.00045989,0,0,0,0
101.64,0.017241,4.0376,0.0004399,0,0,0,0
102.14,0.017003,4.0559,0.0004399,0,0,0,0
102.64,0.017281,4.0761,0.00035794,0,0,0,0
103.14,0.017685,4.0959,0.0004499,0,0,0,0
103.64,0.017973,4.1161,0.00053586,0,0,0,0
104.14,0.018211,4.1356,0.00057883,0,0,0,0
104.64,0.019046,4.1554,0.00066478,0,0,0,0
105.14,0.019469,4.1737,0.0007747,0,0,0,0
105.64,0.019827,4.1934,0.00076771,0,0,0,0
106.14,0.020277,4.2137,0.00076771,0,0,0,0
106.64,0.020479,4.2351,0.00074772,0,0,0,0
107.14,0.020502,4.2534,0.00092957,0,0,0,0
107.64,0.020814,4.273,0.0010025,0,0,0,0
108.14,0.020671,4.292,0.00079468,0,0,0,0
108.64,0.0208,4.3116,0.0006288,0,0,0,0
109.14,0.020449,4.3293,0.00076071,0,0,0,0
109.64,0.020396,4.3501,0.00043091,0,0,0,0
110.14,0.020039,4.37,0.00069476,0,0,0,0
110.64,0.020029,4.3896,0.00056284,0,0,0,0
111.14,0.01993,4.4079,0.00052986,0,0,0,0
111.64,0.019599,4.4281,0.0006288,0,0,0,0
112.14,0.019897,4.4473,0.00066178,0,0,0,0
112.64,0.019996,4.467,0.00056284,0,0,0,0
113.14,0.020261,4.4863,0.00076171,0,0,0,0
113.64,0.020823,4.5064,0.00069476,0,0,0,0
114.14,0.021088,4.5244,0.00082766,0,0,0,0
114.64,0.021784,4.5437,0.00082766,0,0,0,0
115.14,0.022214,4.5634,0.0010255,0,0,0,0
115.64,0.022512,4.5844,0.00082766,0,0,0,0
116.14,0.02281,4.6024,0.00092657,0,0,0,0
116.64,0.023008,4.6217,0.0011254,0,0,0,0
117.14,0.023273,4.6403,0.0010584,0,0,0,0
117.64,0.023505,4.6593,0.00099251,0,0,0,0
118.14,0.023406,4.6771,0.0011254,0,0,0,0
118.64,0.023604,4.698,0.00092657,0,0,0,0
119.14,0.023505,4.7176,0.00072774,0,0,0,0
119.64,0.023406,4.7366,0.00079468,0,0,0,0
120.14,0.023373,4.7543,0.00079468,0,0,0,0
120.64,0.022975,4.7737,0.00079468,0,0,0,0
121.14,0.023042,4.7926,0.00069476,0,0,0,0
121.64,0.023108,4.8121,0.00079468,0,0,0,0
122.14,0.023042,4.8311,0.00082766,0,0,0,0
122.64,0.023273,4.8509,0.00092657,0,0,0,0
123.14,0.023439,4.8687,0.00076071,0,0,0,0
123.64,0.023869,4.8877,0.00079468,0,0,0,0
124.14,0.024399,4.9074,0.00082766,0,0,0,0
124.64,0.024664,4.9281,0.00095954,0,0,0,0
125.14,0.02526,4.9457,0.00092657,0,0,0,0
125.64,0.025524,4.9644,0.0010255,0,0,0,0
126.14,0.025822,4.9826,0.0011254,0,0,0,0
126.64,0.02622,5.0013,0.0012572,0,0,0,0
127.14,0.026385,5.0189,0.00099251,0,0,0,0
127.64,0.02665,5.0396,0.001389,0,0,0,0
128.14,0.026716,5.059,0.0011254,0,0,0,0
128.64,0.026882,5.0776,0.0010584,0,0,0,0
129.14,0.027047,5.0949,0.0011254,0,0,0,0
129.64,0.026948,5.1141,0.0010584,0,0,0,0
130.14,0.027047,5.1329,0.00095954,0,0,0,0
130.64,0.026981,5.1521,0.00076171,0,0,0,0
131.14,0.027114,5.1709,0.00086063,0,0,0,0
131.64,0.027147,5.1904,0.00079468,0,0,0,0
132.14,0.027378,5.2081,0.00082766,0,0,0,0
132.64,0.027246,5.227,0.00086063,0,0,0,0
133.14,0.027709,5.2461,0.00079468,0,0,0,0
133.64,0.028173,5.2664,0.00086063,0,0,0,0
134.14,0.028405,5.2837,0.00099251,0,0,0,0
134.64,0.028835,5.3027,0.0010255,0,0,0,0
135.14,0.029067,5.321,0.0011254,0,0,0,0
135.64,0.02953,5.3396,0.0010255,0,0,0,0
136.14,0.029894,5.3566,0.0012902,0,0,0,0
136.64,0.030159,5.3769,0.0011913,0,0,0,0
137.14,0.030358,5.3963,0.0013561,0,0,0,0
137.64,0.03049,5.4153,0.001423,0,0,0,0
138.14,0.030888,5.4326,0.0014889,0,0,0,0
138.64,0.031186,5.4514,0.0015218,0,0,0,0
139.14,0.031417,5.4699,0.0014559,0,0,0,0
139.64,0.031484,5.4891,0.0012572,0,0,0,0
140.14,0.031583,5.5079,0.0010924,0,0,0,0
140.64,0.031881,5.5271,0.0010924,0,0,0,0
141.14,0.032179,5.5444,0.0011913,0,0,0,0
141.64,0.032642,5.5624,0.0011583,0,0,0,0
142.14,0.032708,5.581,0.0010594,0,0,0,0
142.64,0.03304,5.6011,0.0011254,0,0,0,0
143.14,0.033304,5.6184,0.0012243,0,0,0,0
143.64,0.033834,5.6367,0.0013231,0,0,0,0
144.14,0.034099,5.6543,0.0013571,0,0,0,0
144.64,0.034231,5.6723,0.001423,0,0,0,0
145.14,0.034629,5.6891,0.0015548,0,0,0,0
145.64,0.034761,5.709,0.0015548,0,0,0,0
146.14,0.035192,5.7276,0.0017535,0,0,0,0
146.64,0.035456,5.7453,0.0018852,0,0,0,0
147.14,0.035688,5.7616,0.0018193,0,0,0,0
147.64,0.036052,5.7797,0.0018852,0,0,0,0
148.14,0.036284,5.7976,0.0022155,0,0,0,0
148.64,0.036615,5.8161,0.002018,0,0,0,0
149.14,0.037079,5.8339,0.002018,0,0,0,0
149.64,0.037642,5.8519,0.0018193,0,0,0,0
150.14,0.038171,5.8683,0.0017864,0,0,0,0
150.64,0.038469,5.8861,0.0017535,0,0,0,0
151.14,0.038867,5.9047,0.0017864,0,0,0,0
151.64,0.039661,5.9239,0.0015548,0,0,0,0
152.14,0.040257,5.9397,0.0017535,0,0,0,0
152.64,0.040489,5.9567,0.0017535,0,0,0,0
153.14,0.041184,5.9733,0.0017864,0,0,0,0
153.64,0.041615,5.9906,0.0018523,0,0,0,0
154.14,0.041846,6.0069,0.0018852,0,0,0,0
154.64,0.042078,6.026,0.0019521,0,0,0,0
155.14,0.042045,6.0436,0.0021836,0,0,0,0
155.64,0.04231,6.0606,0.0020838,0,0,0,0
156.14,0.042542,6.0766,0.0021497,0,0,0,0
156.64,0.042873,6.0941,0.0025138,0,0,0,0
157.14,0.043105,6.1109,0.0027442,0,0,0,0
157.64,0.043568,6.1281,0.0028769,0,0,0,0
158.14,0.043899,6.1451,0.0028769,0,0,0,0
158.64,0.044297,6.1629,0.0029756,0,0,0,0
159.14,0.044926,6.1787,0.0029427,0,0,0,0
159.64,0.045521,6.1954,0.0029427,0,0,0,0
160.14,0.046184,6.2127,0.0026784,0,0,0,0
160.64,0.047243,6.2309,0.0026784,0,0,0,0
161.14,0.048038,6.2463,0.0025797,0,0,0,0
161.64,0.048998,6.2629,0.0025468,0,0,0,0
162.14,0.04966,6.2789,0.0025468,0,0,0,0
162.64,0.050421,6.2956,0.0026126,0,0,0,0
163.14,0.051117,6.3113,0.0026126,0,0,0,0
163.64,0.051746,6.3293,0.0025468,0,0,0,0
164.14,0.052077,6.3459,0.0027452,0,0,0,0
164.64,0.052573,6.3611,0.0027442,0,0,0,0
165.14,0.052706,6.3759,0.0029756,0,0,0,0
165.64,0.052971,6.3921,0.0032397,0,0,0,0
166.14,0.053136,6.4097,0.0033394,0,0,0,0
166.64,0.053765,6.4264,0.0035696,0,0,0,0
167.14,0.053832,6.4436,0.0037021,0,0,0,0
167.64,0.054361,6.4603,0.0038665,0,0,0,0
168.14,0.05509,6.4756,0.0039323,0,0,0,0
168.64,0.055752,6.4896,0.0040319,0,0,0,0
169.14,0.056579,6.5046,0.0042619,0,0,0,0
169.64,0.05744,6.5211,0.004229,0,0,0,0
170.14,0.058466,6.5369,0.0040647,0,0,0,0
170.64,0.05936,6.5537,0.0039661,0,0,0,0
171.14,0.060254,6.5691,0.0039323,0,0,0,0
171.64,0.061181,6.5843,0.0037679,0,0,0,0
172.14,0.06181,6.5989,0.0038346,0,0,0,0
172.64,0.062671,6.6151,0.0039333,0,0,0,0
173.14,0.063366,6.6309,0.0038008,0,0,0,0
173.64,0.063896,6.6469,0.0039333,0,0,0,0
174.14,0.064657,6.6613,0.0040319,0,0,0,0
174.64,0.065187,6.6766,0.003999,0,0,0,0
175.14,0.065618,6.6914,0.0041633,0,0,0,0
175.64,0.067173,6.7076,0.004461,0,0,0,0
176.14,0.067637,6.7233,0.0047238,0,0,0,0
176.64,0.068432,6.7399,0.0050204,0,0,0,0
177.14,0.069524,6.754,0.0051527,0,0,0,0
177.64,0.070683,6.768,0.0054491,0,0,0,0
178.14,0.071577,6.7819,0.0055804,0,0,0,0
178.64,0.072405,6.7971,0.0059433,0,0,0,0
179.14,0.073232,6.8121,0.0058439,0,0,0,0
179.64,0.074126,6.8287,0.0060417,0,0,0,0
180.14,0.074623,6.8441,0.0059751,0,0,0,0
180.64,0.075517,6.8587,0.0059095,0,0,0,0
181.14,0.075914,6.8724,0.005647,0,0,0,0
181.64,0.076543,6.8876,0.0055804,0,0,0,0
182.14,0.077437,6.9021,0.0054491,0,0,0,0
182.64,0.078132,6.9171,0.0055158,0,0,0,0
183.14,0.078861,6.9307,0.0054163,0,0,0,0
183.64,0.079854,6.9451,0.0054491,0,0,0,0
184.14,0.080715,6.96,0.005647,0,0,0,0
184.64,0.081675,6.9759,0.0055814,0,0,0,0
185.14,0.082867,6.9893,0.0058777,0,0,0,0
185.64,0.08429,7.0036,0.0060089,0,0,0,0
186.14,0.085648,7.0174,0.0063707,0,0,0,0
186.64,0.086707,7.0314,0.0066012,0,0,0,0
187.14,0.088164,7.0444,0.0067333,0,0,0,0
187.64,0.089223,7.0586,0.0072914,0,0,0,0
188.14,0.090316,7.0724,0.0077191,0,0,0,0
188.64,0.091276,7.0874,0.0078501,0,0,0,0
189.14,0.092004,7.1017,0.0078838,0,0,0,0
189.64,0.092931,7.1154,0.0080148,0,0,0,0
190.14,0.093792,7.1281,0.0080485,0,0,0,0
190.64,0.094752,7.1421,0.0079166,0,0,0,0
191.14,0.095414,7.1561,0.0076536,0,0,0,0
191.64,0.096275,7.1706,0.0072606,0,0,0,0
192.14,0.097269,7.1833,0.0075891,0,0,0,0
192.64,0.098659,7.1966,0.0073916,0,0,0,0
193.14,0.099785,7.2103,0.0071613,0,0,0,0
193.64,0.10091,7.2251,0.0072606,0,0,0,0
194.14,0.10214,7.238,0.0073589,0,0,0,0
194.64,0.103,7.2513,0.0075891,0,0,0,0
195.14,0.10419,7.2637,0.0076546,0,0,0,0
195.64,0.10525,7.2767,0.0079176,0,0,0,0
196.14,0.10601,7.2891,0.0083114,0,0,0,0
196.64,0.10727,7.3037,0.0085087,0,0,0,0
197.14,0.1079,7.3174,0.008935,0,0,0,0
197.64,0.10892,7.3304,0.009361,0,0,0,0
198.14,0.10969,7.3424,0.0095582,0,0,0,0
198.64,0.11064,7.3556,0.010018,0,0,0,0
199.14,0.1119,7.3687,0.0099523,0,0,0,0
199.64,0.11303,7.3823,0.010182,0,0,0,0
200.14,0.11419,7.3954,0.010018,0,0,0,0
200.64,0.11584,7.4086,0.009985,0,0,0,0
201.14,0.11746,7.4206,0.0099523,0,0,0,0
201.64,0.11899,7.4333,0.009888,0,0,0,0
202.14,0.12031,7.4463,0.0097236,0,0,0,0
202.64,0.1218,7.4601,0.0096582,0,0,0,0
203.14,0.12283,7.472,0.0093957,0,0,0,0
203.64,0.12409,7.4846,0.0091996,0,0,0,0
204.14,0.12515,7.4967,0.009364,0,0,0,0
204.64,0.12634,7.5094,0.0094958,0,0,0,0
205.14,0.12717,7.5211,0.0095602,0,0,0,0
205.64,0.12813,7.5344,0.0097572,0,0,0,0
206.14,0.12922,7.547,0.010119,0,0,0,0
206.64,0.13058,7.5594,0.010315,0,0,0,0
207.14,0.1321,7.5714,0.010741,0,0,0,0
207.64,0.13336,7.5843,0.011396,0,0,0,0
208.14,0.13445,7.5964,0.011559,0,0,0,0
208.64,0.13597,7.6089,0.011854,0,0,0,0
209.14,0.13726,7.6211,0.01205,0,0,0,0
209.64,0.13849,7.6339,0.012345,0,0,0,0
210.14,0.13985,7.6453,0.012279,0,0,0,0
210.64,0.14087,7.6573,0.012182,0,0,0,0
211.14,0.14173,7.6696,0.012116,0,0,0,0
211.64,0.14303,7.6829,0.012084,0,0,0,0
212.14,0.14392,7.6943,0.011921,0,0,0,0
212.64,0.14495,7.7063,0.011823,0,0,0,0
213.14,0.14607,7.7177,0.011463,0,0,0,0
213.64,0.14736,7.7294,0.011593,0,0,0,0
214.14,0.14872,7.7404,0.011562,0,0,0,0
214.64,0.15014,7.7531,0.011595,0,0,0,0
215.14,0.15163,7.7653,0.011725,0,0,0,0
215.64,0.15349,7.7771,0.012019,0,0,0,0
216.14,0.15541,7.7881,0.012215,0,0,0,0
216.64,0.1568,7.8001,0.012739,0,0,0,0
217.14,0.15835,7.8121,0.01313,0,0,0,0
217.64,0.15975,7.8246,0.013392,0,0,0,0
218.14,0.161,7.8364,0.013686,0,0,0,0
218.64,0.16236,7.8486,0.013915,0,0,0,0
219.14,0.16345,7.8593,0.014144,0,0,0,0
219.64,0.16504,7.8706,0.014632,0,0,0,0
220.14,0.1662,7.8823,0.014665,0,0,0,0
220.64,0.16739,7.8951,0.014631,0,0,0,0
221.14,0.16915,7.906,0.01447,0,0,0,0
221.64,0.17047,7.9173,0.014632,0,0,0,0
222.14,0.17253,7.9277,0.014241,0,0,0,0
222.64,0.17352,7.9387,0.013981,0,0,0,0
223.14,0.176,7.9494,0.01398,0,0,0,0
223.64,0.17726,7.9621,0.013851,0,0,0,0
224.14,0.17898,7.9737,0.013916,0,0,0,0
224.64,0.18037,7.9847,0.014078,0,0,0,0
225.14,0.18143,7.9951,0.014046,0,0,0,0
225.64,0.18269,8.0069,0.014177,0,0,0,0
226.14,0.18378,8.0181,0.014732,0,0,0,0
226.64,0.18501,8.0296,0.015188,0,0,0,0
227.14,0.18633,8.0404,0.015513,0,0,0,0
227.64,0.18759,8.0516,0.015643,0,0,0,0
228.14,0.18891,8.0619,0.016197,0,0,0,0
228.64,0.19024,8.073,0.01636,0,0,0,0
229.14,0.19203,8.0843,0.01675,0,0,0,0
229.64,0.19372,8.0959,0.01688,0,0,0,0
230.14,0.1956,8.1056,0.017076,0,0,0,0
230.64,0.19733,8.116,0.017109,0,0,0,0
231.14,0.19891,8.1263,0.016881,0,0,0,0
231.64,0.20034,8.1371,0.016947,0,0,0,0
232.14,0.20173,8.1474,0.016913,0,0,0,0
232.64,0.20285,8.1591,0.016751,0,0,0,0
233.14,0.20448,8.1697,0.016621,0,0,0,0
233.64,0.20583,8.1797,0.016589,0,0,0,0
234.14,0.20726,8.1894,0.016817,0,0,0,0
234.64,0.20878,8.2003,0.016654,0,0,0,0
235.14,0.2104,8.2107,0.016687,0,0,0,0
235.64,0.21206,8.2213,0.016948,0,0,0,0
236.14,0.21414,8.2314,0.01724,0,0,0,0
236.64,0.216,8.2419,0.017403,0,0,0,0
237.14,0.21815,8.2516,0.017922,0,0,0,0
237.64,0.21997,8.2617,0.018183,0,0,0,0
238.14,0.22123,8.2721,0.018539,0,0,0,0
238.64,0.22308,8.2833,0.018833,0,0,0,0
239.14,0.22451,8.2929,0.01906,0,0,0,0
239.64,0.2261,8.303,0.019157,0,0,0,0
240.14,0.22736,8.3127,0.019254,0,0,0,0
240.64,0.22875,8.3224,0.019449,0,0,0,0
241.14,0.23027,8.3314,0.019579,0,0,0,0
241.64,0.23192,8.3424,0.019579,0,0,0,0
242.14,0.23375,8.3527,0.019482,0,0,0,0
242.64,0.2352,8.3627,0.019288,0,0,0,0
243.14,0.23769,8.3721,0.019483,0,0,0,0
243.64,0.23947,8.3826,0.01932,0,0,0,0
244.14,0.2411,8.3921,0.019515,0,0,0,0
244.64,0.24302,8.4021,0.019484,0,0,0,0
245.14,0.24441,8.4119,0.019484,0,0,0,0
245.64,0.2457,8.4219,0.019612,0,0,0,0
246.14,0.24712,8.4306,0.019743,0,0,0,0
246.64,0.24845,8.44,0.020132,0,0,0,0
247.14,0.24984,8.4499,0.020359,0,0,0,0
247.64,0.25136,8.4606,0.020651,0,0,0,0
248.14,0.25272,8.4696,0.020879,0,0,0,0
248.64,0.25444,8.479,0.021235,0,0,0,0
249.14,0.25616,8.488,0.021559,0,0,0,0
249.64,0.25834,8.4974,0.021591,0,0,0,0
250.14,0.26017,8.5061,0.02198,0,0,0,0
250.64,0.26215,8.5164,0.022109,0,0,0,0
251.14,0.26384,8.5263,0.02211,0,0,0,0
251.64,0.26566,8.5359,0.022077,0,0,0,0
252.14,0.26735,8.5444,0.022141,0,0,0,0
252.64,0.26891,8.5539,0.022109,0,0,0,0
253.14,0.27036,8.5634,0.022272,0,0,0,0
253.64,0.27232,8.5733,0.022208,0,0,0,0
254.14,0.27361,8.5824,0.022434,0,0,0,0
254.64,0.27526,8.5919,0.022434,0,0,0,0
255.14,0.27729,8.6006,0.022628,0,0,0,0
255.64,0.27924,8.6097,0.022823,0,0,0,0
256.14,0.28126,8.6189,0.022953,0,0,0,0
256.64,0.28324,8.6286,0.023083,0,0,0,0
257.14,0.28543,8.6369,0.023276,0,0,0,0
257.64,0.28745,8.6457,0.02347,0,0,0,0
258.14,0.28934,8.6543,0.023728,0,0,0,0
258.64,0.29116,8.6631,0.023858,0,0,0,0
259.14,0.29288,8.6714,0.024213,0,0,0,0
259.64,0.29444,8.6811,0.024343,0,0,0,0
260.14,0.29606,8.6903,0.024697,0,0,0,0
260.64,0.29798,8.6991,0.024924,0,0,0,0
261.14,0.2997,8.7074,0.025182,0,0,0,0
261.64,0.30159,8.7166,0.025021,0,0,0,0
262.14,0.30354,8.7254,0.025344,0,0,0,0
262.64,0.30573,8.7346,0.025248,0,0,0,0
263.14,0.30811,8.7434,0.025377,0,0,0,0
263.64,0.31003,8.7526,0.025474,0,0,0,0
264.14,0.31195,8.7606,0.025668,0,0,0,0
264.64,0.31384,8.7687,0.02583,0,0,0,0
265.14,0.31563,8.7771,0.025895,0,0,0,0
265.64,0.31705,8.7866,0.025895,0,0,0,0
266.14,0.31871,8.7949,0.026282,0,0,0,0
266.64,0.3203,8.8034,0.026346,0,0,0,0
267.14,0.32188,8.8116,0.026637,0,0,0,0
267.64,0.32371,8.8199,0.026767,0,0,0,0
268.14,0.32553,8.8277,0.026799,0,0,0,0
268.64,0.32758,8.8369,0.027216,0,0,0,0
269.14,0.32933,8.8456,0.027378,0,0,0,0
269.64,0.33162,8.8541,0.027604,0,0,0,0
270.14,0.33377,8.8621,0.0277,0,0,0,0
270.64,0.33569,8.8706,0.027958,0,0,0,0
271.14,0.33751,8.8787,0.028152,0,0,0,0
271.64,0.33914,8.8876,0.028182,0,0,0,0
272.14,0.34089,8.8961,0.028473,0,0,0,0
272.64,0.34281,8.9046,0.02857,0,0,0,0
273.14,0.34433,8.9119,0.028698,0,0,0,0
273.64,0.34632,8.9197,0.028893,0,0,0,0
274.14,0.34811,8.9281,0.029214,0,0,0,0
274.64,0.35006,8.9373,0.029182,0,0,0,0
275.14,0.35241,8.9446,0.029407,0,0,0,0
275.64,0.3545,8.952,0.029312,0,0,0,0
276.14,0.35672,8.9593,0.029698,0,0,0,0
276.64,0.35897,8.9674,0.02973,0,0,0,0
277.14,0.36086,8.9751,0.030052,0,0,0,0
277.64,0.36291,8.9841,0.030149,0,0,0,0
278.14,0.3648,8.9923,0.030309,0,0,0,0
278.64,0.36675,9.0001,0.030598,0,0,0,0
279.14,0.36837,9.0074,0.03063,0,0,0,0
279.64,0.37026,9.0156,0.03095,0,0,0,0
280.14,0.37238,9.0234,0.031144,0,0,0,0
280.64,0.37433,9.0313,0.031272,0,0,0,0
281.14,0.37652,9.0387,0.031432,0,0,0,0
281.64,0.37897,9.0463,0.031625,0,0,0,0
282.14,0.38148,9.0534,0.031883,0,0,0,0
282.64,0.38374,9.0611,0.032106,0,0,0,0
283.14,0.38566,9.0691,0.032074,0,0,0,0
283.64,0.38764,9.0773,0.032332,0,0,0,0
284.14,0.38983,9.0841,0.03262,0,0,0,0
284.64,0.39155,9.0914,0.032814,0,0,0,0
285.14,0.3934,9.0989,0.033038,0,0,0,0
285.64,0.39522,9.1066,0.03307,0,0,0,0
286.14,0.39715,9.1137,0.0332,0,0,0,0
286.64,0.39913,9.1219,0.033522,0,0,0,0
287.14,0.40138,9.1296,0.033553,0,0,0,0
287.64,0.4037,9.1371,0.033906,0,0,0,0
288.14,0.40625,9.1441,0.034193,0,0,0,0
288.64,0.4083,9.1519,0.034226,0,0,0,0
289.14,0.41046,9.1591,0.034418,0,0,0,0
289.64,0.41261,9.1666,0.034641,0,0,0,0
290.14,0.41453,9.1734,0.034833,0,0,0,0
290.64,0.41638,9.1809,0.035025,0,0,0,0
291.14,0.41784,9.1876,0.035155,0,0,0,0
291.64,0.41989,9.1947,0.035218,0,0,0,0
292.14,0.42171,9.2019,0.035601,0,0,0,0
292.64,0.42373,9.2099,0.035826,0,0,0,0
293.14,0.42569,9.2169,0.03608,0,0,0,0
293.64,0.42794,9.2244,0.036208,0,0,0,0
294.14,0.43032,9.2316,0.036432,0,0,0,0
294.64,0.43254,9.2386,0.036495,0,0,0,0
295.14,0.43509,9.2447,0.036847,0,0,0,0
295.64,0.43694,9.2521,0.036657,0,0,0,0
296.14,0.4388,9.2596,0.037232,0,0,0,0
296.64,0.44092,9.2669,0.03736,0,0,0,0
297.14,0.44281,9.2734,0.037456,0,0,0,0
297.64,0.44449,9.2806,0.037678,0,0,0,0
298.14,0.44648,9.2874,0.037903,0,0,0,0
298.64,0.4485,9.2946,0.038253,0,0,0,0
299.14,0.45082,9.3014,0.038476,0,0,0,0
299.64,0.45317,9.3083,0.038605,0,0,0,0
300.14,0.45568,9.3144,0.038668,0,0,0,0
300.64,0.45807,9.3211,0.038987,0,0,0,0
301.14,0.46029,9.3281,0.03924,0,0,0,0
301.64,0.46267,9.3356,0.039399,0,0,0,0
302.14,0.46466,9.3419,0.03956,0,0,0,0
302.64,0.46661,9.3484,0.039687,0,0,0,0
303.14,0.46866,9.3549,0.040036,0,0,0,0
303.64,0.47048,9.3616,0.040131,0,0,0,0
304.14,0.47277,9.3677,0.04026,0,0,0,0
304.64,0.47472,9.3749,0.040512,0,0,0,0
305.14,0.47701,9.3819,0.040606,0,0,0,0
305.64,0.47952,9.3886,0.040926,0,0,0,0
306.14,0.48204,9.3944,0.040894,0,0,0,0
306.64,0.48475,9.4009,0.041275,0,0,0,0
307.14,0.48694,9.4074,0.041596,0,0,0,0
307.64,0.48923,9.4146,0.041849,0,0,0,0
308.14,0.49141,9.4209,0.042071,0,0,0,0
308.64,0.4935,9.4266,0.042294,0,0,0,0
309.14,0.49565,9.4329,0.042643,0,0,0,0
309.64,0.49767,9.4396,0.042834,0,0,0,0
310.14,0.49966,9.4461,0.043024,0,0,0,0
310.64,0.50167,9.4521,0.043437,0,0,0,0
311.14,0.50409,9.458,0.043595,0,0,0,0
311.64,0.50667,9.4641,0.043658,0,0,0,0
312.14,0.50922,9.4706,0.043814,0,0,0,0
312.64,0.51177,9.4769,0.044005,0,0,0,0
313.14,0.51409,9.4827,0.044227,0,0,0,0
313.64,0.51671,9.4899,0.044353,0,0,0,0
314.14,0.51873,9.4966,0.044385,0,0,0,0
314.64,0.52081,9.5029,0.044544,0,0,0,0
315.14,0.52283,9.5084,0.044733,0,0,0,0
315.64,0.52492,9.5146,0.044923,0,0,0,0
316.14,0.5269,9.5204,0.045114,0,0,0,0
316.64,0.52909,9.5266,0.045398,0,0,0,0
317.14,0.53151,9.5324,0.045652,0,0,0,0
317.64,0.53426,9.5386,0.046126,0,0,0,0
318.14,0.53657,9.5441,0.046283,0,0,0,0
318.64,0.53909,9.5501,0.046664,0,0,0,0
319.14,0.54108,9.5561,0.046821,0,0,0,0
319.64,0.54389,9.5626,0.0472,0,0,0,0
320.14,0.54591,9.5681,0.047485,0,0,0,0
320.64,0.54793,9.5741,0.047833,0,0,0,0
321.14,0.54985,9.5799,0.047957,0,0,0,0
321.64,0.55217,9.5859,0.048147,0,0,0,0
322.14,0.55406,9.5914,0.048463,0,0,0,0
322.64,0.55624,9.5979,0.048526,0,0,0,0
323.14,0.55859,9.6039,0.04843,0,0,0,0
323.64,0.56101,9.6096,0.04884,0,0,0,0
324.14,0.56373,9.6147,0.048745,0,0,0,0
324.64,0.56594,9.6203,0.048998,0,0,0,0
325.14,0.56866,9.626,0.049156,0,0,0,0
325.64,0.57074,9.6323,0.049377,0,0,0,0
326.14,0.57316,9.6384,0.049661,0,0,0,0
326.64,0.57498,9.6443,0.050008,0,0,0,0
327.14,0.5773,9.6494,0.050194,0,0,0,0
327.64,0.57929,9.6549,0.050541,0,0,0,0
328.14,0.58117,9.6604,0.050762,0,0,0,0
328.64,0.58349,9.6666,0.05117,0,0,0,0
329.14,0.58608,9.6719,0.051517,0,0,0,0
329.64,0.58863,9.6774,0.051894,0,0,0,0
330.14,0.59147,9.6829,0.052271,0,0,0,0
330.64,0.59389,9.6886,0.052397,0,0,0,0
331.14,0.59664,9.6937,0.052615,0,0,0,0
331.64,0.59886,9.6996,0.052929,0,0,0,0
332.14,0.60104,9.7051,0.053088,0,0,0,0
332.64,0.60316,9.7106,0.053213,0,0,0,0
333.14,0.60525,9.7157,0.053275,0,0,0,0
333.64,0.60743,9.7213,0.053495,0,0,0,0
334.14,0.60962,9.7267,0.053779,0,0,0,0
334.64,0.61207,9.732,0.053745,0,0,0,0
335.14,0.61488,9.737,0.05406,0,0,0,0
335.64,0.61743,9.7423,0.054247,0,0,0,0
336.14,0.62058,9.7474,0.054594,0,0,0,0
336.64,0.62303,9.7529,0.054814,0,0,0,0
337.14,0.62531,9.7584,0.055096,0,0,0,0
337.64,0.6277,9.7643,0.05538,0,0,0,0
338.14,0.63015,9.7691,0.055878,0,0,0,0
338.64,0.6322,9.7741,0.056255,0,0,0,0
339.14,0.63448,9.7791,0.056536,0,0,0,0
339.64,0.63684,9.7846,0.056599,0,0,0,0
340.14,0.63922,9.7894,0.057099,0,0,0,0
340.64,0.64154,9.7949,0.057411,0,0,0,0
341.14,0.64442,9.8001,0.057787,0,0,0,0
341.64,0.64737,9.8056,0.057911,0,0,0,0
342.14,0.65011,9.8101,0.057912,0,0,0,0
342.64,0.65263,9.8149,0.058193,0,0,0,0
343.14,0.65521,9.8197,0.058442,0,0,0,0
343.64,0.65733,9.825,0.058505,0,0,0,0
344.14,0.65992,9.8297,0.058818,0,0,0,0
344.64,0.66213,9.8346,0.058975,0,0,0,0
345.14,0.66412,9.8394,0.059257,0,0,0,0
345.64,0.6664,9.8443,0.059507,0,0,0,0
346.14,0.66895,9.849,0.059662,0,0,0,0
346.64,0.67183,9.8543,0.060068,0,0,0,0
347.14,0.67455,9.8591,0.060411,0,0,0,0
347.64,0.67727,9.8636,0.06066,0,0,0,0
348.14,0.67995,9.868,0.060941,0,0,0,0
348.64,0.68253,9.8733,0.06144,0,0,0,0
349.14,0.68505,9.8784,0.061563,0,0,0,0
349.64,0.6871,9.8836,0.061782,0,0,0,0
350.14,0.68929,9.8881,0.062092,0,0,0,0
350.64,0.69147,9.8926,0.062433,0,0,0,0
351.14,0.69395,9.8967,0.062621,0,0,0,0
351.64,0.69634,9.9016,0.062901,0,0,0,0
352.14,0.69915,9.9064,0.06287,0,0,0,0
352.64,0.70193,9.9119,0.063304,0,0,0,0
353.14,0.70481,9.9166,0.063586,0,0,0,0
353.64,0.70723,9.9211,0.063679,0,0,0,0
354.14,0.71001,9.9251,0.064269,0,0,0,0
354.64,0.7125,9.9301,0.064269,0,0,0,0
355.14,0.71478,9.9349,0.064673,0,0,0,0
355.64,0.7171,9.9396,0.064921,0,0,0,0
356.14,0.71922,9.9437,0.065357,0,0,0,0
356.64,0.72144,9.9483,0.065573,0,0,0,0
357.14,0.72372,9.9527,0.065821,0,0,0,0
357.64,0.7264,9.9573,0.066349,0,0,0,0
358.14,0.72945,9.9617,0.066566,0,0,0,0
358.64,0.73213,9.966,0.066938,0,0,0,0
359.14,0.73478,9.9703,0.067155,0,0,0,0
359.64,0.73763,9.975,0.067309,0,0,0,0
360.14,0.73991,9.9797,0.067834,0,0,0,0
360.64,0.74246,9.9843,0.068019,0,0,0,0
361.14,0.74451,9.9881,0.068237,0,0,0,0
361.64,0.7465,9.9921,0.068515,0,0,0,0
362.14,0.74889,9.9961,0.068731,0,0,0,0
362.64,0.7514,10.001,0.069074,0,0,0,0
363.14,0.75402,10.005,0.069445,0,0,0,0
363.64,0.75677,10.009,0.069505,0,0,0,0
364.14,0.75958,10.013,0.070001,0,0,0,0
364.64,0.76253,10.017,0.070248,0,0,0,0
365.14,0.76534,10.022,0.070496,0,0,0,0
365.64,0.76786,10.026,0.070987,0,0,0,0
366.14,0.77031,10.03,0.071297,0,0,0,0
366.64,0.77263,10.034,0.071573,0,0,0,0
367.14,0.77461,10.038,0.07182,0,0,0,0
367.64,0.77729,10.043,0.072343,0,0,0,0
368.14,0.77988,10.047,0.072621,0,0,0,0
368.64,0.78246,10.051,0.072775,0,0,0,0
369.14,0.78507,10.054,0.073082,0,0,0,0
369.64,0.78776,10.058,0.073576,0,0,0,0
370.14,0.79074,10.061,0.07373,0,0,0,0
370.64,0.79372,10.065,0.074038,0,0,0,0
371.14,0.7962,10.07,0.074222,0,0,0,0
371.64,0.79882,10.074,0.0745,0,0,0,0
372.14,0.8011,10.079,0.074991,0,0,0,0
372.64,0.80358,10.082,0.075114,0,0,0,0
373.14,0.80597,10.086,0.075607,0,0,0,0
373.64,0.80842,10.089,0.075822,0,0,0,0
374.14,0.81103,10.093,0.076252,0,0,0,0
374.64,0.81388,10.097,0.076438,0,0,0,0
375.14,0.8169,10.101,0.076805,0,0,0,0
375.64,0.81984,10.104,0.076989,0,0,0,0
376.14,0.82259,10.108,0.077355,0,0,0,0
376.64,0.82557,10.112,0.077722,0,0,0,0
377.14,0.82795,10.116,0.078062,0,0,0,0
377.64,0.83027,10.12,0.078367,0,0,0,0
378.14,0.83272,10.124,0.078703,0,0,0,0
378.64,0.8353,10.127,0.079163,0,0,0,0
379.14,0.83779,10.131,0.079438,0,0,0,0
379.64,0.8404,10.134,0.079743,0,0,0,0
380.14,0.84319,10.138,0.08005,0,0,0,0
380.64,0.84607,10.141,0.080446,0,0,0,0
381.14,0.84908,10.145,0.080845,0,0,0,0
381.64,0.85206,10.148,0.081121,0,0,0,0
382.14,0.85481,10.152,0.081487,0,0,0,0
382.64,0.85759,10.156,0.081822,0,0,0,0
383.14,0.85977,10.159,0.082251,0,0,0,0
383.64,0.86232,10.162,0.082617,0,0,0,0
384.14,0.86474,10.166,0.082739,0,0,0,0
384.64,0.86732,10.169,0.083077,0,0,0,0
385.14,0.86997,10.173,0.08338,0,0,0,0
385.64,0.87272,10.176,0.083624,0,0,0,0
386.14,0.87593,10.18,0.08387,0,0,0,0
386.64,0.87891,10.184,0.084357,0,0,0,0
387.14,0.88192,10.187,0.084478,0,0,0,0
387.64,0.88464,10.19,0.084965,0,0,0,0
388.14,0.88752,10.193,0.085361,0,0,0,0
388.64,0.88964,10.196,0.085756,0,0,0,0
389.14,0.89229,10.2,0.086244,0,0,0,0
389.64,0.89487,10.204,0.086546,0,0,0,0
390.14,0.89732,10.207,0.08691,0,0,0,0
390.64,0.8998,10.21,0.087396,0,0,0,0
391.14,0.90282,10.213,0.087608,0,0,0,0
391.64,0.90586,10.217,0.088093,0,0,0,0
392.14,0.90908,10.22,0.088395,0,0,0,0
392.64,0.91173,10.223,0.088941,0,0,0,0
393.14,0.91494,10.226,0.089213,0,0,0,0
393.64,0.91758,10.228,0.089577,0,0,0,0
394.14,0.9202,10.232,0.089972,0,0,0,0
394.64,0.92245,10.235,0.090245,0,0,0,0
395.14,0.92507,10.238,0.090698,0,0,0,0
395.64,0.92752,10.242,0.090849,0,0,0,0
396.14,0.9305,10.245,0.091094,0,0,0,0
396.64,0.93325,10.247,0.091547,0,0,0,0
397.14,0.93643,10.25,0.092031,0,0,0,0
397.64,0.93957,10.254,0.092393,0,0,0,0
398.14,0.94262,10.257,0.092818,0,0,0,0
398.64,0.94533,10.26,0.093121,0,0,0,0
399.14,0.94802,10.263,0.093572,0,0,0,0
399.64,0.95076,10.266,0.093935,0,0,0,0
400.14,0.95341,10.269,0.094174,0,0,0,0
400.64,0.95603,10.272,0.09481,0,0,0,0
401.14,0.95888,10.275,0.095262,0,0,0,0
401.64,0.96159,10.277,0.09547,0,0,0,0
402.14,0.96424,10.28,0.096074,0,0,0,0
402.64,0.96755,10.282,0.096464,0,0,0,0
403.14,0.97056,10.286,0.097032,0,0,0,0
403.64,0.97391,10.288,0.097276,0,0,0,0
404.14,0.97659,10.291,0.097783,0,0,0,0
404.64,0.97917,10.294,0.098237,0,0,0,0
405.14,0.98189,10.296,0.098595,0,0,0,0
405.64,0.98437,10.299,0.098746,0,0,0,0
406.14,0.98685,10.302,0.099316,0,0,0,0
406.64,0.98974,10.305,0.099828,0,0,0,0
407.14,0.99238,10.307,0.10025,0,0,0,0
407.64,0.99563,10.31,0.10031,0,0,0,0
408.14,0.99864,10.312,0.10094,0,0,0,0
408.64,1.0019,10.315,0.10145,0,0,0,0
409.14,1.005,10.317,0.10171,0,0,0,0
409.64,1.0079,10.32,0.10213,0,0,0,0
410.14,1.0106,10.322,0.10261,0,0,0,0
410.64,1.013,10.325,0.10294,0,0,0,0
411.14,1.0156,10.327,0.10348,0,0,0,0
411.64,1.0184,10.33,0.10378,0,0,0,0
412.14,1.021,10.332,0.10446,0,0,0,0
412.64,1.024,10.335,0.10482,0,0,0,0
413.14,1.027,10.337,0.10542,0,0,0,0
413.63,1.0304,10.339,0.1059,0,0,0,0
414.14,1.0334,10.342,0.10634,0,0,0,0
414.64,1.0364,10.344,0.10679,0,0,0,0
415.14,1.0394,10.347,0.10729,0,0,0,0
415.64,1.0419,10.349,0.10762,0,0,0,0
416.14,1.0445,10.351,0.10819,0,0,0,0
416.64,1.0472,10.353,0.10854,0,0,0,0
417.14,1.0497,10.355,0.10902,0,0,0,0
417.64,1.0524,10.358,0.10946,0,0,0,0
418.14,1.0557,10.36,0.10973,0,0,0,0
418.64,1.0589,10.362,0.11018,0,0,0,0
419.14,1.062,10.364,0.11062,0,0,0,0
419.63,1.0653,10.367,0.1111,0,0,0,0
420.14,1.0681,10.368,0.11148,0,0,0,0
420.63,1.0709,10.371,0.11219,0,0,0,0
421.14,1.0734,10.372,0.11231,0,0,0,0
421.63,1.0763,10.375,0.1132,0,0,0,0
422.13,1.0787,10.377,0.1135,0,0,0,0
422.64,1.0816,10.379,0.114,0,0,0,0
423.14,1.0846,10.381,0.11453,0,0,0,0
423.63,1.0875,10.383,0.11503,0,0,0,0
424.14,1.0906,10.385,0.11553,0,0,0,0
424.64,1.0941,10.387,0.1161,0,0,0,0
425.14,1.097,10.389,0.11651,0,0,0,0
425.64,1.1002,10.391,0.11701,0,0,0,0
426.14,1.1027,10.392,0.11742,0,0,0,0
426.64,1.1054,10.394,0.11789,0,0,0,0
427.14,1.108,10.396,0.1186,0,0,0,0
427.64,1.1106,10.398,0.11877,0,0,0,0
428.14,1.1135,10.4,0.11936,0,0,0,0
428.64,1.1166,10.401,0.11966,0,0,0,0
429.14,1.1199,10.403,0.1203,0,0,0,0
429.63,1.1231,10.405,0.12083,0,0,0,0
430.14,1.1264,10.407,0.12125,0,0,0,0
430.64,1.1295,10.408,0.12166,0,0,0,0
431.14,1.1321,10.41,0.12227,0,0,0,0
431.63,1.135,10.412,0.12274,0,0,0,0
432.14,1.1377,10.414,0.12315,0,0,0,0
432.63,1.1403,10.416,0.12386,0,0,0,0
433.14,1.1431,10.417,0.12456,0,0,0,0
433.63,1.1461,10.419,0.12517,0,0,0,0
434.13,1.1492,10.42,0.12567,0,0,0,0
434.63,1.1523,10.421,0.12634,0,0,0,0
435.14,1.1561,10.423,0.12669,0,0,0,0
435.63,1.159,10.425,0.12724,0,0,0,0
436.14,1.1621,10.426,0.12753,0,0,0,0
436.64,1.1648,10.428,0.1282,0,0,0,0
437.14,1.1677,10.429,0.12864,0,0,0,0
437.63,1.1703,10.43,0.12931,0,0,0,0
438.13,1.1733,10.432,0.12987,0,0,0,0
438.64,1.1761,10.433,0.13036,0,0,0,0
439.14,1.1792,10.434,0.13103,0,0,0,0
439.63,1.1824,10.436,0.13155,0,0,0,0
440.14,1.1857,10.437,0.13178,0,0,0,0
440.64,1.1892,10.438,0.13234,0,0,0,0
441.14,1.1919,10.439,0.13297,0,0,0,0
441.63,1.1951,10.441,0.13344,0,0,0,0
442.13,1.198,10.442,0.13413,0,0,0,0
442.64,1.2006,10.443,0.1346,0,0,0,0
443.14,1.2035,10.445,0.13549,0,0,0,0
443.63,1.2064,10.446,0.13604,0,0,0,0
444.14,1.2094,10.447,0.13665,0,0,0,0
444.63,1.2128,10.448,0.13729,0,0,0,0
445.14,1.2163,10.449,0.13807,0,0,0,0
445.63,1.2196,10.451,0.13862,0,0,0,0
446.14,1.2231,10.452,0.13931,0,0,0,0
446.63,1.2262,10.453,0.13991,0,0,0,0
447.14,1.2289,10.453,0.14061,0,0,0,0
447.63,1.2318,10.454,0.14109,0,0,0,0
448.13,1.2347,10.455,0.14187,0,0,0,0
448.64,1.2375,10.456,0.14222,0,0,0,0
449.13,1.2405,10.458,0.14299,0,0,0,0
449.63,1.2437,10.458,0.14345,0,0,0,0
450.14,1.2472,10.459,0.14417,0,0,0,0
450.63,1.2506,10.46,0.14451,0,0,0,0
451.14,1.2541,10.461,0.14526,0,0,0,0
451.63,1.2573,10.462,0.14583,0,0,0,0
452.13,1.2604,10.463,0.14666,0,0,0,0
452.64,1.2632,10.463,0.14717,0,0,0,0
453.14,1.2661,10.464,0.14789,0,0,0,0
453.63,1.2688,10.464,0.14872,0,0,0,0
454.14,1.2721,10.465,0.14952,0,0,0,0
454.63,1.2751,10.466,0.15012,0,0,0,0
455.13,1.2786,10.466,0.15083,0,0,0,0
455.64,1.282,10.467,0.15131,0,0,0,0
456.14,1.2856,10.467,0.15211,0,0,0,0
456.63,1.289,10.468,0.15288,0,0,0,0
457.13,1.2919,10.468,0.15333,0,0,0,0
457.63,1.2948,10.469,0.15387,0,0,0,0
458.14,1.298,10.469,0.15455,0,0,0,0
458.63,1.3007,10.47,0.15518,0,0,0,0
459.14,1.3038,10.47,0.1558,0,0,0,0
459.63,1.307,10.471,0.15657,0,0,0,0
460.14,1.3102,10.471,0.15722,0,0,0,0
460.63,1.3136,10.471,0.15776,0,0,0,0
461.13,1.3173,10.471,0.15852,0,0,0,0
461.63,1.3205,10.471,0.15934,0,0,0,0
462.13,1.3239,10.472,0.16005,0,0,0,0
462.63,1.3267,10.472,0.16072,0,0,0,0
463.13,1.3298,10.472,0.16148,0,0,0,0
463.63,1.3324,10.472,0.16219,0,0,0,0
464.13,1.3355,10.472,0.16303,0,0,0,0
464.63,1.3388,10.472,0.16354,0,0,0,0
465.14,1.3421,10.473,0.16441,0,0,0,0
465.64,1.3457,10.473,0.16528,0,0,0,0
466.13,1.3494,10.473,0.16587,0,0,0,0
466.63,1.3528,10.473,0.1666,0,0,0,0
467.13,1.3559,10.473,0.1675,0,0,0,0
467.63,1.359,10.473,0.16828,0,0,0,0
468.13,1.362,10.473,0.16896,0,0,0,0
468.63,1.3651,10.473,0.16982,0,0,0,0
469.14,1.368,10.472,0.17055,0,0,0,0
469.63,1.3711,10.472,0.17128,0,0,0,0
470.14,1.3745,10.472,0.17208,0,0,0,0
470.63,1.378,10.471,0.17286,0,0,0,0
471.13,1.3816,10.471,0.17364,0,0,0,0
471.63,1.3852,10.471,0.17429,0,0,0,0
472.14,1.3885,10.47,0.17495,0,0,0,0
472.63,1.3916,10.47,0.17576,0,0,0,0
473.13,1.3944,10.47,0.1764,0,0,0,0
473.63,1.3974,10.469,0.17728,0,0,0,0
474.13,1.4004,10.469,0.17809,0,0,0,0
474.63,1.4035,10.468,0.17909,0,0,0,0
475.13,1.407,10.468,0.17967,0,0,0,0
475.63,1.4104,10.468,0.18086,0,0,0,0
476.13,1.4143,10.467,0.18163,0,0,0,0
476.63,1.4179,10.467,0.1826,0,0,0,0
477.13,1.4212,10.466,0.18354,0,0,0,0
477.63,1.4243,10.465,0.18425,0,0,0,0
478.13,1.4274,10.465,0.18505,0,0,0,0
478.63,1.4305,10.464,0.18582,0,0,0,0
479.13,1.4337,10.463,0.18695,0,0,0,0
479.63,1.4367,10.462,0.18777,0,0,0,0
480.13,1.4403,10.461,0.18844,0,0,0,0
480.63,1.4437,10.46,0.18923,0,0,0,0
481.13,1.4474,10.46,0.19024,0,0,0,0
481.63,1.4512,10.459,0.19107,0,0,0,0
482.13,1.4545,10.457,0.19197,0,0,0,0
482.63,1.4577,10.456,0.19279,0,0,0,0
483.13,1.4607,10.455,0.19367,0,0,0,0
483.63,1.4639,10.454,0.19454,0,0,0,0
484.13,1.4669,10.453,0.1956,0,0,0,0
484.63,1.4703,10.452,0.19656,0,0,0,0
485.14,1.4736,10.45,0.19773,0,0,0,0
485.63,1.4772,10.449,0.19846,0,0,0,0
486.13,1.4812,10.448,0.19936,0,0,0,0
486.63,1.4848,10.447,0.20055,0,0,0,0
487.14,1.4879,10.445,0.2015,0,0,0,0
487.63,1.491,10.444,0.20239,0,0,0,0
488.13,1.4942,10.442,0.20342,0,0,0,0
488.63,1.4974,10.441,0.20437,0,0,0,0
489.13,1.5004,10.439,0.20529,0,0,0,0
489.63,1.5038,10.438,0.20628,0,0,0,0
490.13,1.5073,10.437,0.20717,0,0,0,0
490.63,1.5111,10.435,0.20814,0,0,0,0
491.13,1.5148,10.433,0.20932,0,0,0,0
491.63,1.5183,10.431,0.21002,0,0,0,0
492.13,1.5221,10.429,0.21112,0,0,0,0
492.63,1.5252,10.428,0.21222,0,0,0,0
493.13,1.5284,10.426,0.21329,0,0,0,0
493.63,1.5314,10.424,0.21421,0,0,0,0
494.13,1.5346,10.422,0.21538,0,0,0,0
494.63,1.538,10.42,0.2164,0,0,0,0
495.13,1.5417,10.418,0.21752,0,0,0,0
495.63,1.5456,10.416,0.21866,0,0,0,0
496.13,1.5495,10.413,0.2197,0,0,0,0
496.63,1.553,10.411,0.22076,0,0,0,0
497.13,1.5564,10.409,0.22172,0,0,0,0
497.64,1.5594,10.407,0.22299,0,0,0,0
498.13,1.5626,10.405,0.22397,0,0,0,0
498.63,1.5657,10.402,0.22498,0,0,0,0
499.13,1.5688,10.399,0.22612,0,0,0,0
499.63,1.5723,10.397,0.22741,0,0,0,0
500.13,1.5759,10.395,0.22831,0,0,0,0
500.63,1.58,10.393,0.22949,0,0,0,0
501.13,1.5837,10.39,0.23055,0,0,0,0
501.63,1.5871,10.387,0.23187,0,0,0,0
502.14,1.5904,10.385,0.23304,0,0,0,0
502.63,1.5937,10.382,0.2342,0,0,0,0
503.13,1.5968,10.38,0.23525,0,0,0,0
503.63,1.5999,10.377,0.23655,0,0,0,0
504.13,1.6033,10.374,0.2376,0,0,0,0
504.63,1.6068,10.371,0.23899,0,0,0,0
505.13,1.6106,10.368,0.23995,0,0,0,0
505.63,1.6143,10.365,0.24123,0,0,0,0
506.13,1.6182,10.363,0.2424,0,0,0,0
506.63,1.6216,10.359,0.24383,0,0,0,0
507.13,1.6249,10.356,0.24487,0,0,0,0
507.63,1.6283,10.353,0.24601,0,0,0,0
508.13,1.6313,10.35,0.24728,0,0,0,0
508.63,1.6346,10.347,0.24849,0,0,0,0
509.13,1.6379,10.344,0.24986,0,0,0,0
509.63,1.6413,10.341,0.25092,0,0,0,0
510.13,1.6452,10.337,0.25237,0,0,0,0
510.63,1.6491,10.334,0.25342,0,0,0,0
511.13,1.6528,10.331,0.25484,0,0,0,0
511.63,1.6564,10.327,0.25583,0,0,0,0
512.13,1.6595,10.324,0.25717,0,0,0,0
512.63,1.6629,10.32,0.25862,0,0,0,0
513.13,1.6662,10.317,0.25975,0,0,0,0
513.63,1.6694,10.312,0.26121,0,0,0,0
514.13,1.673,10.309,0.2622,0,0,0,0
514.63,1.6765,10.305,0.26355,0,0,0,0
515.13,1.6802,10.301,0.2648,0,0,0,0
515.63,1.6841,10.297,0.26597,0,0,0,0
516.13,1.6879,10.293,0.26739,0,0,0,0
516.63,1.6913,10.289,0.26876,0,0,0,0
517.13,1.6946,10.285,0.27005,0,0,0,0
517.63,1.6978,10.281,0.27155,0,0,0,0
518.13,1.7012,10.277,0.27286,0,0,0,0
518.63,1.7044,10.273,0.2744,0,0,0,0
519.13,1.7079,10.269,0.27566,0,0,0,0
519.63,1.7118,10.264,0.27692,0,0,0,0
520.13,1.7158,10.26,0.2781,0,0,0,0
520.63,1.7196,10.256,0.27955,0,0,0,0
521.13,1.7232,10.252,0.28098,0,0,0,0
521.63,1.727,10.247,0.2823,0,0,0,0
522.13,1.7302,10.242,0.28365,0,0,0,0
522.63,1.7335,10.237,0.28515,0,0,0,0
523.13,1.7368,10.232,0.28635,0,0,0,0
523.63,1.7401,10.227,0.28787,0,0,0,0
524.13,1.7439,10.223,0.28923,0,0,0,0
524.63,1.7478,10.218,0.2907,0,0,0,0
525.13,1.7517,10.214,0.29231,0,0,0,0
525.63,1.7557,10.208,0.29381,0,0,0,0
526.13,1.7593,10.204,0.29508,0,0,0,0
526.63,1.7629,10.198,0.29683,0,0,0,0
527.13,1.7661,10.193,0.2982,0,0,0,0
527.63,1.7695,10.187,0.29966,0,0,0,0
528.13,1.7728,10.182,0.30125,0,0,0,0
528.63,1.7766,10.176,0.30275,0,0,0,0
529.13,1.7804,10.171,0.30407,0,0,0,0
529.63,1.7843,10.165,0.30576,0,0,0,0
530.13,1.7884,10.16,0.30729,0,0,0,0
530.63,1.7921,10.154,0.3087,0,0,0,0
531.13,1.796,10.148,0.31024,0,0,0,0
531.63,1.7993,10.142,0.31194,0,0,0,0
532.13,1.8024,10.136,0.31347,0,0,0,0
532.63,1.8061,10.13,0.31526,0,0,0,0
533.13,1.8097,10.124,0.31707,0,0,0,0
533.63,1.813,10.118,0.31852,0,0,0,0
534.13,1.8171,10.112,0.31996,0,0,0,0
534.63,1.8215,10.105,0.32155,0,0,0,0
535.13,1.8255,10.099,0.32323,0,0,0,0
535.63,1.8293,10.093,0.32458,0,0,0,0
536.13,1.8329,10.086,0.32621,0,0,0,0
536.63,1.8362,10.079,0.32788,0,0,0,0
537.13,1.8399,10.073,0.32936,0,0,0,0
537.63,1.8432,10.065,0.33094,0,0,0,0
538.13,1.8469,10.059,0.33272,0,0,0,0
538.63,1.8509,10.052,0.33422,0,0,0,0
539.13,1.8552,10.044,0.33581,0,0,0,0
539.63,1.8593,10.037,0.33763,0,0,0,0
540.13,1.8631,10.029,0.33924,0,0,0,0
540.63,1.8669,10.022,0.34092,0,0,0,0
541.13,1.8703,10.014,0.34276,0,0,0,0
541.63,1.8736,10.007,0.34415,0,0,0,0
542.13,1.8773,9.9999,0.34607,0,0,0,0
542.63,1.8809,9.9921,0.34755,0,0,0,0
543.13,1.885,9.9846,0.34926,0,0,0,0
543.63,1.8892,9.9764,0.35104,0,0,0,0
544.13,1.8931,9.9683,0.3525,0,0,0,0
544.63,1.897,9.9597,0.35409,0,0,0,0
545.13,1.9009,9.9516,0.35579,0,0,0,0
545.63,1.9044,9.9434,0.35772,0,0,0,0
546.13,1.9079,9.9353,0.35946,0,0,0,0
546.63,1.9115,9.9264,0.36102,0,0,0,0
547.13,1.9152,9.9181,0.36275,0,0,0,0
547.63,1.919,9.9093,0.36438,0,0,0,0
548.13,1.9234,9.9007,0.3659,0,0,0,0
548.63,1.9276,9.8913,0.36765,0,0,0,0
549.13,1.9316,9.8827,0.36946,0,0,0,0
549.63,1.9353,9.873,0.37115,0,0,0,0
550.13,1.9392,9.864,0.37289,0,0,0,0
550.63,1.9427,9.8549,0.37486,0,0,0,0
551.13,1.9461,9.8463,0.37665,0,0,0,0
551.63,1.9499,9.8364,0.37845,0,0,0,0
552.13,1.9538,9.8266,0.38027,0,0,0,0
552.63,1.958,9.8161,0.38186,0,0,0,0
553.13,1.9625,9.8059,0.38421,0,0,0,0
553.63,1.9665,9.7954,0.38601,0,0,0,0
554.13,1.9706,9.7856,0.38792,0,0,0,0
554.63,1.9743,9.7751,0.38993,0,0,0,0
555.13,1.978,9.7646,0.39193,0,0,0,0
555.63,1.9813,9.7534,0.39357,0,0,0,0
556.13,1.9851,9.7431,0.39556,0,0,0,0
556.63,1.9891,9.732,0.39783,0,0,0,0
557.13,1.9934,9.721,0.39977,0,0,0,0
557.63,1.9976,9.709,0.40173,0,0,0,0
558.13,2.0017,9.698,0.40348,0,0,0,0
558.63,2.0059,9.6857,0.40546,0,0,0,0
559.13,2.0099,9.6743,0.4074,0,0,0,0
559.63,2.0136,9.6626,0.4097,0,0,0,0
560.13,2.0172,9.6513,0.41156,0,0,0,0
560.63,2.0208,9.6384,0.41336,0,0,0,0
561.13,2.0248,9.6259,0.41531,0,0,0,0
561.63,2.0292,9.6129,0.41726,0,0,0,0
562.13,2.0335,9.6001,0.41897,0,0,0,0
562.63,2.0377,9.5866,0.42115,0,0,0,0
563.13,2.042,9.5731,0.42359,0,0,0,0
563.63,2.0459,9.5591,0.42558,0,0,0,0
564.13,2.0498,9.5459,0.42776,0,0,0,0
564.63,2.0534,9.5319,0.42962,0,0,0,0
565.13,2.0573,9.5187,0.43187,0,0,0,0
565.63,2.0613,9.5041,0.43405,0,0,0,0
566.13,2.0656,9.4901,0.43614,0,0,0,0
566.63,2.0702,9.4749,0.43852,0,0,0,0
567.13,2.0746,9.4606,0.44081,0,0,0,0
567.63,2.0788,9.4441,0.44314,0,0,0,0
568.13,2.0828,9.4291,0.44508,0,0,0,0
568.63,2.0869,9.4137,0.44686,0,0,0,0
569.13,2.0905,9.3991,0.44886,0,0,0,0
569.63,2.0945,9.3826,0.45119,0,0,0,0
570.13,2.0987,9.3661,0.45339,0,0,0,0
570.63,2.1034,9.3489,0.4558,0,0,0,0
571.13,2.1084,9.3319,0.45813,0,0,0,0
571.63,2.1127,9.3141,0.46065,0,0,0,0
572.13,2.1172,9.2966,0.4628,0,0,0,0
572.63,2.1209,9.2779,0.46476,0,0,0,0
573.13,2.1247,9.2591,0.46718,0,0,0,0
573.63,2.1288,9.2399,0.46922,0,0,0,0
574.13,2.133,9.2223,0.47194,0,0,0,0
574.63,2.1376,9.2033,0.47406,0,0,0,0
575.13,2.1423,9.1844,0.47674,0,0,0,0
575.63,2.1471,9.1633,0.47906,0,0,0,0
576.13,2.1517,9.1437,0.48158,0,0,0,0
576.63,2.1561,9.1217,0.48398,0,0,0,0
577.13,2.1603,9.1013,0.48633,0,0,0,0
577.63,2.1645,9.0799,0.48856,0,0,0,0
578.13,2.1687,9.0594,0.49088,0,0,0,0
578.63,2.1736,9.0363,0.49352,0,0,0,0
579.13,2.1785,9.0131,0.49605,0,0,0,0
579.63,2.1836,8.9883,0.49836,0,0,0,0
580.13,2.1888,8.9634,0.50129,0,0,0,0
580.63,2.1938,8.937,0.50375,0,0,0,0
581.13,2.2003,8.909,0.50776,0,0,0,0
581.63,2.2134,8.8658,0.51698,0,0,0,0