File: polyN_optimization/DP600_results/DATA/NT6_90_2.csv
Time[s],Displacement[mm],Force[kN],AxStrain_1,AxStrain_2,Thickness[mm],OuterWidth[mm],InnerWidth[mm]
0.56,0,-0.017602,0,0,1.5304,20,10.016
1.05,-5e-05,-0.020774,3.4999e-05,0,0,0,0
1.55,0.000194,-0.023423,0.00016999,0,0,0,0
2.06,0.000122,-0.011979,-8.2003e-05,0,0,0,0
2.56,0.000106,0.014423,3.4999e-05,0,0,0,0
3.06,0.000279,0.048145,-8.6004e-05,0,0,0,0
3.56,0.000504,0.076419,-0.00015001,0,0,0,0
4.05,0.00063,0.10244,-8.8004e-05,0,0,0,0
4.55,0.000519,0.12728,-0.00024803,0,0,0,0
5.05,0.000772,0.15558,-0.00020802,0,0,0,0
5.55,0.000746,0.18085,-5.6002e-05,0,0,0,0
6.05,0.000773,0.20329,-0.00025503,0,0,0,0
6.55,0.000847,0.22028,-0.00025503,0,0,0,0
7.05,0.000784,0.23658,-0.00019202,0,0,0,0
7.55,0.000875,0.25214,-0.00010501,0,0,0,0
8.05,0.000876,0.27015,-0.00017502,0,0,0,0
8.55,0.000965,0.28814,2e-05,0,0,0,0
9.05,0.001001,0.30715,-5.7002e-05,0,0,0,0
9.55,0.00106,0.32442,-8e-06,0,0,0,0
10.05,0.001185,0.34272,7.6997e-05,0,0,0,0
10.55,0.001205,0.36171,0.00010799,0,0,0,0
11.05,0.001221,0.38186,1.8e-05,0,0,0,0
11.55,0.001323,0.40014,0.00012199,0,0,0,0
12.05,0.00125,0.41915,9.5995e-05,0,0,0,0
12.55,0.001407,0.43642,0.00014299,0,0,0,0
13.05,0.001548,0.45358,5.3999e-05,0,0,0,0
13.55,0.001644,0.47057,0.00016299,0,0,0,0
14.05,0.001765,0.49058,0.00013399,0,0,0,0
14.55,0.001859,0.50928,2e-05,0,0,0,0
15.05,0.001907,0.52844,-0.00028504,0,0,0,0
15.55,0.001976,0.54585,-9.6005e-05,0,0,0,0
16.05,0.002168,0.564,-0.00019202,0,0,0,0
16.55,0.002185,0.58114,-0.00011901,0,0,0,0
17.06,0.002043,0.60043,-0.00013901,0,0,0,0
17.55,0.002099,0.61928,-0.00020202,0,0,0,0
18.05,0.002053,0.63872,-0.00025203,0,0,0,0
18.55,0.002142,0.65642,-6.6002e-05,0,0,0,0
19.05,0.002165,0.67572,-0.00013201,0,0,0,0
19.55,0.002195,0.69571,-1.3e-05,0,0,0,0
20.05,0.002195,0.71715,0,0,0,0,0
20.55,0.002506,0.73657,0.00010299,0,0,0,0
21.05,0.002357,0.75672,-2e-05,0,0,0,0
21.55,0.00238,0.77514,-5.0001e-05,0,0,0,0
22.05,0.002539,0.79386,0.00012299,0,0,0,0
22.55,0.002718,0.81257,8.2997e-05,0,0,0,0
23.05,0.002784,0.83486,9.5995e-05,0,0,0,0
23.55,0.003052,0.85599,0.00026197,0,0,0,0
24.05,0.003191,0.87772,0.00027796,0,0,0,0
24.55,0.003241,0.89728,0.00034794,0,0,0,0
25.05,0.003397,0.91758,0.00021898,0,0,0,0
25.55,0.003731,0.93628,0.00023797,0,0,0,0
26.05,0.003791,0.95672,0.00019498,0,0,0,0
26.55,0.00391,0.97685,1.7e-05,0,0,0,0
27.05,0.003873,0.99815,1e-05,0,0,0,0
27.55,0.003794,1.0174,-5.6002e-05,0,0,0,0
28.05,0.00388,1.0377,7e-06,0,0,0,0
28.55,0.003963,1.0584,3e-05,0,0,0,0
29.05,0.00392,1.0804,-7.0002e-05,0,0,0,0
29.55,0.003781,1.1009,5.2999e-05,0,0,0,0
30.05,0.003867,1.1221,-3e-05,0,0,0,0
30.55,0.003959,1.1414,0.00012899,0,0,0,0
31.05,0.003986,1.1606,3.9999e-05,0,0,0,0
31.55,0.003943,1.1799,0.00016899,0,0,0,0
32.05,0.004208,1.2023,0.00019198,0,0,0,0
32.55,0.00431,1.2233,0.00034794,0,0,0,0
33.05,0.004453,1.2447,0.00026496,0,0,0,0
33.55,0.004535,1.2643,0.00052986,0,0,0,0
34.05,0.004572,1.2843,0.00037693,0,0,0,0
34.55,0.004972,1.3031,0.0004369,0,0,0,0
35.05,0.005145,1.3241,0.00050687,0,0,0,0
35.55,0.005489,1.3449,0.0004439,0,0,0,0
36.05,0.005595,1.3661,0.00029496,0,0,0,0
36.55,0.005684,1.3854,0.00036393,0,0,0,0
37.05,0.005836,1.406,0.00038693,0,0,0,0
37.55,0.00574,1.4271,0.00017898,0,0,0,0
38.05,0.005846,1.4494,0.00029496,0,0,0,0
38.55,0.005807,1.4699,0.00015899,0,0,0,0
39.05,0.005684,1.4911,0.00028496,0,0,0,0
39.55,0.005764,1.5101,0.00012199,0,0,0,0
40.05,0.005754,1.5289,0.00035794,0,0,0,0
40.55,0.005625,1.5476,0.00024197,0,0,0,0
41.05,0.005717,1.5699,0.00047988,0,0,0,0
41.55,0.00584,1.591,0.00023197,0,0,0,0
42.05,0.005942,1.6127,0.00028096,0,0,0,0
42.55,0.00586,1.6349,0.00050687,0,0,0,0
43.05,0.005916,1.6564,0.00046989,0,0,0,0
43.55,0.00625,1.6753,0.00057284,0,0,0,0
44.05,0.00632,1.6941,0.00046289,0,0,0,0
44.55,0.006657,1.7137,0.00041092,0,0,0,0
45.05,0.006813,1.7334,0.00058883,0,0,0,0
45.55,0.006998,1.7521,0.00075771,0,0,0,0
46.05,0.007449,1.772,0.00064179,0,0,0,0
46.55,0.007826,1.7927,0.00059282,0,0,0,0
47.05,0.007783,1.8149,0.0004469,0,0,0,0
47.55,0.007982,1.8351,0.00039092,0,0,0,0
48.05,0.007882,1.8561,0.00038693,0,0,0,0
48.55,0.007674,1.8751,0.00051287,0,0,0,0
49.05,0.007906,1.8939,0.00052586,0,0,0,0
49.55,0.007912,1.9126,0.00033794,0,0,0,0
50.05,0.007568,1.9346,0.00020498,0,0,0,0
50.55,0.007495,1.9553,0.00037393,0,0,0,0
51.05,0.007604,1.9764,0.00043391,0,0,0,0
51.55,0.007535,1.9956,0.00035094,0,0,0,0
52.05,0.007704,2.0153,0.00028796,0,0,0,0
52.55,0.007747,2.0339,0.0004369,0,0,0,0
53.05,0.007727,2.0544,0.00053586,0,0,0,0
53.55,0.008018,2.0746,0.00050687,0,0,0,0
54.05,0.008038,2.0951,0.00057583,0,0,0,0
54.55,0.00822,2.1137,0.00064579,0,0,0,0
55.05,0.008177,2.1337,0.00067877,0,0,0,0
55.55,0.009422,2.1544,0.00075472,0,0,0,0
56.05,0.009253,2.1764,0.00068177,0,0,0,0
56.55,0.009405,2.1966,0.00071474,0,0,0,0
57.05,0.009839,2.2174,0.00083765,0,0,0,0
57.55,0.010041,2.2364,0.00066478,0,0,0,0
58.05,0.01018,2.2553,0.00068477,0,0,0,0
58.55,0.010143,2.2741,0.00068876,0,0,0,0
59.05,0.01013,2.2963,0.0006288,0,0,0,0
59.55,0.009766,2.3173,0.00042391,0,0,0,0
60.06,0.009746,2.3387,0.00040392,0,0,0,0
60.55,0.009637,2.358,0.0004569,0,0,0,0
61.05,0.009763,2.3776,0.00055285,0,0,0,0
61.55,0.009405,2.3961,0.00041391,0,0,0,0
62.05,0.009534,2.4169,0.00051287,0,0,0,0
62.55,0.009332,2.4369,0.00055884,0,0,0,0
63.05,0.009488,2.4571,0.0004469,0,0,0,0
63.55,0.009508,2.4757,0.00047988,0,0,0,0
64.06,0.010067,2.496,0.00064879,0,0,0,0
64.56,0.010243,2.5171,0.0006258,0,0,0,0
65.06,0.010441,2.5394,0.00058883,0,0,0,0
65.56,0.010733,2.5596,0.00072474,0,0,0,0
66.06,0.01115,2.5804,0.00092657,0,0,0,0
66.56,0.0116,2.5994,0.00075072,0,0,0,0
67.06,0.011795,2.6186,0.00071175,0,0,0,0
67.56,0.011941,2.6376,0.00093656,0,0,0,0
68.06,0.012011,2.6596,0.00081767,0,0,0,0
68.56,0.012779,2.68,0.00081767,0,0,0,0
69.06,0.012305,2.701,0.00065179,0,0,0,0
69.56,0.012282,2.7203,0.00058283,0,0,0,0
70.06,0.012031,2.7406,0.00078469,0,0,0,0
70.56,0.011991,2.7596,0.00056584,0,0,0,0
71.06,0.011878,2.7804,0.00050687,0,0,0,0
71.56,0.011848,2.8003,0.0004369,0,0,0,0
72.06,0.011498,2.8207,0.00051287,0,0,0,0
72.56,0.011309,2.8391,0.0004399,0,0,0,0
73.06,0.011633,2.859,0.00049988,0,0,0,0
73.56,0.01156,2.8797,0.0004569,0,0,0,0
74.06,0.011706,2.9019,0.00058583,0,0,0,0
74.56,0.011915,2.9219,0.0007777,0,0,0,0
75.06,0.012259,2.9424,0.00075072,0,0,0,0
75.56,0.012345,2.9614,0.00064879,0,0,0,0
76.06,0.012901,2.9803,0.00081067,0,0,0,0
76.55,0.013269,2.9989,0.0007807,0,0,0,0
77.06,0.013543,3.0203,0.00084664,0,0,0,0
77.55,0.014004,3.0409,0.00088661,0,0,0,0
78.05,0.014166,3.0624,0.00087362,0,0,0,0
78.56,0.014404,3.082,0.0007807,0,0,0,0
79.06,0.014487,3.1019,0.00078469,0,0,0,0
79.55,0.014196,3.1203,0.00076771,0,0,0,0
80.06,0.01408,3.1407,0.00060582,0,0,0,0
80.56,0.014143,3.1606,0.00072774,0,0,0,0
81.06,0.013954,3.1814,0.00046989,0,0,0,0
81.55,0.013686,3.2004,0.00058583,0,0,0,0
82.06,0.013501,3.2207,0.00032395,0,0,0,0
82.55,0.013381,3.2414,0.00046989,0,0,0,0
83.06,0.013428,3.2634,0.00047689,0,0,0,0
83.55,0.013418,3.2833,0.00049288,0,0,0,0
84.05,0.013593,3.3034,0.00051986,0,0,0,0
84.56,0.013812,3.3217,0.00058283,0,0,0,0
85.05,0.014189,3.3403,0.00036693,0,0,0,0
85.55,0.014375,3.3591,0.00073473,0,0,0,0
86.05,0.014947,3.3813,0.0006258,0,0,0,0
86.55,0.015315,3.402,0.00053286,0,0,0,0
87.05,0.015652,3.423,0.00070475,0,0,0,0
87.55,0.015901,3.442,0.00073173,0,0,0,0
88.06,0.016086,3.4616,0.00074772,0,0,0,0
88.55,0.016434,3.4799,0.00072774,0,0,0,0
89.05,0.01643,3.5001,0.00066478,0,0,0,0
89.55,0.016387,3.5199,0.00060582,0,0,0,0
90.05,0.016417,3.5401,0.0004569,0,0,0,0
90.56,0.016334,3.5587,0.00053286,0,0,0,0
91.06,0.015977,3.5787,0.00047689,0,0,0,0
91.56,0.01597,3.5994,0.00033794,0,0,0,0
92.06,0.015844,3.6211,0.00034394,0,0,0,0
92.55,0.01558,3.6409,0.00021498,0,0,0,0
93.05,0.015547,3.6611,0.00025797,0,0,0,0
93.55,0.015394,3.6797,0.00022897,0,0,0,0
94.05,0.015739,3.6983,0.00027496,0,0,0,0
94.56,0.015553,3.7166,0.00043391,0,0,0,0
95.06,0.016123,3.7376,0.00050287,0,0,0,0
95.55,0.016258,3.7576,0.00031495,0,0,0,0
96.06,0.016725,3.7784,0.00056584,0,0,0,0
96.56,0.017261,3.7976,0.00050687,0,0,0,0
97.06,0.017649,3.8173,0.00051687,0,0,0,0
97.56,0.017957,3.8356,0.00074772,0,0,0,0
98.06,0.018165,3.8554,0.00061281,0,0,0,0
98.55,0.018533,3.8749,0.00081467,0,0,0,0
99.06,0.018721,3.8951,0.00071874,0,0,0,0
99.55,0.018695,3.9134,0.00055285,0,0,0,0
100.06,0.018831,3.933,0.00050687,0,0,0,0
100.56,0.018705,3.9534,0.00050287,0,0,0,0
101.06,0.018589,3.9751,0.00034394,0,0,0,0
101.56,0.018354,3.9949,0.00027496,0,0,0,0
102.06,0.018367,4.0154,0.00037093,0,0,0,0
102.55,0.018132,4.0341,0.00030795,0,0,0,0
103.05,0.01797,4.0526,0.0004469,0,0,0,0
103.55,0.017967,4.0709,0.00035394,0,0,0,0
104.05,0.018023,4.0923,0.00030095,0,0,0,0
104.56,0.018135,4.1126,0.00050987,0,0,0,0
105.05,0.018486,4.1334,0.00055984,0,0,0,0
105.55,0.018781,4.1526,0.00040092,0,0,0,0
106.05,0.019006,4.1723,0.00059582,0,0,0,0
106.56,0.019334,4.1906,0.0006318,0,0,0,0
107.06,0.020128,4.2107,0.00067877,0,0,0,0
107.56,0.020377,4.2306,0.00067177,0,0,0,0
108.05,0.020612,4.2511,0.00086363,0,0,0,0
108.56,0.020853,4.2697,0.00081067,0,0,0,0
109.05,0.021165,4.2894,0.0007707,0,0,0,0
109.55,0.021224,4.3097,0.0007707,0,0,0,0
110.05,0.021105,4.3311,0.00076071,0,0,0,0
110.55,0.021413,4.3509,0.00069476,0,0,0,0
111.05,0.02139,4.3711,0.00066178,0,0,0,0
111.55,0.021059,4.3894,0.00069476,0,0,0,0
112.05,0.021151,4.4076,0.00059582,0,0,0,0
112.55,0.020886,4.4259,0.00059582,0,0,0,0
113.05,0.02079,4.4473,0.00052986,0,0,0,0
113.55,0.020724,4.4673,0.00056284,0,0,0,0
114.05,0.020724,4.4877,0.00056284,0,0,0,0
114.55,0.020625,4.5063,0.00072774,0,0,0,0
115.05,0.021188,4.5256,0.0006288,0,0,0,0
115.55,0.021254,4.5436,0.00076071,0,0,0,0
116.05,0.021784,4.5634,0.00092657,0,0,0,0
116.55,0.022148,4.5829,0.00086063,0,0,0,0
117.05,0.022611,4.6031,0.0010584,0,0,0,0
117.55,0.022942,4.6226,0.0011254,0,0,0,0
118.05,0.023174,4.6424,0.0011913,0,0,0,0
118.55,0.023604,4.6616,0.0012902,0,0,0,0
119.05,0.023571,4.6814,0.0011583,0,0,0,0
119.55,0.023737,4.7006,0.0012572,0,0,0,0
120.06,0.024002,4.7201,0.0012243,0,0,0,0
120.55,0.024101,4.7377,0.0011583,0,0,0,0
121.05,0.024267,4.7567,0.0010584,0,0,0,0
121.55,0.0243,4.7764,0.0010584,0,0,0,0
122.05,0.0243,4.7974,0.00099251,0,0,0,0
122.55,0.024167,4.8151,0.00095954,0,0,0,0
123.05,0.024101,4.834,0.00072774,0,0,0,0
123.55,0.024134,4.8523,0.00076071,0,0,0,0
124.05,0.024167,4.8713,0.00092657,0,0,0,0
124.55,0.024068,4.8891,0.00092657,0,0,0,0
125.05,0.024267,4.9103,0.00092657,0,0,0,0
125.55,0.024432,4.93,0.00095954,0,0,0,0
126.05,0.024697,4.9489,0.0011254,0,0,0,0
126.55,0.025194,4.9666,0.0011254,0,0,0,0
127.05,0.025723,4.9864,0.0012902,0,0,0,0
127.55,0.025889,5.0056,0.0012243,0,0,0,0
128.05,0.026154,5.0251,0.0012572,0,0,0,0
128.55,0.026783,5.0439,0.0011913,0,0,0,0
129.05,0.026915,5.0634,0.0014559,0,0,0,0
129.55,0.027246,5.0814,0.001423,0,0,0,0
130.05,0.027511,5.1004,0.0015218,0,0,0,0
130.55,0.027544,5.1197,0.0014889,0,0,0,0
131.05,0.02761,5.1401,0.0016207,0,0,0,0
131.55,0.027875,5.1577,0.0013561,0,0,0,0
132.05,0.028008,5.1767,0.0013561,0,0,0,0
132.55,0.028306,5.195,0.0012572,0,0,0,0
133.05,0.02814,5.2139,0.0013561,0,0,0,0
133.55,0.028306,5.2316,0.0010584,0,0,0,0
134.05,0.028372,5.2526,0.0012572,0,0,0,0
134.55,0.028504,5.2723,0.0010914,0,0,0,0
135.05,0.028703,5.2913,0.0011913,0,0,0,0
135.55,0.028835,5.3089,0.0012243,0,0,0,0
136.05,0.029199,5.3281,0.001389,0,0,0,0
136.55,0.029597,5.3469,0.0012243,0,0,0,0
137.05,0.03006,5.3661,0.001389,0,0,0,0
137.55,0.030292,5.3849,0.001389,0,0,0,0
138.05,0.030722,5.4039,0.0016536,0,0,0,0
138.55,0.03102,5.421,0.0016207,0,0,0,0
139.05,0.031219,5.4394,0.0016207,0,0,0,0
139.55,0.031418,5.4587,0.0017195,0,0,0,0
140.05,0.031683,5.4791,0.0017205,0,0,0,0
140.55,0.031981,5.4967,0.0019511,0,0,0,0
141.05,0.032245,5.5154,0.0015877,0,0,0,0
141.55,0.03251,5.5336,0.0017195,0,0,0,0
142.05,0.032543,5.5523,0.0014559,0,0,0,0
142.55,0.032941,5.5699,0.0014889,0,0,0,0
143.05,0.033272,5.5906,0.0014889,0,0,0,0
143.55,0.03347,5.6103,0.0013561,0,0,0,0
144.05,0.033702,5.629,0.0012572,0,0,0,0
144.55,0.034099,5.6461,0.0013231,0,0,0,0
145.05,0.034464,5.6651,0.00139,0,0,0,0
145.55,0.034596,5.6839,0.0011913,0,0,0,0
146.05,0.035192,5.7029,0.0013571,0,0,0,0
146.55,0.035556,5.7211,0.001423,0,0,0,0
147.05,0.035622,5.7401,0.0013231,0,0,0,0
147.55,0.036119,5.7577,0.0016207,0,0,0,0
148.05,0.036351,5.7764,0.0015877,0,0,0,0
148.55,0.036616,5.7954,0.0017535,0,0,0,0
149.05,0.036682,5.8154,0.0017205,0,0,0,0
149.55,0.037013,5.8324,0.0018193,0,0,0,0
150.05,0.037443,5.8507,0.0021168,0,0,0,0
150.55,0.037576,5.8686,0.0019511,0,0,0,0
151.05,0.037874,5.887,0.0020509,0,0,0,0
151.55,0.038271,5.9041,0.0018523,0,0,0,0
152.05,0.038635,5.924,0.0020838,0,0,0,0
152.55,0.0389,5.9426,0.0015548,0,0,0,0
153.05,0.03933,5.9606,0.0016876,0,0,0,0
153.55,0.040191,5.9776,0.0016207,0,0,0,0
154.05,0.040688,5.9961,0.0017535,0,0,0,0
154.55,0.04135,6.0139,0.0016207,0,0,0,0
155.05,0.042012,6.0321,0.0017205,0,0,0,0
155.55,0.042509,6.0499,0.0016536,0,0,0,0
156.05,0.042939,6.0681,0.0018193,0,0,0,0
156.55,0.043303,6.0847,0.0018852,0,0,0,0
157.05,0.043767,6.1024,0.0019521,0,0,0,0
157.55,0.043998,6.1204,0.0018523,0,0,0,0
158.05,0.044065,6.1394,0.0022155,0,0,0,0
158.55,0.04423,6.1557,0.0023153,0,0,0,0
159.05,0.044561,6.1731,0.0023812,0,0,0,0
159.55,0.044826,6.1901,0.0023482,0,0,0,0
160.05,0.045025,6.2077,0.0026784,0,0,0,0
160.55,0.045323,6.2239,0.002843,0,0,0,0
161.05,0.045885,6.2426,0.0029427,0,0,0,0
161.55,0.046316,6.2606,0.0029427,0,0,0,0
162.05,0.046845,6.278,0.00281,0,0,0,0
162.55,0.047607,6.2939,0.0027771,0,0,0,0
163.05,0.048203,6.3111,0.0028759,0,0,0,0
163.55,0.048931,6.3281,0.00281,0,0,0,0
164.05,0.049924,6.3459,0.0026455,0,0,0,0
164.55,0.050719,6.3629,0.0024799,0,0,0,0
165.05,0.051547,6.3801,0.0026126,0,0,0,0
165.55,0.052341,6.3957,0.0027442,0,0,0,0
166.05,0.053103,6.4121,0.0027771,0,0,0,0
166.55,0.053334,6.4281,0.00281,0,0,0,0
167.05,0.054029,6.4459,0.0029756,0,0,0,0
167.55,0.05446,6.4619,0.0029756,0,0,0,0
168.05,0.055023,6.4794,0.0032069,0,0,0,0
168.55,0.055155,6.4956,0.0032726,0,0,0,0
169.05,0.055652,6.5123,0.0035367,0,0,0,0
169.55,0.056082,6.5279,0.0035367,0,0,0,0
170.05,0.056314,6.5449,0.003998,0,0,0,0
170.55,0.057009,6.5611,0.0039651,0,0,0,0
171.05,0.057539,6.5779,0.0041295,0,0,0,0
171.55,0.058267,6.593,0.0044929,0,0,0,0
172.05,0.058896,6.6094,0.0043605,0,0,0,0
172.55,0.059823,6.6261,0.0043276,0,0,0,0
173.05,0.061048,6.6434,0.0040976,0,0,0,0
173.55,0.06171,6.6589,0.0041962,0,0,0,0
174.05,0.062505,6.6751,0.0041305,0,0,0,0
174.55,0.063366,6.69,0.0041962,0,0,0,0
175.05,0.064226,6.705,0.0041962,0,0,0,0
175.55,0.064756,6.7199,0.0041305,0,0,0,0
176.05,0.065551,6.737,0.0042619,0,0,0,0
176.55,0.06618,6.7531,0.0042948,0,0,0,0
177.05,0.067074,6.7699,0.0043605,0,0,0,0
177.55,0.067736,6.7851,0.0045257,0,0,0,0
178.05,0.068332,6.8007,0.0047238,0,0,0,0
178.55,0.069292,6.8151,0.0049865,0,0,0,0
179.05,0.069788,6.8309,0.005086,0,0,0,0
179.55,0.07098,6.8461,0.0053497,0,0,0,0
180.05,0.071874,6.8619,0.0055148,0,0,0,0
180.55,0.072967,6.876,0.0057773,0,0,0,0
181.05,0.073894,6.8909,0.0060735,0,0,0,0
181.55,0.075185,6.9063,0.0061729,0,0,0,0
182.05,0.07588,6.9229,0.0062057,0,0,0,0
182.55,0.076807,6.9379,0.0062713,0,0,0,0
183.05,0.077569,6.9531,0.0062057,0,0,0,0
183.55,0.078099,6.9667,0.0061401,0,0,0,0
184.05,0.079125,6.9803,0.0059761,0,0,0,0
184.55,0.079423,6.9939,0.0059751,0,0,0,0
185.05,0.079853,7.01,0.0059095,0,0,0,0
185.55,0.08088,7.0251,0.0059751,0,0,0,0
186.05,0.08131,7.0409,0.0058439,0,0,0,0
186.55,0.082204,7.0551,0.0058767,0,0,0,0
187.05,0.083297,7.0697,0.0059751,0,0,0,0
187.55,0.084323,7.0831,0.0062395,0,0,0,0
188.05,0.085283,7.0981,0.0063379,0,0,0,0
188.55,0.086508,7.1126,0.0064362,0,0,0,0
189.05,0.0878,7.1271,0.0067333,0,0,0,0
189.55,0.088892,7.1403,0.0069627,0,0,0,0
190.05,0.09015,7.1546,0.0074234,0,0,0,0
190.55,0.09121,7.1693,0.0076199,0,0,0,0
191.05,0.092435,7.1849,0.0079493,0,0,0,0
191.55,0.093395,7.1989,0.0078828,0,0,0,0
192.05,0.094223,7.2131,0.0080148,0,0,0,0
192.55,0.095282,7.226,0.0080803,0,0,0,0
193.05,0.096275,7.2393,0.0080475,0,0,0,0
193.55,0.096971,7.2526,0.0081795,0,0,0,0
194.05,0.097898,7.268,0.0078828,0,0,0,0
194.55,0.098759,7.2821,0.0076536,0,0,0,0
195.05,0.10005,7.2969,0.0078174,0,0,0,0
195.55,0.10124,7.3101,0.0075554,0,0,0,0
196.05,0.1025,7.324,0.0076536,0,0,0,0
196.55,0.10356,7.3369,0.0076864,0,0,0,0
197.05,0.10492,7.3509,0.0077519,0,0,0,0
197.55,0.10604,7.3641,0.0079493,0,0,0,0
198.05,0.1071,7.3779,0.0079493,0,0,0,0
198.55,0.108,7.3906,0.0082122,0,0,0,0
199.05,0.10909,7.4043,0.0085731,0,0,0,0
199.55,0.10982,7.418,0.0087704,0,0,0,0
200.05,0.11058,7.4321,0.0090658,0,0,0,0
200.55,0.11154,7.4451,0.0093284,0,0,0,0
201.05,0.11246,7.4589,0.0095909,0,0,0,0
201.55,0.11349,7.4721,0.0096552,0,0,0,0
202.05,0.11455,7.4847,0.010017,0,0,0,0
202.55,0.11554,7.4971,0.010017,0,0,0,0
203.05,0.11697,7.5099,0.010115,0,0,0,0
203.55,0.11829,7.5231,0.010081,0,0,0,0
204.05,0.11978,7.5361,0.010081,0,0,0,0
204.55,0.1213,7.5504,0.009983,0,0,0,0
205.05,0.12269,7.5634,0.0097533,0,0,0,0
205.55,0.12405,7.5751,0.0095899,0,0,0,0
206.05,0.12524,7.5869,0.0095899,0,0,0,0
206.55,0.12644,7.5999,0.0095899,0,0,0,0
207.05,0.12759,7.6129,0.009787,0,0,0,0
207.55,0.12875,7.6243,0.0097543,0,0,0,0
208.05,0.12988,7.6366,0.009885,0,0,0,0
208.55,0.13081,7.6504,0.010115,0,0,0,0
209.05,0.132,7.6649,0.010573,0,0,0,0
209.55,0.13332,7.6779,0.010771,0,0,0,0
210.05,0.13468,7.6901,0.010901,0,0,0,0
210.55,0.13561,7.7029,0.011392,0,0,0,0
211.05,0.13733,7.7146,0.011654,0,0,0,0
211.55,0.13885,7.727,0.011916,0,0,0,0
212.05,0.14031,7.7396,0.012046,0,0,0,0
212.55,0.14163,7.7529,0.012111,0,0,0,0
213.05,0.14309,7.7651,0.012275,0,0,0,0
213.55,0.14412,7.7779,0.012439,0,0,0,0
214.05,0.14527,7.7893,0.012275,0,0,0,0
214.55,0.14633,7.8007,0.012243,0,0,0,0
215.05,0.14716,7.8121,0.012079,0,0,0,0
215.55,0.14812,7.8254,0.011948,0,0,0,0
216.05,0.14941,7.8377,0.012014,0,0,0,0
216.55,0.1507,7.8503,0.011981,0,0,0,0
217.05,0.1516,7.8617,0.011916,0,0,0,0
217.55,0.15296,7.8737,0.012014,0,0,0,0
218.05,0.15458,7.8851,0.012243,0,0,0,0
218.55,0.1562,7.8976,0.012341,0,0,0,0
219.05,0.15789,7.9094,0.012602,0,0,0,0
219.55,0.15941,7.9216,0.013125,0,0,0,0
220.05,0.16103,7.9329,0.013256,0,0,0,0
220.55,0.16249,7.9447,0.013648,0,0,0,0
221.05,0.16355,7.9566,0.013714,0,0,0,0
221.55,0.16514,7.9689,0.014204,0,0,0,0
222.05,0.16646,7.9804,0.014431,0,0,0,0
222.55,0.16769,7.9926,0.014627,0,0,0,0
223.05,0.16895,8.0033,0.014595,0,0,0,0
223.55,0.17024,8.0137,0.014627,0,0,0,0
224.05,0.17159,8.0241,0.014725,0,0,0,0
224.55,0.17308,8.0364,0.014529,0,0,0,0
225.05,0.17481,8.048,0.014529,0,0,0,0
225.55,0.17653,8.0594,0.014561,0,0,0,0
226.05,0.17828,8.0701,0.014334,0,0,0,0
226.55,0.17977,8.0816,0.014529,0,0,0,0
227.05,0.1813,8.0924,0.014399,0,0,0,0
227.55,0.18302,8.1036,0.01453,0,0,0,0
228.05,0.18404,8.1144,0.014628,0,0,0,0
228.55,0.18537,8.125,0.014986,0,0,0,0
229.05,0.18673,8.1359,0.015215,0,0,0,0
229.55,0.18808,8.1469,0.015411,0,0,0,0
230.05,0.18924,8.1581,0.015802,0,0,0,0
230.55,0.19033,8.1686,0.015965,0,0,0,0
231.05,0.19182,8.18,0.016291,0,0,0,0
231.55,0.19331,8.1907,0.016519,0,0,0,0
232.05,0.19477,8.202,0.016877,0,0,0,0
232.55,0.19623,8.212,0.017072,0,0,0,0
233.05,0.19778,8.223,0.017105,0,0,0,0
233.55,0.19977,8.2333,0.017071,0,0,0,0
234.05,0.20116,8.2439,0.017235,0,0,0,0
234.55,0.20275,8.2537,0.017072,0,0,0,0
235.05,0.20424,8.2646,0.01717,0,0,0,0
235.55,0.20547,8.2751,0.01704,0,0,0,0
236.05,0.20699,8.2859,0.01704,0,0,0,0
236.55,0.20821,8.2956,0.016943,0,0,0,0
237.05,0.2096,8.306,0.017008,0,0,0,0
237.55,0.21113,8.3166,0.017105,0,0,0,0
238.05,0.21275,8.3279,0.017137,0,0,0,0
238.55,0.21407,8.3381,0.017333,0,0,0,0
239.05,0.21596,8.3491,0.017659,0,0,0,0
239.55,0.21771,8.359,0.017886,0,0,0,0
240.05,0.2198,8.3684,0.018049,0,0,0,0
240.55,0.22152,8.3774,0.018245,0,0,0,0
241.05,0.22341,8.3884,0.018506,0,0,0,0
241.55,0.225,8.399,0.018765,0,0,0,0
242.05,0.22669,8.41,0.019154,0,0,0,0
242.55,0.22801,8.4197,0.019154,0,0,0,0
243.05,0.22944,8.4297,0.019382,0,0,0,0
243.55,0.23099,8.4389,0.019383,0,0,0,0
244.05,0.23258,8.4491,0.01961,0,0,0,0
244.55,0.2343,8.4591,0.019512,0,0,0,0
245.05,0.23583,8.4696,0.019642,0,0,0,0
245.55,0.23741,8.4786,0.019448,0,0,0,0
246.05,0.23917,8.4883,0.019707,0,0,0,0
246.55,0.24125,8.4983,0.019609,0,0,0,0
247.05,0.24321,8.5091,0.01961,0,0,0,0
247.56,0.2449,8.5189,0.019805,0,0,0,0
248.05,0.24678,8.5289,0.019708,0,0,0,0
248.55,0.24818,8.5376,0.020033,0,0,0,0
249.05,0.2498,8.5464,0.020228,0,0,0,0
249.55,0.25132,8.5554,0.020196,0,0,0,0
250.05,0.25261,8.5661,0.020617,0,0,0,0
250.55,0.2542,8.576,0.020781,0,0,0,0
251.05,0.25559,8.586,0.020942,0,0,0,0
251.55,0.25708,8.595,0.02133,0,0,0,0
252.05,0.25877,8.6044,0.02146,0,0,0,0
252.55,0.26062,8.6134,0.021623,0,0,0,0
253.05,0.26258,8.6233,0.021946,0,0,0,0
253.55,0.26423,8.6324,0.021816,0,0,0,0
254.05,0.26609,8.6419,0.022141,0,0,0,0
254.55,0.26797,8.6506,0.022206,0,0,0,0
255.05,0.2695,8.66,0.022205,0,0,0,0
255.55,0.27109,8.6699,0.02214,0,0,0,0
256.05,0.27268,8.6803,0.022367,0,0,0,0
256.55,0.27416,8.6894,0.022562,0,0,0,0
257.05,0.27579,8.6989,0.022432,0,0,0,0
257.56,0.27738,8.7076,0.022626,0,0,0,0
258.05,0.27913,8.7164,0.022756,0,0,0,0
258.55,0.28089,8.7249,0.022917,0,0,0,0
259.05,0.28267,8.7344,0.023145,0,0,0,0
259.55,0.28486,8.7433,0.02308,0,0,0,0
260.05,0.28698,8.753,0.023144,0,0,0,0
260.55,0.28916,8.762,0.023564,0,0,0,0
261.05,0.29105,8.7711,0.023759,0,0,0,0
261.55,0.29284,8.7791,0.023921,0,0,0,0
262.05,0.29449,8.7881,0.024115,0,0,0,0
262.55,0.29625,8.7971,0.024276,0,0,0,0
263.05,0.29797,8.8066,0.024502,0,0,0,0
263.55,0.29969,8.8151,0.024631,0,0,0,0
264.05,0.30135,8.8241,0.02489,0,0,0,0
264.55,0.3032,8.8331,0.02489,0,0,0,0
265.05,0.30512,8.8426,0.024953,0,0,0,0
265.55,0.30714,8.8514,0.025212,0,0,0,0
266.05,0.30923,8.8606,0.025373,0,0,0,0
266.55,0.31155,8.8686,0.025277,0,0,0,0
267.05,0.3135,8.8761,0.02547,0,0,0,0
267.55,0.31555,8.8837,0.025599,0,0,0,0
268.05,0.31747,8.8931,0.025729,0,0,0,0
268.55,0.31906,8.9023,0.025986,0,0,0,0
269.05,0.32108,8.9114,0.026116,0,0,0,0
269.55,0.3226,8.9196,0.026212,0,0,0,0
270.05,0.32416,8.9279,0.026341,0,0,0,0
270.55,0.32598,8.9357,0.026438,0,0,0,0
271.05,0.32747,8.944,0.026664,0,0,0,0
271.56,0.32962,8.9523,0.026987,0,0,0,0
272.05,0.33151,8.9604,0.027019,0,0,0,0
272.55,0.3334,8.9686,0.027277,0,0,0,0
273.05,0.33568,8.9767,0.027502,0,0,0,0
273.55,0.3377,8.9856,0.027663,0,0,0,0
274.05,0.33979,8.9941,0.027855,0,0,0,0
274.55,0.34161,9.0026,0.027985,0,0,0,0
275.05,0.34326,9.0104,0.027985,0,0,0,0
275.55,0.34505,9.0186,0.02837,0,0,0,0
276.05,0.34671,9.0267,0.028435,0,0,0,0
276.55,0.3484,9.0353,0.028596,0,0,0,0
277.05,0.35005,9.0431,0.028659,0,0,0,0
277.55,0.35181,9.0511,0.028692,0,0,0,0
278.05,0.35376,9.0586,0.028949,0,0,0,0
278.55,0.35578,9.0667,0.029174,0,0,0,0
279.05,0.35796,9.0746,0.029335,0,0,0,0
279.55,0.36031,9.0834,0.029561,0,0,0,0
280.05,0.36234,9.0913,0.02956,0,0,0,0
280.55,0.36435,9.0991,0.029657,0,0,0,0
281.05,0.36634,9.1067,0.02985,0,0,0,0
281.55,0.36816,9.115,0.030138,0,0,0,0
282.05,0.36995,9.123,0.030171,0,0,0,0
282.55,0.37174,9.1313,0.030396,0,0,0,0
283.05,0.37363,9.1391,0.03062,0,0,0,0
283.55,0.37555,9.1469,0.030909,0,0,0,0
284.05,0.37777,9.1541,0.031102,0,0,0,0
284.55,0.37978,9.1619,0.03123,0,0,0,0
285.05,0.3818,9.1697,0.031295,0,0,0,0
285.55,0.38435,9.178,0.031647,0,0,0,0
286.05,0.38667,9.1851,0.031712,0,0,0,0
286.55,0.38882,9.1924,0.031872,0,0,0,0
287.05,0.39074,9.1996,0.032128,0,0,0,0
287.55,0.3929,9.2077,0.032385,0,0,0,0
288.05,0.39482,9.2153,0.032385,0,0,0,0
288.55,0.39657,9.2234,0.032385,0,0,0,0
289.05,0.39839,9.2306,0.032609,0,0,0,0
289.55,0.40041,9.2379,0.032866,0,0,0,0
290.05,0.40237,9.2447,0.033058,0,0,0,0
290.55,0.40452,9.2526,0.033218,0,0,0,0
291.05,0.40687,9.2601,0.033443,0,0,0,0
291.55,0.40905,9.2676,0.033763,0,0,0,0
292.05,0.41137,9.2747,0.033635,0,0,0,0
292.55,0.41376,9.2823,0.034019,0,0,0,0
293.05,0.41574,9.29,0.034083,0,0,0,0
293.55,0.41766,9.2974,0.034371,0,0,0,0
294.05,0.41965,9.3049,0.034531,0,0,0,0
294.55,0.42154,9.3121,0.034851,0,0,0,0
295.05,0.42346,9.3196,0.034818,0,0,0,0
295.55,0.42524,9.3267,0.035074,0,0,0,0
296.05,0.4274,9.3343,0.035266,0,0,0,0
296.55,0.42935,9.3414,0.035552,0,0,0,0
297.05,0.43163,9.3477,0.035682,0,0,0,0
297.55,0.43382,9.3544,0.035713,0,0,0,0
298.05,0.43594,9.3616,0.036,0,0,0,0
298.55,0.43836,9.3689,0.036352,0,0,0,0
299.05,0.44057,9.3763,0.036384,0,0,0,0
299.55,0.4425,9.3839,0.036607,0,0,0,0
300.05,0.44451,9.3911,0.036863,0,0,0,0
300.55,0.4463,9.3979,0.037022,0,0,0,0
301.05,0.44816,9.4043,0.037214,0,0,0,0
301.55,0.45008,9.4103,0.037374,0,0,0,0
302.05,0.45173,9.417,0.037597,0,0,0,0
302.55,0.45395,9.424,0.037693,0,0,0,0
303.05,0.45614,9.4307,0.038011,0,0,0,0
303.55,0.45836,9.4376,0.038043,0,0,0,0
304.05,0.46087,9.4447,0.038266,0,0,0,0
304.55,0.46322,9.452,0.038363,0,0,0,0
305.05,0.46547,9.4584,0.038713,0,0,0,0
305.55,0.46763,9.4651,0.038744,0,0,0,0
306.05,0.46965,9.4724,0.038968,0,0,0,0
306.55,0.4715,9.4797,0.039191,0,0,0,0
307.05,0.47365,9.4857,0.039509,0,0,0,0
307.55,0.47547,9.4916,0.039636,0,0,0,0
308.05,0.47756,9.4977,0.039763,0,0,0,0
308.55,0.47981,9.5043,0.040018,0,0,0,0
309.05,0.48193,9.511,0.040337,0,0,0,0
309.55,0.48451,9.518,0.040558,0,0,0,0
310.05,0.48706,9.5244,0.040687,0,0,0,0
310.55,0.48961,9.5306,0.040878,0,0,0,0
311.05,0.4916,9.5367,0.04091,0,0,0,0
311.55,0.49388,9.5436,0.041291,0,0,0,0
312.05,0.49607,9.5504,0.041388,0,0,0,0
312.55,0.49815,9.557,0.041641,0,0,0,0
313.05,0.50007,9.5624,0.041832,0,0,0,0
313.55,0.50213,9.5684,0.041928,0,0,0,0
314.05,0.50401,9.5746,0.042245,0,0,0,0
314.55,0.50633,9.5814,0.042276,0,0,0,0
315.05,0.50888,9.5876,0.042372,0,0,0,0
315.55,0.51136,9.5941,0.042688,0,0,0,0
316.05,0.51395,9.6001,0.042879,0,0,0,0
316.55,0.51633,9.6066,0.042974,0,0,0,0
317.05,0.51868,9.6127,0.043387,0,0,0,0
317.55,0.5209,9.619,0.043546,0,0,0,0
318.05,0.52312,9.6247,0.043768,0,0,0,0
318.55,0.52507,9.6309,0.043926,0,0,0,0
319.05,0.52726,9.6371,0.043992,0,0,0,0
319.55,0.52928,9.6436,0.04434,0,0,0,0
320.05,0.53126,9.6494,0.044688,0,0,0,0
320.55,0.53358,9.6553,0.04472,0,0,0,0
321.05,0.53583,9.661,0.044973,0,0,0,0
321.55,0.53845,9.6673,0.045194,0,0,0,0
322.05,0.54123,9.6731,0.045417,0,0,0,0
322.55,0.54331,9.6794,0.045606,0,0,0,0
323.05,0.5459,9.6853,0.04589,0,0,0,0
323.55,0.54805,9.6914,0.045861,0,0,0,0
324.05,0.54994,9.6969,0.046364,0,0,0,0
324.55,0.55239,9.7034,0.046335,0,0,0,0
325.05,0.55417,9.7096,0.046492,0,0,0,0
325.55,0.55649,9.7156,0.046744,0,0,0,0
326.05,0.55851,9.7207,0.046966,0,0,0,0
326.55,0.5608,9.7266,0.047251,0,0,0,0
327.05,0.56315,9.7324,0.047377,0,0,0,0
327.55,0.56586,9.7386,0.047599,0,0,0,0
328.05,0.56828,9.7447,0.048042,0,0,0,0
328.55,0.57083,9.751,0.048262,0,0,0,0
329.05,0.57295,9.7567,0.048357,0,0,0,0
329.55,0.5756,9.7623,0.048547,0,0,0,0
330.05,0.57762,9.7677,0.048893,0,0,0,0
330.55,0.57967,9.7736,0.04924,0,0,0,0
331.05,0.58149,9.7791,0.049241,0,0,0,0
331.55,0.58374,9.7851,0.049366,0,0,0,0
332.05,0.58599,9.7909,0.049744,0,0,0,0
332.55,0.58828,9.7969,0.049933,0,0,0,0
333.05,0.59079,9.8021,0.050059,0,0,0,0
333.55,0.59334,9.8079,0.050404,0,0,0,0
334.05,0.59573,9.8131,0.05031,0,0,0,0
334.55,0.59828,9.8186,0.050815,0,0,0,0
335.05,0.60079,9.8237,0.050909,0,0,0,0
335.55,0.60285,9.8296,0.051034,0,0,0,0
336.05,0.60516,9.8351,0.051413,0,0,0,0
336.55,0.60715,9.8406,0.051852,0,0,0,0
337.05,0.6094,9.8457,0.051947,0,0,0,0
337.55,0.61169,9.8513,0.052262,0,0,0,0
338.05,0.61397,9.8567,0.05245,0,0,0,0
338.55,0.61642,9.8623,0.052828,0,0,0,0
339.05,0.61894,9.8677,0.053048,0,0,0,0
339.55,0.62152,9.8733,0.053143,0,0,0,0
340.05,0.6244,9.8784,0.053393,0,0,0,0
340.55,0.62675,9.8839,0.053707,0,0,0,0
341.05,0.62923,9.8889,0.053737,0,0,0,0
341.55,0.63145,9.8941,0.054021,0,0,0,0
342.05,0.63367,9.8989,0.054145,0,0,0,0
342.55,0.63592,9.9044,0.054554,0,0,0,0
343.05,0.63814,9.9096,0.05471,0,0,0,0
343.55,0.64043,9.9149,0.054803,0,0,0,0
344.05,0.64304,9.9197,0.055179,0,0,0,0
344.55,0.64553,9.925,0.055462,0,0,0,0
345.05,0.64827,9.93,0.055774,0,0,0,0
345.55,0.65106,9.9353,0.055962,0,0,0,0
346.05,0.65364,9.9404,0.05612,0,0,0,0
346.55,0.65622,9.9456,0.056464,0,0,0,0
347.05,0.65864,9.9504,0.056715,0,0,0,0
347.55,0.66069,9.9553,0.056996,0,0,0,0
348.05,0.66297,9.96,0.057183,0,0,0,0
348.55,0.66529,9.9653,0.057466,0,0,0,0
349.05,0.66764,9.9704,0.057622,0,0,0,0
349.55,0.67003,9.9756,0.057997,0,0,0,0
350.05,0.67248,9.9801,0.058373,0,0,0,0
350.55,0.67503,9.9851,0.058496,0,0,0,0
351.05,0.67804,9.9899,0.058652,0,0,0,0
351.55,0.68066,9.9951,0.058807,0,0,0,0
352.05,0.68317,9.9999,0.059245,0,0,0,0
352.55,0.68549,10.005,0.059337,0,0,0,0
353.05,0.68814,10.009,0.059682,0,0,0,0
353.55,0.69046,10.014,0.060181,0,0,0,0
354.05,0.69258,10.018,0.060087,0,0,0,0
354.55,0.69486,10.024,0.06043,0,0,0,0
355.05,0.69724,10.028,0.060647,0,0,0,0
355.55,0.69969,10.033,0.060866,0,0,0,0
356.05,0.70244,10.038,0.06124,0,0,0,0
356.55,0.70526,10.043,0.061551,0,0,0,0
357.05,0.70804,10.047,0.061645,0,0,0,0
357.55,0.71075,10.052,0.061894,0,0,0,0
358.05,0.7131,10.056,0.062299,0,0,0,0
358.55,0.71555,10.061,0.062485,0,0,0,0
359.05,0.71761,10.065,0.06261,0,0,0,0
359.55,0.71999,10.07,0.063075,0,0,0,0
360.05,0.72234,10.075,0.063449,0,0,0,0
360.55,0.72463,10.08,0.063637,0,0,0,0
361.05,0.72701,10.083,0.064071,0,0,0,0
361.55,0.72956,10.088,0.06438,0,0,0,0
362.05,0.73237,10.092,0.064411,0,0,0,0
362.55,0.73512,10.097,0.064876,0,0,0,0
363.05,0.73774,10.101,0.065125,0,0,0,0
363.55,0.74059,10.106,0.065528,0,0,0,0
364.05,0.74294,10.11,0.065559,0,0,0,0
364.55,0.74512,10.114,0.065932,0,0,0,0
365.05,0.74747,10.119,0.066272,0,0,0,0
365.55,0.74962,10.124,0.066366,0,0,0,0
366.05,0.75211,10.129,0.066768,0,0,0,0
366.55,0.75459,10.133,0.066861,0,0,0,0
367.05,0.75708,10.137,0.067109,0,0,0,0
367.55,0.75972,10.141,0.067729,0,0,0,0
368.05,0.7627,10.146,0.067913,0,0,0,0
368.55,0.76532,10.151,0.068348,0,0,0,0
369.05,0.76823,10.154,0.068749,0,0,0,0
369.55,0.77058,10.159,0.068841,0,0,0,0
370.05,0.77297,10.162,0.069213,0,0,0,0
370.55,0.77532,10.167,0.069553,0,0,0,0
371.05,0.7776,10.171,0.070016,0,0,0,0
371.55,0.77989,10.175,0.070201,0,0,0,0
372.05,0.78237,10.179,0.070541,0,0,0,0
372.55,0.78485,10.183,0.07085,0,0,0,0
373.05,0.78793,10.188,0.071279,0,0,0,0
373.55,0.79065,10.192,0.071527,0,0,0,0
374.05,0.79343,10.196,0.071896,0,0,0,0
374.55,0.79628,10.2,0.071958,0,0,0,0
375.05,0.79859,10.204,0.072205,0,0,0,0
375.55,0.80124,10.208,0.072389,0,0,0,0
376.05,0.80366,10.212,0.07279,0,0,0,0
376.55,0.80608,10.217,0.073006,0,0,0,0
377.05,0.80836,10.22,0.073468,0,0,0,0
377.55,0.81085,10.224,0.073775,0,0,0,0
378.05,0.81369,10.227,0.073838,0,0,0,0
378.55,0.81634,10.232,0.07442,0,0,0,0
379.05,0.81916,10.235,0.07476,0,0,0,0
379.55,0.82217,10.239,0.075191,0,0,0,0
380.05,0.82502,10.243,0.075373,0,0,0,0
380.55,0.8275,10.247,0.075681,0,0,0,0
381.05,0.83015,10.25,0.075925,0,0,0,0
381.55,0.83256,10.255,0.076448,0,0,0,0
382.05,0.83482,10.258,0.076877,0,0,0,0
382.55,0.83763,10.262,0.077122,0,0,0,0
383.05,0.83988,10.266,0.077306,0,0,0,0
383.55,0.84253,10.269,0.077857,0,0,0,0
384.05,0.84525,10.273,0.07801,0,0,0,0
384.55,0.84809,10.277,0.078225,0,0,0,0
385.05,0.85127,10.28,0.078684,0,0,0,0
385.55,0.85402,10.284,0.07896,0,0,0,0
386.05,0.857,10.287,0.079143,0,0,0,0
386.55,0.85955,10.292,0.079694,0,0,0,0
387.05,0.862,10.295,0.079877,0,0,0,0
387.55,0.86468,10.299,0.080275,0,0,0,0
388.05,0.86707,10.302,0.08055,0,0,0,0
388.55,0.86938,10.306,0.080977,0,0,0,0
389.05,0.87193,10.309,0.081221,0,0,0,0
389.55,0.87471,10.312,0.081739,0,0,0,0
390.05,0.8776,10.316,0.081893,0,0,0,0
390.55,0.88081,10.319,0.082351,0,0,0,0
391.05,0.88342,10.323,0.082718,0,0,0,0
391.55,0.8864,10.326,0.083022,0,0,0,0
392.05,0.88905,10.33,0.083357,0,0,0,0
392.55,0.8916,10.333,0.083874,0,0,0,0
393.05,0.89405,10.337,0.083905,0,0,0,0
393.55,0.8965,10.34,0.08424,0,0,0,0
394.05,0.89922,10.343,0.084605,0,0,0,0
394.55,0.9018,10.347,0.085093,0,0,0,0
395.05,0.90458,10.35,0.085365,0,0,0,0
395.55,0.90723,10.354,0.0857,0,0,0,0
396.05,0.9107,10.357,0.086066,0,0,0,0
396.55,0.91368,10.36,0.086521,0,0,0,0
397.05,0.9164,10.363,0.086764,0,0,0,0
397.55,0.91905,10.367,0.08728,0,0,0,0
398.05,0.92173,10.37,0.087582,0,0,0,0
398.55,0.92411,10.373,0.087948,0,0,0,0
399.05,0.92673,10.376,0.088311,0,0,0,0
399.55,0.92934,10.379,0.088734,0,0,0,0
400.05,0.93206,10.382,0.089067,0,0,0,0
400.55,0.93491,10.386,0.089492,0,0,0,0
401.05,0.93762,10.389,0.089736,0,0,0,0
401.55,0.94077,10.392,0.090219,0,0,0,0
402.05,0.94375,10.395,0.090521,0,0,0,0
402.55,0.94663,10.398,0.090944,0,0,0,0
403.05,0.94951,10.401,0.091215,0,0,0,0
403.55,0.95179,10.404,0.09161,0,0,0,0
404.05,0.95448,10.407,0.092002,0,0,0,0
404.55,0.95696,10.41,0.092304,0,0,0,0
405.05,0.95957,10.413,0.092757,0,0,0,0
405.55,0.96226,10.416,0.093149,0,0,0,0
406.05,0.9651,10.419,0.093571,0,0,0,0
406.55,0.96808,10.422,0.094025,0,0,0,0
407.05,0.97143,10.424,0.094537,0,0,0,0
407.55,0.97437,10.428,0.094868,0,0,0,0
408.05,0.97715,10.43,0.09526,0,0,0,0
408.55,0.9799,10.434,0.09577,0,0,0,0
409.05,0.98259,10.436,0.096193,0,0,0,0
409.55,0.98513,10.439,0.096673,0,0,0,0
410.05,0.98755,10.442,0.096854,0,0,0,0
410.55,0.9905,10.445,0.097455,0,0,0,0
411.05,0.99331,10.448,0.097755,0,0,0,0
411.55,0.99603,10.451,0.097996,0,0,0,0
412.05,0.99911,10.454,0.098327,0,0,0,0
412.55,1.0022,10.456,0.098775,0,0,0,0
413.05,1.0052,10.458,0.099077,0,0,0,0
413.55,1.0083,10.461,0.099256,0,0,0,0
414.05,1.0109,10.464,0.099825,0,0,0,0
414.55,1.0135,10.467,0.10028,0,0,0,0
415.05,1.0162,10.469,0.10063,0,0,0,0
415.55,1.0189,10.472,0.10105,0,0,0,0
416.05,1.0214,10.474,0.10138,0,0,0,0
416.55,1.0242,10.476,0.10201,0,0,0,0
417.05,1.0274,10.479,0.10234,0,0,0,0
417.55,1.0304,10.481,0.10288,0,0,0,0
418.05,1.0337,10.484,0.10321,0,0,0,0
418.55,1.0366,10.487,0.1038,0,0,0,0
419.05,1.0394,10.489,0.10428,0,0,0,0
419.55,1.0422,10.492,0.10482,0,0,0,0
420.05,1.0448,10.494,0.10503,0,0,0,0
420.55,1.0473,10.497,0.10562,0,0,0,0
421.05,1.0501,10.498,0.10601,0,0,0,0
421.55,1.0528,10.5,0.10655,0,0,0,0
422.05,1.0557,10.503,0.10684,0,0,0,0
422.55,1.0586,10.506,0.10711,0,0,0,0
423.05,1.062,10.508,0.10762,0,0,0,0
423.55,1.0651,10.51,0.10797,0,0,0,0
424.05,1.0676,10.512,0.1083,0,0,0,0
424.55,1.0706,10.514,0.10866,0,0,0,0
425.05,1.0736,10.516,0.10928,0,0,0,0
425.55,1.0759,10.519,0.1097,0,0,0,0
426.05,1.0788,10.521,0.1099,0,0,0,0
426.55,1.0814,10.523,0.11068,0,0,0,0
427.05,1.0841,10.525,0.11091,0,0,0,0
427.55,1.087,10.527,0.11151,0,0,0,0
428.05,1.09,10.529,0.11171,0,0,0,0
428.55,1.0933,10.531,0.11228,0,0,0,0
429.05,1.0964,10.533,0.11281,0,0,0,0
429.55,1.0994,10.535,0.11328,0,0,0,0
430.05,1.1021,10.537,0.11373,0,0,0,0
430.55,1.1049,10.539,0.11426,0,0,0,0
431.05,1.1074,10.541,0.11479,0,0,0,0
431.55,1.1102,10.543,0.11514,0,0,0,0
432.05,1.1129,10.545,0.11564,0,0,0,0
432.55,1.1158,10.547,0.1162,0,0,0,0
433.05,1.1185,10.549,0.11668,0,0,0,0
433.55,1.1218,10.551,0.11712,0,0,0,0
434.05,1.1251,10.553,0.1175,0,0,0,0
434.55,1.1282,10.555,0.118,0,0,0,0
435.05,1.1311,10.557,0.11847,0,0,0,0
435.55,1.134,10.559,0.11883,0,0,0,0
436.05,1.1369,10.56,0.11927,0,0,0,0
436.55,1.1394,10.562,0.11977,0,0,0,0
437.05,1.1421,10.564,0.12041,0,0,0,0
437.55,1.1449,10.566,0.12082,0,0,0,0
438.05,1.1476,10.567,0.12144,0,0,0,0
438.55,1.1507,10.569,0.12197,0,0,0,0
439.05,1.1541,10.571,0.12241,0,0,0,0
439.55,1.1572,10.572,0.12305,0,0,0,0
440.05,1.1604,10.574,0.12352,0,0,0,0
440.55,1.1632,10.576,0.12411,0,0,0,0
441.05,1.1663,10.577,0.12449,0,0,0,0
441.55,1.1688,10.579,0.12501,0,0,0,0
442.05,1.1715,10.581,0.12551,0,0,0,0
442.55,1.1744,10.582,0.126,0,0,0,0
443.05,1.1771,10.584,0.12653,0,0,0,0
443.55,1.1804,10.585,0.12717,0,0,0,0
444.05,1.1835,10.587,0.12752,0,0,0,0
444.55,1.1868,10.588,0.12805,0,0,0,0
445.05,1.1899,10.59,0.12872,0,0,0,0
445.55,1.1931,10.592,0.1291,0,0,0,0
446.05,1.1961,10.593,0.12973,0,0,0,0
446.55,1.1988,10.594,0.13023,0,0,0,0
447.05,1.2018,10.596,0.13093,0,0,0,0
447.55,1.2045,10.597,0.13142,0,0,0,0
448.05,1.2073,10.598,0.132,0,0,0,0
448.55,1.2104,10.599,0.13267,0,0,0,0
449.05,1.2135,10.6,0.13339,0,0,0,0
449.55,1.2165,10.601,0.134,0,0,0,0
450.05,1.22,10.603,0.13455,0,0,0,0
450.55,1.2234,10.604,0.13493,0,0,0,0
451.05,1.2265,10.606,0.13568,0,0,0,0
451.55,1.2294,10.607,0.13614,0,0,0,0
452.05,1.2318,10.608,0.13684,0,0,0,0
452.55,1.2344,10.609,0.13724,0,0,0,0
453.05,1.2378,10.61,0.13808,0,0,0,0
453.55,1.2406,10.611,0.13842,0,0,0,0
454.05,1.2439,10.613,0.13894,0,0,0,0
454.55,1.2473,10.614,0.1396,0,0,0,0
455.05,1.2507,10.614,0.14004,0,0,0,0
455.55,1.254,10.615,0.14076,0,0,0,0
456.05,1.257,10.616,0.14133,0,0,0,0
456.55,1.2601,10.617,0.14176,0,0,0,0
457.05,1.2628,10.618,0.14254,0,0,0,0
457.55,1.2656,10.619,0.14294,0,0,0,0
458.05,1.2687,10.62,0.14377,0,0,0,0
458.55,1.2715,10.621,0.14426,0,0,0,0
459.05,1.2747,10.622,0.14489,0,0,0,0
459.55,1.2781,10.623,0.14541,0,0,0,0
460.05,1.2816,10.623,0.14598,0,0,0,0
460.55,1.285,10.624,0.14687,0,0,0,0
461.05,1.2883,10.625,0.14755,0,0,0,0
461.55,1.2912,10.626,0.1481,0,0,0,0
462.05,1.294,10.627,0.14887,0,0,0,0
462.55,1.2967,10.627,0.14952,0,0,0,0
463.05,1.2995,10.628,0.15007,0,0,0,0
463.55,1.3025,10.629,0.15086,0,0,0,0
464.05,1.3057,10.629,0.15166,0,0,0,0
464.55,1.3096,10.63,0.15257,0,0,0,0
465.05,1.3131,10.63,0.15314,0,0,0,0
465.55,1.3164,10.63,0.15376,0,0,0,0
466.05,1.3195,10.631,0.15439,0,0,0,0
466.55,1.3223,10.631,0.15507,0,0,0,0
467.05,1.3251,10.631,0.15558,0,0,0,0
467.55,1.3282,10.632,0.15638,0,0,0,0
468.05,1.3312,10.632,0.15702,0,0,0,0
468.55,1.3344,10.633,0.15771,0,0,0,0
469.05,1.3377,10.633,0.15835,0,0,0,0
469.55,1.3405,10.633,0.15917,0,0,0,0
470.05,1.3445,10.634,0.15977,0,0,0,0
470.55,1.3478,10.634,0.1603,0,0,0,0
471.05,1.3513,10.634,0.16092,0,0,0,0
471.55,1.3545,10.634,0.16185,0,0,0,0
472.05,1.3574,10.634,0.16253,0,0,0,0
472.55,1.3605,10.635,0.16326,0,0,0,0
473.05,1.3633,10.635,0.16388,0,0,0,0
473.55,1.3666,10.634,0.16455,0,0,0,0
474.05,1.3695,10.634,0.16517,0,0,0,0
474.55,1.3726,10.634,0.16601,0,0,0,0
475.05,1.3762,10.635,0.16674,0,0,0,0
475.55,1.3798,10.635,0.16756,0,0,0,0
476.05,1.3832,10.635,0.1684,0,0,0,0
476.55,1.3865,10.635,0.16904,0,0,0,0
477.05,1.3894,10.635,0.16999,0,0,0,0
477.55,1.3926,10.635,0.17094,0,0,0,0
478.05,1.3954,10.635,0.17172,0,0,0,0
478.55,1.3985,10.635,0.1725,0,0,0,0
479.05,1.4015,10.634,0.17323,0,0,0,0
479.55,1.4049,10.634,0.17412,0,0,0,0
480.05,1.4084,10.634,0.17487,0,0,0,0
480.55,1.4119,10.634,0.17576,0,0,0,0
481.05,1.4155,10.633,0.1764,0,0,0,0
481.55,1.4187,10.633,0.1772,0,0,0,0
482.05,1.422,10.632,0.17776,0,0,0,0
482.55,1.4249,10.632,0.17856,0,0,0,0
483.05,1.4281,10.631,0.17945,0,0,0,0
483.55,1.4311,10.631,0.1802,0,0,0,0
484.05,1.4341,10.63,0.18122,0,0,0,0
484.55,1.4375,10.63,0.18216,0,0,0,0
485.05,1.4408,10.629,0.18282,0,0,0,0
485.55,1.4447,10.628,0.18392,0,0,0,0
486.05,1.4483,10.628,0.18472,0,0,0,0
486.55,1.4514,10.628,0.18544,0,0,0,0
487.05,1.4548,10.627,0.18635,0,0,0,0
487.55,1.4578,10.626,0.18745,0,0,0,0
488.05,1.4611,10.626,0.1881,0,0,0,0
488.55,1.4641,10.625,0.18882,0,0,0,0
489.05,1.4674,10.624,0.18975,0,0,0,0
489.55,1.4707,10.623,0.19065,0,0,0,0
490.05,1.4741,10.622,0.19158,0,0,0,0
490.55,1.478,10.621,0.19265,0,0,0,0
491.05,1.4815,10.62,0.1935,0,0,0,0
491.55,1.485,10.619,0.19434,0,0,0,0
492.05,1.4883,10.618,0.19527,0,0,0,0
492.55,1.4913,10.617,0.19616,0,0,0,0
493.05,1.4945,10.615,0.19712,0,0,0,0
493.55,1.4975,10.614,0.19801,0,0,0,0
494.05,1.5007,10.613,0.19894,0,0,0,0
494.55,1.5043,10.612,0.19975,0,0,0,0
495.05,1.5076,10.611,0.20078,0,0,0,0
495.55,1.5107,10.61,0.20181,0,0,0,0
496.05,1.5149,10.608,0.20254,0,0,0,0
496.55,1.5184,10.607,0.20338,0,0,0,0
497.05,1.5218,10.606,0.20443,0,0,0,0
497.55,1.5249,10.604,0.20541,0,0,0,0
498.05,1.528,10.603,0.20645,0,0,0,0
498.55,1.5309,10.601,0.20737,0,0,0,0
499.05,1.5344,10.599,0.20842,0,0,0,0
499.55,1.5377,10.598,0.20939,0,0,0,0
500.05,1.5411,10.596,0.21043,0,0,0,0
500.55,1.5447,10.594,0.21156,0,0,0,0
501.05,1.5484,10.593,0.21255,0,0,0,0
501.55,1.552,10.591,0.21362,0,0,0,0
502.05,1.5553,10.589,0.21464,0,0,0,0
502.55,1.5585,10.588,0.21563,0,0,0,0
503.05,1.5618,10.586,0.21672,0,0,0,0
503.55,1.5649,10.584,0.21798,0,0,0,0
504.05,1.5681,10.582,0.21904,0,0,0,0
504.55,1.5714,10.58,0.22008,0,0,0,0
505.05,1.5752,10.578,0.22114,0,0,0,0
505.55,1.5789,10.576,0.22218,0,0,0,0
506.05,1.5827,10.574,0.22318,0,0,0,0
506.55,1.5861,10.572,0.22387,0,0,0,0
507.05,1.5893,10.57,0.22493,0,0,0,0
507.55,1.5926,10.567,0.22599,0,0,0,0
508.05,1.5956,10.565,0.22702,0,0,0,0
508.55,1.5989,10.562,0.22836,0,0,0,0
509.05,1.6021,10.56,0.22939,0,0,0,0
509.55,1.6056,10.558,0.23047,0,0,0,0
510.05,1.6093,10.556,0.23147,0,0,0,0
510.55,1.6132,10.554,0.2327,0,0,0,0
511.05,1.6167,10.551,0.23359,0,0,0,0
511.55,1.6204,10.548,0.23475,0,0,0,0
512.05,1.6236,10.546,0.23574,0,0,0,0
512.55,1.6268,10.543,0.2371,0,0,0,0
513.05,1.63,10.541,0.2382,0,0,0,0
513.55,1.633,10.538,0.23937,0,0,0,0
514.05,1.6365,10.535,0.24049,0,0,0,0
514.55,1.6401,10.532,0.24169,0,0,0,0
515.05,1.6437,10.53,0.2431,0,0,0,0
515.55,1.6477,10.527,0.24439,0,0,0,0
516.05,1.6513,10.524,0.24538,0,0,0,0
516.55,1.6548,10.521,0.2466,0,0,0,0
517.05,1.658,10.518,0.24794,0,0,0,0
517.55,1.6613,10.514,0.24905,0,0,0,0
518.05,1.6645,10.511,0.25014,0,0,0,0
518.55,1.6678,10.508,0.25148,0,0,0,0
519.05,1.6711,10.505,0.25266,0,0,0,0
519.55,1.675,10.502,0.25374,0,0,0,0
520.05,1.6784,10.499,0.2552,0,0,0,0
520.55,1.6824,10.496,0.25649,0,0,0,0
521.05,1.6862,10.492,0.25772,0,0,0,0
521.55,1.6896,10.489,0.259,0,0,0,0
522.05,1.6927,10.486,0.26025,0,0,0,0
522.55,1.6963,10.482,0.26148,0,0,0,0
523.05,1.6992,10.479,0.26245,0,0,0,0
523.55,1.7028,10.475,0.26377,0,0,0,0
524.05,1.7062,10.471,0.26517,0,0,0,0
524.55,1.71,10.468,0.26646,0,0,0,0
525.05,1.7139,10.464,0.26783,0,0,0,0
525.55,1.7176,10.46,0.26917,0,0,0,0
526.05,1.7214,10.456,0.27049,0,0,0,0
526.55,1.7244,10.452,0.27203,0,0,0,0
527.05,1.7281,10.448,0.27314,0,0,0,0
527.55,1.7313,10.444,0.27448,0,0,0,0
528.05,1.7346,10.441,0.27578,0,0,0,0
528.55,1.738,10.437,0.27706,0,0,0,0
529.05,1.7415,10.432,0.27839,0,0,0,0
529.55,1.7454,10.428,0.27977,0,0,0,0
530.05,1.7494,10.423,0.28142,0,0,0,0
530.55,1.7532,10.419,0.28282,0,0,0,0
531.05,1.7569,10.415,0.28434,0,0,0,0
531.55,1.7602,10.411,0.28589,0,0,0,0
532.05,1.7637,10.407,0.28743,0,0,0,0
532.55,1.767,10.402,0.28867,0,0,0,0
533.05,1.7703,10.397,0.28986,0,0,0,0
533.55,1.774,10.393,0.29123,0,0,0,0
534.05,1.7778,10.388,0.29254,0,0,0,0
534.55,1.7815,10.383,0.29397,0,0,0,0
535.05,1.7854,10.377,0.29525,0,0,0,0
535.55,1.7891,10.373,0.29675,0,0,0,0
536.05,1.7929,10.367,0.29843,0,0,0,0
536.55,1.796,10.363,0.29988,0,0,0,0
537.05,1.7995,10.358,0.30133,0,0,0,0
537.55,1.8031,10.353,0.30314,0,0,0,0
538.05,1.8065,10.348,0.30456,0,0,0,0
538.55,1.8102,10.343,0.30585,0,0,0,0
539.05,1.8141,10.337,0.30734,0,0,0,0
539.55,1.8182,10.331,0.30892,0,0,0,0
540.05,1.8222,10.326,0.31052,0,0,0,0
540.55,1.8257,10.321,0.31206,0,0,0,0
541.05,1.8293,10.315,0.31344,0,0,0,0
541.55,1.8325,10.309,0.31513,0,0,0,0
542.05,1.8359,10.303,0.31648,0,0,0,0
542.55,1.8395,10.297,0.31803,0,0,0,0
543.05,1.8429,10.291,0.3194,0,0,0,0
543.55,1.8468,10.286,0.32085,0,0,0,0
544.05,1.8507,10.279,0.32246,0,0,0,0
544.55,1.8548,10.273,0.32397,0,0,0,0
545.05,1.8584,10.267,0.32536,0,0,0,0
545.55,1.8623,10.262,0.32715,0,0,0,0
546.05,1.8656,10.256,0.3288,0,0,0,0
546.55,1.8692,10.249,0.33013,0,0,0,0
547.05,1.8727,10.242,0.33178,0,0,0,0
547.55,1.8761,10.236,0.33325,0,0,0,0
548.05,1.8799,10.229,0.33525,0,0,0,0
548.55,1.8839,10.223,0.33681,0,0,0,0
549.05,1.888,10.216,0.33825,0,0,0,0
549.55,1.8918,10.209,0.34004,0,0,0,0
550.05,1.8957,10.202,0.3416,0,0,0,0
550.55,1.8992,10.195,0.34336,0,0,0,0
551.05,1.9026,10.188,0.34477,0,0,0,0
551.55,1.9062,10.181,0.34639,0,0,0,0
552.05,1.9097,10.173,0.34833,0,0,0,0
552.55,1.9134,10.166,0.35004,0,0,0,0
553.05,1.9176,10.158,0.3517,0,0,0,0
553.55,1.9217,10.152,0.35337,0,0,0,0
554.05,1.9257,10.144,0.35528,0,0,0,0
554.55,1.9298,10.136,0.35682,0,0,0,0
555.05,1.9332,10.128,0.35842,0,0,0,0
555.55,1.9368,10.121,0.35992,0,0,0,0
556.05,1.9405,10.112,0.36175,0,0,0,0
556.55,1.944,10.105,0.36329,0,0,0,0
557.05,1.9479,10.097,0.36539,0,0,0,0
557.55,1.9516,10.089,0.36725,0,0,0,0
558.05,1.9557,10.08,0.369,0,0,0,0
558.55,1.9601,10.071,0.37098,0,0,0,0
559.05,1.964,10.062,0.37272,0,0,0,0
559.55,1.9679,10.053,0.37464,0,0,0,0
560.05,1.9712,10.045,0.37616,0,0,0,0
560.55,1.975,10.036,0.37812,0,0,0,0
561.05,1.9784,10.027,0.3798,0,0,0,0
561.55,1.9822,10.018,0.38172,0,0,0,0
562.05,1.9863,10.008,0.38356,0,0,0,0
562.55,1.9904,9.9994,0.38532,0,0,0,0
563.05,1.9945,9.99,0.38762,0,0,0,0
563.55,1.9988,9.9801,0.38912,0,0,0,0
564.05,2.0028,9.9694,0.39119,0,0,0,0
564.55,2.0063,9.9596,0.39302,0,0,0,0
565.05,2.01,9.9491,0.39499,0,0,0,0
565.55,2.0138,9.9394,0.39667,0,0,0,0
566.05,2.0175,9.9299,0.39856,0,0,0,0
566.55,2.0214,9.9203,0.40069,0,0,0,0
567.05,2.0256,9.9089,0.40291,0,0,0,0
567.55,2.0298,9.8977,0.40506,0,0,0,0
568.05,2.034,9.8863,0.40751,0,0,0,0
568.55,2.038,9.8757,0.40923,0,0,0,0
569.05,2.0416,9.8649,0.41119,0,0,0,0
569.55,2.0453,9.8543,0.41323,0,0,0,0
570.05,2.049,9.8424,0.4152,0,0,0,0
570.55,2.0528,9.8306,0.41724,0,0,0,0
571.05,2.0569,9.8184,0.41899,0,0,0,0
571.55,2.0609,9.8074,0.4213,0,0,0,0
572.05,2.0654,9.7957,0.42352,0,0,0,0
572.55,2.0697,9.7831,0.42571,0,0,0,0
573.05,2.0736,9.7694,0.42774,0,0,0,0
573.55,2.0776,9.7566,0.42958,0,0,0,0
574.05,2.0812,9.7434,0.43163,0,0,0,0
574.55,2.0851,9.7314,0.43365,0,0,0,0
575.05,2.0888,9.7193,0.43554,0,0,0,0
575.55,2.093,9.7069,0.43784,0,0,0,0
576.05,2.097,9.692,0.44023,0,0,0,0
576.55,2.1015,9.6776,0.44214,0,0,0,0
577.05,2.106,9.6624,0.44456,0,0,0,0
577.55,2.11,9.6486,0.44679,0,0,0,0
578.05,2.1139,9.6343,0.44889,0,0,0,0
578.55,2.1178,9.6206,0.45103,0,0,0,0
579.05,2.1215,9.6051,0.45301,0,0,0,0
579.55,2.1256,9.5899,0.45526,0,0,0,0
580.05,2.1294,9.5739,0.45745,0,0,0,0
580.55,2.1343,9.559,0.45934,0,0,0,0
581.05,2.1386,9.5426,0.46191,0,0,0,0
581.55,2.1432,9.525,0.46496,0,0,0,0
582.05,2.1475,9.5059,0.46765,0,0,0,0
582.55,2.1515,9.4881,0.47013,0,0,0,0
583.05,2.1559,9.4693,0.4726,0,0,0,0
583.55,2.1604,9.4513,0.47497,0,0,0,0
584.05,2.166,9.4298,0.47797,0,0,0,0