File: polyN_optimization/DP600_results/DATA/NT6_45_1.csv
Time[s],Displacement[mm],Force[kN],AxStrain_1,AxStrain_2,Thickness[mm],OuterWidth[mm],InnerWidth[mm]
0.59,0,-0.01946,0,0,1.5281,20,9.8794
1.09,-0.000189,-0.02095,-0.00019902,0,0,0,0
1.59,6.1e-05,-0.021419,-0.00027404,0,0,0,0
2.09,0.000212,-0.0082738,-0.00013301,0,0,0,0
2.59,0.00015,0.019718,-5e-06,0,0,0,0
3.09,0.00059,0.053137,-0.00026103,0,0,0,0
3.59,0.000425,0.085145,-0.00031405,0,0,0,0
4.09,0.000745,0.11228,-6.5002e-05,0,0,0,0
4.59,0.000727,0.13958,-2.2e-05,0,0,0,0
5.09,0.000816,0.16656,7.2997e-05,0,0,0,0
5.59,0.000669,0.19329,3.1999e-05,0,0,0,0
6.09,0.000676,0.21471,-0.00015101,0,0,0,0
6.59,0.000744,0.233,6.5998e-05,0,0,0,0
7.09,0.000865,0.24757,8.1997e-05,0,0,0,0
7.59,0.000797,0.26229,3.8999e-05,0,0,0,0
8.09,0.00067,0.27843,0.00018798,0,0,0,0
8.59,0.000802,0.29858,5.6998e-05,0,0,0,0
9.09,0.000853,0.31828,0.00018898,0,0,0,0
9.59,0.000917,0.33844,0.00013699,0,0,0,0
10.09,0.001047,0.35656,3.9999e-05,0,0,0,0
10.59,0.000824,0.37415,0.00021998,0,0,0,0
11.09,0.001118,0.39143,0.00012299,0,0,0,0
11.59,0.001175,0.41057,0.00013899,0,0,0,0
12.09,0.001276,0.42986,0.00015399,0,0,0,0
12.59,0.001275,0.447,0.00018898,0,0,0,0
13.09,0.001638,0.464,-6.7002e-05,0,0,0,0
13.59,0.001541,0.48085,0.00030995,0,0,0,0
14.09,0.001562,0.50058,-4.4001e-05,0,0,0,0
14.59,0.001755,0.51928,0.00015699,0,0,0,0
15.09,0.001971,0.53872,0.00018598,0,0,0,0
15.59,0.001924,0.55656,0.00016599,0,0,0,0
16.09,0.001879,0.57529,8.3996e-05,0,0,0,0
16.59,0.002137,0.59285,7.8997e-05,0,0,0,0
17.09,0.00203,0.61215,-7.1003e-05,0,0,0,0
17.59,0.00206,0.63085,-5.2001e-05,0,0,0,0
18.09,0.002108,0.65043,0.00021298,0,0,0,0
18.59,0.001972,0.66842,-2.5e-05,0,0,0,0
19.09,0.002259,0.68801,0.00016299,0,0,0,0
19.59,0.002061,0.70871,0.00021498,0,0,0,0
20.09,0.002113,0.73086,0.00020298,0,0,0,0
20.59,0.002268,0.75085,0.00014099,0,0,0,0
21.09,0.002344,0.77115,0.00020198,0,0,0,0
21.59,0.002322,0.78971,0.00027896,0,0,0,0
22.09,0.002382,0.80858,0.00010499,0,0,0,0
22.59,0.002493,0.82757,0.00028596,0,0,0,0
23.09,0.002607,0.84958,0.00022697,0,0,0,0
23.59,0.00285,0.87028,0.00024597,0,0,0,0
24.09,0.003148,0.89172,6.1998e-05,0,0,0,0
24.59,0.003406,0.91128,0.00017698,0,0,0,0
25.09,0.003413,0.93158,0.00012499,0,0,0,0
25.59,0.003559,0.95057,0.00012199,0,0,0,0
26.09,0.003718,0.97172,-3e-05,0,0,0,0
26.59,0.003825,0.99228,-3e-06,0,0,0,0
27.09,0.003798,1.0137,-3.2001e-05,0,0,0,0
27.59,0.003602,1.0331,-0.00029004,0,0,0,0
28.09,0.003546,1.054,-0.00014601,0,0,0,0
28.59,0.003422,1.0751,-2e-06,0,0,0,0
29.09,0.003137,1.0977,7.9997e-05,0,0,0,0
29.59,0.003749,1.1183,-5.6002e-05,0,0,0,0
30.09,0.003639,1.1397,3.1999e-05,0,0,0,0
30.59,0.00355,1.1589,3.4999e-05,0,0,0,0
31.09,0.003706,1.1781,0.00016399,0,0,0,0
31.59,0.003791,1.1973,0.00034094,0,0,0,0
32.09,0.003841,1.2199,0.00022697,0,0,0,0
32.59,0.003709,1.241,4.5999e-05,0,0,0,0
33.09,0.003861,1.263,0.00025597,0,0,0,0
33.59,0.004283,1.283,0.00025897,0,0,0,0
34.09,0.004547,1.3039,0.00027196,0,0,0,0
34.59,0.004658,1.3233,0.00023797,0,0,0,0
35.09,0.004895,1.3444,0.00015699,0,0,0,0
35.59,0.005122,1.3649,8.1997e-05,0,0,0,0
36.09,0.005036,1.3861,3.1e-05,0,0,0,0
36.59,0.005669,1.4054,-0.00015701,0,0,0,0
37.09,0.005463,1.426,-0.00020002,0,0,0,0
37.59,0.005268,1.4471,1.5e-05,0,0,0,0
38.09,0.005156,1.4697,-3.7001e-05,0,0,0,0
38.59,0.005147,1.4906,-1e-06,0,0,0,0
39.09,0.005182,1.5121,1e-06,0,0,0,0
39.59,0.005118,1.5314,0.00011399,0,0,0,0
40.09,0.005221,1.5506,-0.00024103,0,0,0,0
40.59,0.005169,1.5724,0.00012699,0,0,0,0
41.09,0.005218,1.5961,0.00015999,0,0,0,0
41.59,0.005457,1.6187,0.00014599,0,0,0,0
42.09,0.005161,1.6393,0.00029696,0,0,0,0
42.59,0.005355,1.6604,0.00026696,0,0,0,0
43.09,0.005634,1.6794,0.00035794,0,0,0,0
43.59,0.005669,1.6986,0.00041891,0,0,0,0
44.09,0.006076,1.7176,0.00030695,0,0,0,0
44.59,0.006249,1.7399,0.00025697,0,0,0,0
45.09,0.00671,1.761,0.00034494,0,0,0,0
45.59,0.006876,1.7827,0.00021898,0,0,0,0
46.09,0.007058,1.8023,0.00021198,0,0,0,0
46.59,0.007361,1.8226,0.00011799,0,0,0,0
47.09,0.007371,1.8416,2e-05,0,0,0,0
47.59,0.007281,1.8624,0.00010199,0,0,0,0
48.09,0.007073,1.8826,2.7e-05,0,0,0,0
48.59,0.007247,1.9034,7.4997e-05,0,0,0,0
49.09,0.006859,1.9224,9.4995e-05,0,0,0,0
49.59,0.006994,1.9427,3.5999e-05,0,0,0,0
50.09,0.006645,1.9634,1.4e-05,0,0,0,0
50.59,0.006337,1.9829,0.00019998,0,0,0,0
51.09,0.006332,2.002,5.2999e-05,0,0,0,0
51.59,0.006506,2.022,0.00018598,0,0,0,0
52.09,0.006435,2.0426,0.00021698,0,0,0,0
52.59,0.006668,2.0616,0.00013199,0,0,0,0
53.09,0.006982,2.0821,0.00019898,0,0,0,0
53.59,0.006942,2.1021,0.00030395,0,0,0,0
54.09,0.007169,2.1229,0.00011799,0,0,0,0
54.59,0.007471,2.1417,0.00035994,0,0,0,0
55.09,0.008108,2.1617,0.00014799,0,0,0,0
55.59,0.008508,2.1827,0.00030395,0,0,0,0
56.09,0.008763,2.2049,0.00028696,0,0,0,0
56.59,0.009192,2.2251,0.00027896,0,0,0,0
57.09,0.009218,2.2461,-6.2002e-05,0,0,0,0
57.59,0.009244,2.2651,-0.00012601,0,0,0,0
58.09,0.009307,2.2839,3.1e-05,0,0,0,0
58.59,0.008984,2.3026,7.7997e-05,0,0,0,0
59.09,0.009067,2.3249,-3.6001e-05,0,0,0,0
59.59,0.008755,2.346,6.8998e-05,0,0,0,0
60.09,0.008735,2.3677,-0.00012301,0,0,0,0
60.59,0.0087,2.387,1.1e-05,0,0,0,0
61.09,0.008722,2.4069,9.3996e-05,0,0,0,0
61.59,0.008439,2.4256,0.00015499,0,0,0,0
62.09,0.008778,2.4464,0.00023197,0,0,0,0
62.59,0.008846,2.4666,0.00029696,0,0,0,0
63.09,0.008965,2.4874,0.00010599,0,0,0,0
63.59,0.009051,2.5061,0.00016999,0,0,0,0
64.09,0.009451,2.526,0.00043091,0,0,0,0
64.59,0.009707,2.5467,0.00032195,0,0,0,0
65.09,0.010182,2.5689,0.00026896,0,0,0,0
65.59,0.010303,2.5889,0.00021198,0,0,0,0
66.09,0.010774,2.6094,0.00015099,0,0,0,0
66.59,0.01097,2.6281,0.00030195,0,0,0,0
67.09,0.011352,2.6469,2.6e-05,0,0,0,0
67.59,0.011321,2.6659,9.3996e-05,0,0,0,0
68.09,0.01136,2.6883,3e-06,0,0,0,0
68.59,0.011319,2.7093,0.00016799,0,0,0,0
69.09,0.010975,2.7307,0.00015499,0,0,0,0
69.59,0.010866,2.7503,-2.6e-05,0,0,0,0
70.09,0.010782,2.7703,1.8e-05,0,0,0,0
70.59,0.010722,2.7891,-0.00010901,0,0,0,0
71.09,0.010619,2.8101,0.00020798,0,0,0,0
71.59,0.010359,2.8306,0.00020598,0,0,0,0
72.09,0.010568,2.8514,0.00020798,0,0,0,0
72.59,0.010752,2.8701,0.00022098,0,0,0,0
73.09,0.010913,2.8903,0.00012599,0,0,0,0
73.59,0.01101,2.9111,0.00031895,0,0,0,0
74.09,0.011312,2.9334,0.00043191,0,0,0,0
74.59,0.011593,2.9536,0.00031295,0,0,0,0
75.09,0.011967,2.9744,0.00019098,0,0,0,0
75.59,0.012368,2.9931,0.00023497,0,0,0,0
76.09,0.012622,3.0116,0.00028596,0,0,0,0
76.59,0.012948,3.0299,0.00033294,0,0,0,0
77.09,0.013254,3.0516,0.00016599,0,0,0,0
77.59,0.013611,3.0723,0.00031695,0,0,0,0
78.09,0.013597,3.0937,0.00037993,0,0,0,0
78.59,0.013654,3.1133,0.00020298,0,0,0,0
79.09,0.013412,3.1336,0.00019198,0,0,0,0
79.59,0.013304,3.1523,0.00015599,0,0,0,0
80.09,0.013005,3.1724,0.00013499,0,0,0,0
80.59,0.012934,3.1919,0.00011599,0,0,0,0
81.09,0.012813,3.2124,4.3999e-05,0,0,0,0
81.59,0.012499,3.2311,9.9995e-05,0,0,0,0
82.09,0.012705,3.251,0.00023197,0,0,0,0
82.59,0.012573,3.2714,0.00035094,0,0,0,0
83.09,0.012938,3.2934,0.00030295,0,0,0,0
83.59,0.013003,3.3136,0.00048288,0,0,0,0
84.09,0.013091,3.3344,0.00046889,0,0,0,0
84.59,0.01322,3.3534,0.00038293,0,0,0,0
85.09,0.013886,3.3723,0.0004549,0,0,0,0
85.59,0.014281,3.3911,0.00067577,0,0,0,0
86.09,0.014797,3.413,0.00053786,0,0,0,0
86.59,0.015213,3.4336,0.0004399,0,0,0,0
87.09,0.01545,3.4547,0.00051187,0,0,0,0
87.59,0.01569,3.474,0.00036093,0,0,0,0
88.09,0.015922,3.4939,0.00049988,0,0,0,0
88.59,0.015863,3.5123,0.00039092,0,0,0,0
89.09,0.015653,3.5327,0.0004479,0,0,0,0
89.59,0.015352,3.5526,0.00033794,0,0,0,0
90.09,0.01517,3.5731,7.2997e-05,0,0,0,0
90.59,0.01515,3.5914,0.00028796,0,0,0,0
91.09,0.014898,3.6107,0.00022997,0,0,0,0
91.59,0.014899,3.6307,0.00046889,0,0,0,0
92.09,0.014633,3.6521,0.00038792,0,0,0,0
92.59,0.014764,3.6719,0.00051787,0,0,0,0
93.09,0.014949,3.6919,0.00038992,0,0,0,0
93.59,0.015315,3.71,0.00046389,0,0,0,0
94.09,0.015408,3.7283,0.00049988,0,0,0,0
94.59,0.015911,3.7469,0.00064979,0,0,0,0
95.09,0.016176,3.7686,0.00041192,0,0,0,0
95.59,0.016597,3.789,0.00076771,0,0,0,0
96.09,0.016874,3.81,0.00082366,0,0,0,0
96.59,0.017563,3.829,0.00070675,0,0,0,0
97.09,0.017655,3.8489,0.00059282,0,0,0,0
97.59,0.017934,3.8676,0.00068676,0,0,0,0
98.09,0.018212,3.8879,0.00092557,0,0,0,0
98.59,0.018163,3.9069,0.00059182,0,0,0,0
99.09,0.018081,3.9264,0.00078869,0,0,0,0
99.59,0.018164,3.9444,0.00053386,0,0,0,0
100.09,0.017819,3.9643,0.00041991,0,0,0,0
100.59,0.017605,3.9849,0.00049988,0,0,0,0
101.09,0.017507,4.0064,0.00058983,0,0,0,0
101.59,0.017386,4.0259,0.00043291,0,0,0,0
102.09,0.017274,4.0461,0.00050487,0,0,0,0
102.59,0.017176,4.0644,0.00048588,0,0,0,0
103.09,0.017414,4.0829,0.00058983,0,0,0,0
103.59,0.017435,4.1013,0.00061181,0,0,0,0
104.09,0.017785,4.1226,0.00061081,0,0,0,0
104.59,0.0181,4.1426,0.00078969,0,0,0,0
105.09,0.018523,4.1637,0.00083665,0,0,0,0
105.59,0.019088,4.183,0.00087761,0,0,0,0
106.09,0.019373,4.2026,0.00081767,0,0,0,0
106.59,0.019767,4.2209,0.00085264,0,0,0,0
107.09,0.020114,4.2409,0.00090659,0,0,0,0
107.59,0.019976,4.2601,0.00082366,0,0,0,0
108.09,0.020413,4.2801,0.00081767,0,0,0,0
108.59,0.02042,4.2984,0.00095454,0,0,0,0
109.09,0.02045,4.318,0.00087362,0,0,0,0
109.59,0.020256,4.3381,0.00080368,0,0,0,0
110.09,0.020454,4.3594,0.00040192,0,0,0,0
110.59,0.020587,4.3789,0.00069876,0,0,0,0
111.09,0.020067,4.3991,0.00049788,0,0,0,0
111.59,0.019946,4.4174,0.00057084,0,0,0,0
112.09,0.020078,4.4356,0.00069676,0,0,0,0
112.59,0.020044,4.4539,0.00059782,0,0,0,0
113.09,0.020012,4.4753,0.00079668,0,0,0,0
113.59,0.020111,4.4956,0.00072973,0,0,0,0
114.09,0.020343,4.5164,0.00066278,0,0,0,0
114.59,0.020543,4.535,0.00066478,0,0,0,0
115.09,0.021071,4.5539,0.00082866,0,0,0,0
115.59,0.021436,4.5716,0.00086463,0,0,0,0
116.09,0.022032,4.5914,0.00093257,0,0,0,0
116.59,0.022263,4.6109,0.00093157,0,0,0,0
117.09,0.022596,4.6309,0.00086662,0,0,0,0
117.59,0.022728,4.6487,0.00086762,0,0,0,0
118.09,0.022992,4.6674,0.00083665,0,0,0,0
118.59,0.023092,4.687,0.0011334,0,0,0,0
119.09,0.02339,4.7081,0.00080568,0,0,0,0
119.59,0.023224,4.7276,0.00076771,0,0,0,0
120.09,0.023222,4.7474,0.00086762,0,0,0,0
120.59,0.023325,4.7654,0.00070375,0,0,0,0
121.09,0.023092,4.7833,0.00073573,0,0,0,0
121.59,0.023256,4.8011,0.00066778,0,0,0,0
122.09,0.023058,4.822,0.00096553,0,0,0,0
122.59,0.023025,4.8416,0.00073373,0,0,0,0
123.09,0.023058,4.8614,0.00080568,0,0,0,0
123.59,0.023225,4.8796,0.00086563,0,0,0,0
124.09,0.023391,4.8986,0.00090559,0,0,0,0
124.59,0.023589,4.9163,0.00083865,0,0,0,0
125.09,0.023889,4.9354,0.00086962,0,0,0,0
125.59,0.02455,4.9539,0.00093157,0,0,0,0
126.09,0.025048,4.9734,0.00073973,0,0,0,0
126.59,0.025379,4.9911,0.0010395,0,0,0,0
127.09,0.02551,5.0103,0.00090559,0,0,0,0
127.59,0.026009,5.0301,0.0012023,0,0,0,0
128.09,0.026073,5.0511,0.0011653,0,0,0,0
128.59,0.026241,5.0699,0.00094056,0,0,0,0
129.09,0.026273,5.0894,0.00096853,0,0,0,0
129.59,0.026637,5.1074,0.00097752,0,0,0,0
130.09,0.026637,5.1253,0.0010015,0,0,0,0
130.59,0.026769,5.1429,0.00096653,0,0,0,0
131.09,0.02667,5.1633,0.00090159,0,0,0,0
131.59,0.026968,5.1826,0.00093556,0,0,0,0
132.09,0.027035,5.2027,0.0008996,0,0,0,0
132.59,0.027101,5.221,0.00086762,0,0,0,0
133.09,0.0271,5.2396,0.0010045,0,0,0,0
133.59,0.027366,5.2569,0.00094355,0,0,0,0
134.09,0.0274,5.2761,0.00093356,0,0,0,0
134.59,0.027698,5.2949,0.00086962,0,0,0,0
135.09,0.02803,5.3141,0.0011054,0,0,0,0
135.59,0.028361,5.3314,0.0010974,0,0,0,0
136.09,0.028956,5.3497,0.0011334,0,0,0,0
136.59,0.029156,5.3687,0.0013681,0,0,0,0
137.09,0.029652,5.3891,0.0013391,0,0,0,0
137.59,0.030049,5.4079,0.0015648,0,0,0,0
138.09,0.030117,5.4271,0.0013401,0,0,0,0
138.59,0.030382,5.4444,0.0013061,0,0,0,0
139.09,0.030614,5.4616,0.001404,0,0,0,0
139.59,0.030746,5.4789,0.0015428,0,0,0,0
140.09,0.030846,5.4993,0.0013051,0,0,0,0
140.59,0.031145,5.5183,0.0013771,0,0,0,0
141.09,0.031443,5.5377,0.001405,0,0,0,0
141.59,0.031442,5.5553,0.001442,0,0,0,0
142.09,0.031577,5.5736,0.0013071,0,0,0,0
142.59,0.03181,5.5906,0.0013741,0,0,0,0
143.09,0.031942,5.6094,0.0012412,0,0,0,0
143.59,0.032507,5.6276,0.001406,0,0,0,0
144.09,0.033069,5.6464,0.001408,0,0,0,0
144.59,0.033368,5.6634,0.0013761,0,0,0,0
145.09,0.033699,5.682,0.0015029,0,0,0,0
145.59,0.033999,5.7011,0.001446,0,0,0,0
146.09,0.034265,5.7214,0.0014749,0,0,0,0
146.59,0.034598,5.7396,0.0015827,0,0,0,0
147.09,0.034929,5.7581,0.0016436,0,0,0,0
147.59,0.034998,5.7747,0.0019052,0,0,0,0
148.09,0.035492,5.7916,0.0018772,0,0,0,0
148.59,0.035593,5.8086,0.0016766,0,0,0,0
149.09,0.035924,5.8283,0.0018802,0,0,0,0
149.59,0.036059,5.8466,0.0019741,0,0,0,0
150.09,0.036356,5.8657,0.0020778,0,0,0,0
150.59,0.036986,5.8833,0.0021736,0,0,0,0
151.09,0.037352,5.9013,0.0020399,0,0,0,0
151.59,0.037486,5.9179,0.0019461,0,0,0,0
152.09,0.037947,5.9361,0.0017814,0,0,0,0
152.59,0.03848,5.9539,0.0018124,0,0,0,0
153.09,0.039178,5.9721,0.0017495,0,0,0,0
153.59,0.039676,5.9887,0.0017125,0,0,0,0
154.09,0.039975,6.0064,0.0019112,0,0,0,0
154.59,0.04087,6.0247,0.0018812,0,0,0,0
155.09,0.041402,6.0439,0.0019182,0,0,0,0
155.59,0.041899,6.0611,0.0021397,0,0,0,0
156.09,0.042132,6.0791,0.0022744,0,0,0,0
156.59,0.042234,6.096,0.0022155,0,0,0,0
157.09,0.042499,6.1127,0.0022475,0,0,0,0
157.59,0.042865,6.1291,0.0024789,0,0,0,0
158.09,0.043198,6.1477,0.0026804,0,0,0,0
158.59,0.043365,6.1651,0.002842,0,0,0,0
159.09,0.043402,6.1831,0.0029477,0,0,0,0
159.59,0.0439,6.1999,0.0030753,0,0,0,0
160.09,0.044298,6.217,0.0032437,0,0,0,0
160.59,0.045092,6.2329,0.0032128,0,0,0,0
161.09,0.045393,6.2501,0.0030832,0,0,0,0
161.59,0.046023,6.2669,0.0030434,0,0,0,0
162.09,0.04695,6.2841,0.0030783,0,0,0,0
162.59,0.047745,6.3,0.0027761,0,0,0,0
163.09,0.048643,6.3169,0.0030414,0,0,0,0
163.59,0.049339,6.3343,0.0029108,0,0,0,0
164.09,0.050302,6.3529,0.0030783,0,0,0,0
164.59,0.051063,6.3699,0.0029128,0,0,0,0
165.09,0.051495,6.3869,0.0031779,0,0,0,0
165.59,0.051928,6.402,0.0030773,0,0,0,0
166.09,0.052423,6.4173,0.0031102,0,0,0,0
166.59,0.052887,6.4326,0.0033095,0,0,0,0
167.09,0.05312,6.4506,0.0035387,0,0,0,0
167.59,0.053518,6.4676,0.0036732,0,0,0,0
168.09,0.053984,6.4851,0.0038705,0,0,0,0
168.59,0.054546,6.5006,0.0040418,0,0,0,0
169.09,0.054615,6.5163,0.0042061,0,0,0,0
169.59,0.05541,6.5311,0.0044023,0,0,0,0
170.09,0.055908,6.5479,0.0045068,0,0,0,0
170.59,0.056736,6.5639,0.0045656,0,0,0,0
171.09,0.057365,6.5801,0.0046014,0,0,0,0
171.59,0.058159,6.595,0.004469,0,0,0,0
172.09,0.059386,6.6111,0.0045666,0,0,0,0
172.59,0.060082,6.6277,0.0045994,0,0,0,0
173.09,0.06131,6.6451,0.0045685,0,0,0,0
173.59,0.061872,6.6609,0.0047676,0,0,0,0
174.09,0.06257,6.6769,0.0043037,0,0,0,0
174.59,0.063332,6.6913,0.0044401,0,0,0,0
175.09,0.063994,6.706,0.0044322,0,0,0,0
175.59,0.064688,6.7209,0.0045158,0,0,0,0
176.09,0.065284,6.7377,0.0045437,0,0,0,0
176.59,0.065982,6.7531,0.0046402,0,0,0,0
177.09,0.066612,6.7691,0.0049378,0,0,0,0
177.59,0.067474,6.7839,0.0051666,0,0,0,0
178.09,0.068135,6.799,0.0052333,0,0,0,0
178.59,0.069426,6.8131,0.0053029,0,0,0,0
179.09,0.070223,6.8286,0.0056619,0,0,0,0
179.59,0.071251,6.8434,0.0059622,0,0,0,0
180.09,0.072213,6.8589,0.0063587,0,0,0,0
180.59,0.073406,6.873,0.006621,0,0,0,0
181.09,0.074104,6.8879,0.0064541,0,0,0,0
181.59,0.07483,6.903,0.0064203,0,0,0,0
182.09,0.075561,6.9189,0.0065227,0,0,0,0
182.59,0.076422,6.9323,0.0062902,0,0,0,0
183.09,0.076952,6.9469,0.006161,0,0,0,0
183.59,0.077615,6.9611,0.0061282,0,0,0,0
184.09,0.078046,6.9769,0.0060994,0,0,0,0
184.59,0.078974,6.9909,0.0060636,0,0,0,0
185.09,0.079769,7.0061,0.0060974,0,0,0,0
185.59,0.0804,7.0201,0.0062355,0,0,0,0
186.09,0.081459,7.0347,0.0062335,0,0,0,0
186.59,0.082321,7.0481,0.0062315,0,0,0,0
187.09,0.083481,7.0629,0.006629,0,0,0,0
187.59,0.08464,7.0771,0.0066618,0,0,0,0
188.09,0.086133,7.0919,0.0071265,0,0,0,0
188.59,0.087427,7.1059,0.0072923,0,0,0,0
189.09,0.088486,7.1201,0.0074919,0,0,0,0
189.59,0.089648,7.1341,0.0077429,0,0,0,0
190.09,0.090775,7.1486,0.0080485,0,0,0,0
190.59,0.091836,7.1624,0.0083758,0,0,0,0
191.09,0.092597,7.1769,0.0086029,0,0,0,0
191.59,0.093527,7.1903,0.0085682,0,0,0,0
192.09,0.09442,7.2043,0.0085097,0,0,0,0
192.59,0.095183,7.2174,0.0088725,0,0,0,0
193.09,0.096244,7.2319,0.0085474,0,0,0,0
193.59,0.096906,7.2451,0.0084809,0,0,0,0
194.09,0.097936,7.2596,0.0082152,0,0,0,0
194.59,0.099261,7.2724,0.0080872,0,0,0,0
195.09,0.10039,7.2857,0.0079989,0,0,0,0
195.59,0.10158,7.2981,0.0080247,0,0,0,0
196.09,0.10287,7.313,0.0080594,0,0,0,0
196.59,0.10404,7.3271,0.0082866,0,0,0,0
197.09,0.1051,7.3416,0.0084552,0,0,0,0
197.59,0.10626,7.3544,0.0086247,0,0,0,0
198.09,0.10712,7.3674,0.0089142,0,0,0,0
198.59,0.10782,7.3797,0.0092858,0,0,0,0
199.09,0.10868,7.3933,0.0097038,0,0,0,0
199.59,0.10971,7.4067,0.0099038,0,0,0,0
200.09,0.1107,7.4203,0.010168,0,0,0,0
200.59,0.1117,7.4323,0.010333,0,0,0,0
201.09,0.11256,7.4449,0.010925,0,0,0,0
201.59,0.11375,7.458,0.010952,0,0,0,0
202.09,0.11495,7.4721,0.01099,0,0,0,0
202.59,0.11651,7.4851,0.01083,0,0,0,0
203.09,0.11813,7.4983,0.010759,0,0,0,0
203.59,0.11952,7.5099,0.010896,0,0,0,0
204.09,0.12108,7.5214,0.01058,0,0,0,0
204.59,0.12238,7.5331,0.010574,0,0,0,0
205.09,0.1235,7.5467,0.010379,0,0,0,0
205.59,0.12459,7.5594,0.010255,0,0,0,0
206.09,0.12566,7.5726,0.01032,0,0,0,0
206.59,0.12685,7.5847,0.010419,0,0,0,0
207.09,0.12772,7.5971,0.010581,0,0,0,0
207.59,0.12897,7.6087,0.010781,0,0,0,0
208.09,0.1301,7.6216,0.011146,0,0,0,0
208.59,0.13116,7.6341,0.011471,0,0,0,0
209.09,0.13232,7.6469,0.011738,0,0,0,0
209.59,0.13381,7.6583,0.011929,0,0,0,0
210.09,0.13504,7.6703,0.01255,0,0,0,0
210.59,0.13653,7.6826,0.012746,0,0,0,0
211.09,0.13809,7.6959,0.013111,0,0,0,0
211.59,0.13945,7.7079,0.013465,0,0,0,0
212.09,0.14088,7.7201,0.013409,0,0,0,0
212.59,0.14171,7.7313,0.013562,0,0,0,0
213.09,0.14286,7.7427,0.01331,0,0,0,0
213.59,0.14383,7.7541,0.013317,0,0,0,0
214.09,0.14529,7.7674,0.013021,0,0,0,0
214.59,0.14602,7.7797,0.013014,0,0,0,0
215.09,0.14705,7.7926,0.012725,0,0,0,0
215.59,0.14821,7.8044,0.012726,0,0,0,0
216.09,0.14953,7.8164,0.012667,0,0,0,0
216.59,0.15082,7.8274,0.0128,0,0,0,0
217.09,0.15231,7.8396,0.0127,0,0,0,0
217.59,0.1541,7.8514,0.013193,0,0,0,0
218.09,0.15566,7.8636,0.013323,0,0,0,0
218.59,0.15732,7.8746,0.013489,0,0,0,0
219.09,0.15901,7.886,0.013874,0,0,0,0
219.59,0.16037,7.8979,0.014206,0,0,0,0
220.09,0.16186,7.9106,0.014661,0,0,0,0
220.59,0.16292,7.9221,0.014953,0,0,0,0
221.09,0.16418,7.9339,0.015597,0,0,0,0
221.59,0.16541,7.9446,0.015632,0,0,0,0
222.09,0.16673,7.9551,0.015568,0,0,0,0
222.59,0.16809,7.9657,0.015768,0,0,0,0
223.09,0.16938,7.9784,0.015862,0,0,0,0
223.59,0.17094,7.9904,0.015605,0,0,0,0
224.09,0.1725,8.0023,0.015505,0,0,0,0
224.59,0.17439,8.0127,0.015513,0,0,0,0
225.09,0.17614,8.0237,0.015376,0,0,0,0
225.59,0.1776,8.0341,0.015277,0,0,0,0
226.09,0.17942,8.0459,0.015244,0,0,0,0
226.59,0.18058,8.0571,0.015113,0,0,0,0
227.09,0.18207,8.0686,0.015225,0,0,0,0
227.59,0.18337,8.0786,0.015411,0,0,0,0
228.09,0.18459,8.0893,0.015805,0,0,0,0
228.59,0.18582,8.1006,0.016032,0,0,0,0
229.09,0.18698,8.1126,0.016253,0,0,0,0
229.59,0.18834,8.1234,0.016745,0,0,0,0
230.09,0.18956,8.1346,0.01694,0,0,0,0
230.59,0.19106,8.1446,0.017293,0,0,0,0
231.09,0.19251,8.1547,0.017522,0,0,0,0
231.59,0.1942,8.1649,0.017839,0,0,0,0
232.09,0.19589,8.1767,0.018103,0,0,0,0
232.59,0.19781,8.1877,0.018304,0,0,0,0
233.09,0.19931,8.1984,0.018295,0,0,0,0
233.59,0.20073,8.2084,0.018209,0,0,0,0
234.09,0.20232,8.2196,0.018361,0,0,0,0
234.59,0.20355,8.2301,0.018241,0,0,0,0
235.09,0.20504,8.2409,0.01818,0,0,0,0
235.59,0.2062,8.2511,0.018011,0,0,0,0
236.09,0.20769,8.2616,0.018015,0,0,0,0
236.59,0.20928,8.2709,0.018044,0,0,0,0
237.09,0.2108,8.281,0.017853,0,0,0,0
237.59,0.21233,8.291,0.018207,0,0,0,0
238.09,0.21415,8.302,0.01818,0,0,0,0
238.59,0.21611,8.312,0.018437,0,0,0,0
239.09,0.21809,8.3227,0.018792,0,0,0,0
239.59,0.21998,8.3323,0.018988,0,0,0,0
240.09,0.22141,8.3424,0.019312,0,0,0,0
240.59,0.22317,8.3521,0.019698,0,0,0,0
241.09,0.22476,8.3631,0.020153,0,0,0,0
241.59,0.22618,8.3733,0.020409,0,0,0,0
242.09,0.22771,8.3837,0.020413,0,0,0,0
242.59,0.22923,8.3933,0.020867,0,0,0,0
243.09,0.23069,8.4031,0.020803,0,0,0,0
243.59,0.23221,8.4124,0.0209,0,0,0,0
244.09,0.2337,8.4226,0.020899,0,0,0,0
244.59,0.23529,8.4324,0.020872,0,0,0,0
245.09,0.23718,8.4426,0.020937,0,0,0,0
245.59,0.2392,8.4519,0.020972,0,0,0,0
246.09,0.2408,8.4614,0.021003,0,0,0,0
246.59,0.24301,8.4711,0.020869,0,0,0,0
247.09,0.24434,8.4816,0.021167,0,0,0,0
247.59,0.24613,8.4911,0.021072,0,0,0,0
248.09,0.24755,8.5009,0.02149,0,0,0,0
248.59,0.24872,8.5099,0.021426,0,0,0,0
249.09,0.25027,8.5189,0.02149,0,0,0,0
249.59,0.25177,8.5277,0.021812,0,0,0,0
250.09,0.25306,8.5379,0.022199,0,0,0,0
250.59,0.25478,8.5476,0.022133,0,0,0,0
251.09,0.25627,8.5577,0.022625,0,0,0,0
251.59,0.25803,8.567,0.022883,0,0,0,0
252.09,0.26002,8.5761,0.022944,0,0,0,0
252.59,0.26207,8.5847,0.023434,0,0,0,0
253.09,0.26403,8.5943,0.023594,0,0,0,0
253.59,0.26575,8.6037,0.023502,0,0,0,0
254.09,0.26758,8.6133,0.023823,0,0,0,0
254.59,0.26903,8.6219,0.023891,0,0,0,0
255.09,0.27042,8.631,0.023727,0,0,0,0
255.59,0.27205,8.6406,0.023984,0,0,0,0
256.09,0.27371,8.6506,0.023984,0,0,0,0
256.59,0.2752,8.6594,0.024246,0,0,0,0
257.09,0.27695,8.6686,0.024189,0,0,0,0
257.59,0.27854,8.6771,0.024344,0,0,0,0
258.09,0.2805,8.6859,0.024343,0,0,0,0
258.59,0.28249,8.6944,0.024574,0,0,0,0
259.09,0.28487,8.7041,0.024669,0,0,0,0
259.59,0.28686,8.7133,0.024964,0,0,0,0
260.09,0.28882,8.723,0.024995,0,0,0,0
260.59,0.29074,8.732,0.025378,0,0,0,0
261.09,0.29266,8.7414,0.025413,0,0,0,0
261.59,0.29416,8.7501,0.025771,0,0,0,0
262.09,0.29575,8.7593,0.026064,0,0,0,0
262.59,0.29737,8.7677,0.026157,0,0,0,0
263.09,0.29893,8.7766,0.026252,0,0,0,0
263.59,0.30068,8.7849,0.026577,0,0,0,0
264.09,0.30271,8.7937,0.026771,0,0,0,0
264.59,0.3046,8.8026,0.026904,0,0,0,0
265.09,0.30678,8.8119,0.026806,0,0,0,0
265.59,0.30864,8.8204,0.027222,0,0,0,0
266.09,0.31109,8.8296,0.027261,0,0,0,0
266.59,0.31305,8.8379,0.027159,0,0,0,0
267.09,0.31487,8.8461,0.027454,0,0,0,0
267.59,0.31689,8.8541,0.027581,0,0,0,0
268.09,0.31832,8.8631,0.027839,0,0,0,0
268.59,0.31974,8.8716,0.027847,0,0,0,0
269.09,0.32137,8.8807,0.027909,0,0,0,0
269.59,0.32335,8.889,0.028071,0,0,0,0
270.09,0.32498,8.8971,0.028167,0,0,0,0
270.59,0.32687,8.9044,0.028361,0,0,0,0
271.09,0.32882,8.9129,0.028647,0,0,0,0
271.59,0.33058,8.9211,0.02868,0,0,0,0
272.09,0.333,8.9299,0.029165,0,0,0,0
272.59,0.33499,8.9376,0.029453,0,0,0,0
273.09,0.33681,8.9457,0.029648,0,0,0,0
273.59,0.33873,8.9541,0.029651,0,0,0,0
274.09,0.34046,8.9633,0.029713,0,0,0,0
274.59,0.34211,8.9717,0.030011,0,0,0,0
275.09,0.34403,8.98,0.03027,0,0,0,0
275.59,0.34549,8.9874,0.030525,0,0,0,0
276.09,0.34731,8.9949,0.03046,0,0,0,0
276.59,0.34904,9.0024,0.030812,0,0,0,0
277.09,0.35103,9.0114,0.030976,0,0,0,0
277.59,0.35328,9.02,0.030878,0,0,0,0
278.09,0.35573,9.0284,0.031333,0,0,0,0
278.59,0.35792,9.0356,0.031463,0,0,0,0
279.09,0.36014,9.0434,0.031527,0,0,0,0
279.59,0.36186,9.0511,0.031757,0,0,0,0
280.09,0.36395,9.0596,0.031556,0,0,0,0
280.59,0.36594,9.0674,0.031886,0,0,0,0
281.09,0.36759,9.0753,0.032147,0,0,0,0
281.59,0.36928,9.0821,0.032367,0,0,0,0
282.09,0.37104,9.0897,0.032589,0,0,0,0
282.59,0.37293,9.0979,0.032693,0,0,0,0
283.09,0.37498,9.1066,0.032985,0,0,0,0
283.59,0.3773,9.1144,0.033176,0,0,0,0
284.09,0.37945,9.1223,0.03327,0,0,0,0
284.59,0.38187,9.1294,0.033689,0,0,0,0
285.09,0.38406,9.1366,0.033785,0,0,0,0
285.59,0.38631,9.1437,0.034069,0,0,0,0
286.09,0.38827,9.1519,0.034209,0,0,0,0
286.59,0.39039,9.1596,0.034332,0,0,0,0
287.09,0.39214,9.1674,0.034335,0,0,0,0
287.59,0.39406,9.1746,0.034749,0,0,0,0
288.09,0.39589,9.1819,0.034811,0,0,0,0
288.59,0.39787,9.1887,0.035106,0,0,0,0
289.09,0.3997,9.1963,0.035303,0,0,0,0
289.59,0.40179,9.2037,0.035403,0,0,0,0
290.09,0.40404,9.2113,0.035465,0,0,0,0
290.59,0.40655,9.2181,0.035911,0,0,0,0
291.09,0.40884,9.2254,0.036078,0,0,0,0
291.59,0.41103,9.2329,0.03624,0,0,0,0
292.09,0.41305,9.2409,0.036329,0,0,0,0
292.59,0.41504,9.2481,0.036587,0,0,0,0
293.09,0.41706,9.2556,0.036887,0,0,0,0
293.59,0.41885,9.2621,0.037046,0,0,0,0
294.09,0.4205,9.2691,0.037105,0,0,0,0
294.59,0.42239,9.2759,0.03729,0,0,0,0
295.09,0.42425,9.2834,0.037653,0,0,0,0
295.59,0.4266,9.2903,0.037814,0,0,0,0
296.09,0.42856,9.2977,0.037875,0,0,0,0
296.59,0.43097,9.3046,0.038127,0,0,0,0
297.09,0.43326,9.3119,0.038194,0,0,0,0
297.59,0.43561,9.3184,0.038452,0,0,0,0
298.09,0.43806,9.3256,0.038678,0,0,0,0
298.59,0.43975,9.3327,0.038808,0,0,0,0
299.09,0.44164,9.34,0.039136,0,0,0,0
299.59,0.4436,9.3464,0.039386,0,0,0,0
300.09,0.44532,9.3531,0.039479,0,0,0,0
300.59,0.44711,9.3599,0.039673,0,0,0,0
301.09,0.4492,9.3671,0.039894,0,0,0,0
301.59,0.45112,9.3739,0.040404,0,0,0,0
302.09,0.4534,9.3811,0.040373,0,0,0,0
302.59,0.45579,9.3879,0.040853,0,0,0,0
303.09,0.45837,9.3946,0.040919,0,0,0,0
303.59,0.46092,9.4007,0.041137,0,0,0,0
304.09,0.46298,9.4076,0.04139,0,0,0,0
304.59,0.4651,9.4144,0.041584,0,0,0,0
305.09,0.46705,9.4213,0.041682,0,0,0,0
305.59,0.46914,9.4277,0.0419,0,0,0,0
306.09,0.47093,9.4346,0.042005,0,0,0,0
306.59,0.47302,9.4414,0.042227,0,0,0,0
307.09,0.47534,9.4483,0.042375,0,0,0,0
307.59,0.47739,9.4547,0.042546,0,0,0,0
308.09,0.47978,9.4616,0.042833,0,0,0,0
308.59,0.48219,9.4679,0.042768,0,0,0,0
309.09,0.48478,9.4744,0.043114,0,0,0,0
309.59,0.48723,9.4806,0.043301,0,0,0,0
310.09,0.48951,9.4874,0.043465,0,0,0,0
310.59,0.4919,9.4936,0.043841,0,0,0,0
311.09,0.49402,9.5004,0.044286,0,0,0,0
311.59,0.49607,9.5066,0.04457,0,0,0,0
312.09,0.49813,9.5129,0.044731,0,0,0,0
312.59,0.49995,9.5187,0.045072,0,0,0,0
313.09,0.50214,9.5253,0.045231,0,0,0,0
313.59,0.50439,9.5314,0.045575,0,0,0,0
314.09,0.50684,9.5376,0.04564,0,0,0,0
314.59,0.5091,9.5437,0.04589,0,0,0,0
315.09,0.51208,9.5503,0.046216,0,0,0,0
315.59,0.5143,9.5564,0.046342,0,0,0,0
316.09,0.51672,9.5626,0.046406,0,0,0,0
316.59,0.51877,9.5684,0.046499,0,0,0,0
317.09,0.52093,9.5751,0.04656,0,0,0,0
317.59,0.52311,9.5816,0.046718,0,0,0,0
318.09,0.52487,9.5876,0.046965,0,0,0,0
318.59,0.52689,9.5936,0.047323,0,0,0,0
319.09,0.52921,9.5999,0.047378,0,0,0,0
319.59,0.53123,9.6061,0.047691,0,0,0,0
320.09,0.53348,9.6124,0.047854,0,0,0,0
320.59,0.53644,9.6184,0.0481,0,0,0,0
321.09,0.53895,9.6239,0.0483,0,0,0,0
321.59,0.54134,9.6291,0.048633,0,0,0,0
322.09,0.54369,9.6351,0.049136,0,0,0,0
322.59,0.54618,9.6409,0.049419,0,0,0,0
323.09,0.5481,9.6471,0.049704,0,0,0,0
323.59,0.55002,9.6529,0.049646,0,0,0,0
324.09,0.55201,9.6589,0.050014,0,0,0,0
324.59,0.55416,9.6644,0.050216,0,0,0,0
325.09,0.55649,9.6706,0.050527,0,0,0,0
325.59,0.55847,9.6764,0.050677,0,0,0,0
326.09,0.56082,9.6826,0.050773,0,0,0,0
326.59,0.56351,9.6879,0.05102,0,0,0,0
327.09,0.56593,9.6934,0.051123,0,0,0,0
327.59,0.56851,9.6991,0.051313,0,0,0,0
328.09,0.5708,9.7056,0.05134,0,0,0,0
328.59,0.57308,9.7114,0.051622,0,0,0,0
329.09,0.57521,9.7173,0.051934,0,0,0,0
329.59,0.57726,9.7224,0.052089,0,0,0,0
330.09,0.57951,9.7276,0.052367,0,0,0,0
330.59,0.5813,9.7327,0.052623,0,0,0,0
331.09,0.58349,9.7389,0.052966,0,0,0,0
331.59,0.58604,9.7449,0.053339,0,0,0,0
332.09,0.58836,9.7509,0.05363,0,0,0,0
332.59,0.59111,9.7561,0.053877,0,0,0,0
333.09,0.59379,9.7616,0.054026,0,0,0,0
333.59,0.59641,9.7667,0.054408,0,0,0,0
334.09,0.59873,9.7723,0.054662,0,0,0,0
334.59,0.60085,9.7777,0.055066,0,0,0,0
335.09,0.6031,9.7833,0.054785,0,0,0,0
335.59,0.60509,9.7884,0.055347,0,0,0,0
336.09,0.60731,9.7941,0.055572,0,0,0,0
336.59,0.6095,9.8001,0.055747,0,0,0,0
337.09,0.61201,9.8063,0.055909,0,0,0,0
337.59,0.61473,9.8114,0.056131,0,0,0,0
338.09,0.61735,9.8166,0.056503,0,0,0,0
338.59,0.61987,9.8214,0.05669,0,0,0,0
339.09,0.62262,9.8266,0.056847,0,0,0,0
339.59,0.62533,9.8317,0.057198,0,0,0,0
340.09,0.62762,9.8373,0.057505,0,0,0,0
340.59,0.62991,9.8421,0.057565,0,0,0,0
341.09,0.63219,9.8474,0.057874,0,0,0,0
341.59,0.63431,9.8529,0.058223,0,0,0,0
342.09,0.63683,9.8586,0.058386,0,0,0,0
342.59,0.63885,9.8634,0.058818,0,0,0,0
343.09,0.64137,9.8686,0.058854,0,0,0,0
343.59,0.64402,9.8737,0.05935,0,0,0,0
344.09,0.64684,9.8793,0.059604,0,0,0,0
344.59,0.64962,9.8841,0.059747,0,0,0,0
345.09,0.6523,9.8889,0.060009,0,0,0,0
345.59,0.65475,9.8937,0.060223,0,0,0,0
346.09,0.65691,9.899,0.0605,0,0,0,0
346.59,0.65949,9.904,0.060712,0,0,0,0
347.09,0.66168,9.9093,0.061064,0,0,0,0
347.59,0.6639,9.9141,0.061312,0,0,0,0
348.09,0.66618,9.9186,0.061709,0,0,0,0
348.59,0.66873,9.923,0.061905,0,0,0,0
349.09,0.67129,9.9283,0.062182,0,0,0,0
349.59,0.674,9.9334,0.062521,0,0,0,0
350.09,0.67675,9.9386,0.062644,0,0,0,0
350.59,0.67963,9.9431,0.063335,0,0,0,0
351.09,0.68229,9.9479,0.063401,0,0,0,0
351.59,0.68483,9.9524,0.063619,0,0,0,0
352.09,0.68712,9.9576,0.06384,0,0,0,0
352.59,0.68914,9.9624,0.064426,0,0,0,0
353.09,0.69143,9.9673,0.064303,0,0,0,0
353.59,0.69375,9.9714,0.064579,0,0,0,0
354.09,0.6963,9.9761,0.065018,0,0,0,0
354.59,0.69868,9.9811,0.065202,0,0,0,0
355.09,0.70143,9.9863,0.06542,0,0,0,0
355.59,0.70428,9.9907,0.065817,0,0,0,0
356.09,0.70736,9.9953,0.066068,0,0,0,0
356.59,0.70984,9.9994,0.066508,0,0,0,0
357.09,0.71243,10.004,0.066631,0,0,0,0
357.59,0.71474,10.008,0.066992,0,0,0,0
358.09,0.71703,10.013,0.06734,0,0,0,0
358.59,0.71932,10.018,0.067643,0,0,0,0
359.09,0.7215,10.023,0.067924,0,0,0,0
359.59,0.72396,10.027,0.068018,0,0,0,0
360.09,0.72651,10.032,0.068605,0,0,0,0
360.59,0.72906,10.036,0.068858,0,0,0,0
361.09,0.73184,10.04,0.069261,0,0,0,0
361.59,0.73475,10.045,0.069479,0,0,0,0
362.09,0.7376,10.049,0.069727,0,0,0,0
362.59,0.74025,10.053,0.070068,0,0,0,0
363.09,0.74244,10.058,0.070169,0,0,0,0
363.59,0.74496,10.062,0.070752,0,0,0,0
364.09,0.74691,10.067,0.07084,0,0,0,0
364.59,0.74917,10.071,0.071238,0,0,0,0
365.09,0.75148,10.075,0.071463,0,0,0,0
365.59,0.75423,10.079,0.071605,0,0,0,0
366.09,0.75649,10.084,0.071981,0,0,0,0
366.59,0.7595,10.087,0.072223,0,0,0,0
367.09,0.76252,10.092,0.07263,0,0,0,0
367.59,0.76523,10.096,0.072845,0,0,0,0
368.09,0.76795,10.101,0.073176,0,0,0,0
368.59,0.77073,10.105,0.073333,0,0,0,0
369.09,0.77305,10.11,0.073763,0,0,0,0
369.59,0.7753,10.114,0.074048,0,0,0,0
370.09,0.77768,10.118,0.074601,0,0,0,0
370.59,0.77987,10.122,0.074782,0,0,0,0
371.09,0.78252,10.126,0.075062,0,0,0,0
371.59,0.78511,10.13,0.07558,0,0,0,0
372.09,0.78769,10.134,0.075766,0,0,0,0
372.59,0.79097,10.138,0.076319,0,0,0,0
373.09,0.79372,10.142,0.076417,0,0,0,0
373.59,0.79657,10.146,0.076965,0,0,0,0
374.09,0.79915,10.15,0.077181,0,0,0,0
374.59,0.80154,10.154,0.077494,0,0,0,0
375.09,0.80392,10.158,0.077765,0,0,0,0
375.59,0.80641,10.162,0.078105,0,0,0,0
376.09,0.80879,10.165,0.078293,0,0,0,0
376.59,0.81111,10.169,0.078602,0,0,0,0
377.09,0.81383,10.173,0.078999,0,0,0,0
377.59,0.81681,10.177,0.079613,0,0,0,0
378.09,0.81995,10.181,0.07973,0,0,0,0
378.59,0.82271,10.185,0.07982,0,0,0,0
379.09,0.82546,10.189,0.080353,0,0,0,0
379.59,0.82844,10.193,0.080647,0,0,0,0
380.09,0.83079,10.197,0.08096,0,0,0,0
380.59,0.83324,10.2,0.081173,0,0,0,0
381.09,0.83576,10.204,0.081782,0,0,0,0
381.59,0.83804,10.207,0.082089,0,0,0,0
382.09,0.84079,10.211,0.082331,0,0,0,0
382.59,0.84344,10.215,0.082575,0,0,0,0
383.09,0.84603,10.219,0.083094,0,0,0,0
383.59,0.84927,10.222,0.083403,0,0,0,0
384.09,0.85222,10.226,0.083802,0,0,0,0
384.59,0.8552,10.229,0.084192,0,0,0,0
385.09,0.85792,10.233,0.084529,0,0,0,0
385.59,0.86044,10.236,0.084898,0,0,0,0
386.09,0.86282,10.24,0.085226,0,0,0,0
386.59,0.86547,10.243,0.085719,0,0,0,0
387.09,0.86786,10.247,0.085816,0,0,0,0
387.59,0.87061,10.25,0.086234,0,0,0,0
388.09,0.87322,10.254,0.086488,0,0,0,0
388.59,0.8762,10.257,0.08685,0,0,0,0
389.09,0.87909,10.261,0.087123,0,0,0,0
389.59,0.88214,10.264,0.087579,0,0,0,0
390.09,0.88512,10.268,0.087884,0,0,0,0
390.59,0.88797,10.271,0.088368,0,0,0,0
391.09,0.89075,10.275,0.088616,0,0,0,0
391.59,0.89317,10.278,0.08888,0,0,0,0
392.09,0.89575,10.281,0.089341,0,0,0,0
392.59,0.89814,10.284,0.089756,0,0,0,0
393.09,0.90092,10.288,0.090145,0,0,0,0
393.59,0.90344,10.291,0.090548,0,0,0,0
394.09,0.90649,10.294,0.09094,0,0,0,0
394.59,0.90947,10.297,0.091241,0,0,0,0
395.09,0.91255,10.301,0.091637,0,0,0,0
395.59,0.9158,10.304,0.092088,0,0,0,0
396.09,0.91861,10.308,0.092636,0,0,0,0
396.59,0.92133,10.31,0.092758,0,0,0,0
397.09,0.92395,10.314,0.093125,0,0,0,0
397.59,0.92626,10.317,0.093544,0,0,0,0
398.09,0.92901,10.32,0.093877,0,0,0,0
398.59,0.9316,10.323,0.094358,0,0,0,0
399.09,0.93435,10.326,0.094631,0,0,0,0
399.59,0.93739,10.329,0.095087,0,0,0,0
400.09,0.94041,10.332,0.095567,0,0,0,0
400.59,0.94386,10.335,0.095935,0,0,0,0
401.09,0.94677,10.339,0.09617,0,0,0,0
401.59,0.94959,10.342,0.09693,0,0,0,0
402.09,0.9522,10.345,0.097263,0,0,0,0
402.59,0.95508,10.347,0.097683,0,0,0,0
403.09,0.95766,10.351,0.098039,0,0,0,0
403.59,0.96018,10.353,0.098496,0,0,0,0
404.09,0.9629,10.357,0.098855,0,0,0,0
404.59,0.96569,10.359,0.099422,0,0,0,0
405.09,0.96857,10.362,0.099753,0,0,0,0
405.59,0.97221,10.365,0.10006,0,0,0,0
406.09,0.97516,10.368,0.1005,0,0,0,0
406.59,0.97834,10.371,0.10095,0,0,0,0
407.09,0.98109,10.374,0.10117,0,0,0,0
407.59,0.98384,10.376,0.10144,0,0,0,0
408.09,0.98662,10.378,0.10188,0,0,0,0
408.59,0.98901,10.381,0.10236,0,0,0,0
409.09,0.99169,10.384,0.10272,0,0,0,0
409.59,0.99461,10.387,0.1033,0,0,0,0
410.09,0.99722,10.389,0.10379,0,0,0,0
410.59,1.0003,10.392,0.10413,0,0,0,0
411.09,1.0036,10.394,0.10463,0,0,0,0
411.59,1.0068,10.397,0.10526,0,0,0,0
412.09,1.0096,10.4,0.1058,0,0,0,0
412.59,1.0126,10.402,0.10634,0,0,0,0
413.09,1.0153,10.405,0.10682,0,0,0,0
413.59,1.0181,10.407,0.10724,0,0,0,0
414.09,1.0206,10.41,0.10771,0,0,0,0
414.59,1.0235,10.413,0.1083,0,0,0,0
415.09,1.0263,10.415,0.10848,0,0,0,0
415.59,1.0293,10.417,0.10902,0,0,0,0
416.09,1.0322,10.42,0.1094,0,0,0,0
416.59,1.0355,10.422,0.10964,0,0,0,0
417.09,1.0384,10.424,0.11004,0,0,0,0
417.59,1.0419,10.427,0.11042,0,0,0,0
418.09,1.0446,10.429,0.11087,0,0,0,0
418.59,1.0472,10.431,0.11128,0,0,0,0
419.09,1.0498,10.434,0.11178,0,0,0,0
419.59,1.0522,10.436,0.11211,0,0,0,0
420.09,1.0553,10.438,0.11279,0,0,0,0
420.59,1.0582,10.441,0.11309,0,0,0,0
421.09,1.0613,10.443,0.11391,0,0,0,0
421.59,1.0641,10.445,0.11448,0,0,0,0
422.09,1.0672,10.447,0.11474,0,0,0,0
422.59,1.0704,10.45,0.1153,0,0,0,0
423.09,1.0733,10.452,0.11589,0,0,0,0
423.59,1.0763,10.454,0.11616,0,0,0,0
424.09,1.0791,10.456,0.11672,0,0,0,0
424.59,1.0819,10.458,0.1174,0,0,0,0
425.09,1.0846,10.46,0.11781,0,0,0,0
425.59,1.0874,10.462,0.11843,0,0,0,0
426.09,1.0904,10.464,0.11878,0,0,0,0
426.59,1.0933,10.466,0.11932,0,0,0,0
427.09,1.0967,10.468,0.11973,0,0,0,0
427.59,1.0998,10.47,0.12025,0,0,0,0
428.09,1.1029,10.472,0.12076,0,0,0,0
428.59,1.1058,10.473,0.12117,0,0,0,0
429.09,1.1085,10.475,0.12193,0,0,0,0
429.59,1.1113,10.477,0.12237,0,0,0,0
430.09,1.114,10.479,0.12272,0,0,0,0
430.59,1.1169,10.481,0.12325,0,0,0,0
431.09,1.1198,10.483,0.12383,0,0,0,0
431.59,1.1225,10.484,0.12447,0,0,0,0
432.09,1.1259,10.486,0.12479,0,0,0,0
432.59,1.1293,10.488,0.1253,0,0,0,0
433.09,1.1325,10.49,0.12577,0,0,0,0
433.59,1.1355,10.491,0.12644,0,0,0,0
434.09,1.1384,10.493,0.12694,0,0,0,0
434.59,1.1411,10.494,0.12761,0,0,0,0
435.09,1.1436,10.496,0.12809,0,0,0,0
435.59,1.1465,10.498,0.12886,0,0,0,0
436.09,1.1493,10.5,0.12942,0,0,0,0
436.59,1.1522,10.501,0.12986,0,0,0,0
437.09,1.1555,10.502,0.13073,0,0,0,0
437.59,1.1587,10.504,0.13093,0,0,0,0
438.09,1.1623,10.506,0.13165,0,0,0,0
438.59,1.1653,10.507,0.13209,0,0,0,0
439.09,1.1683,10.509,0.13259,0,0,0,0
439.59,1.1712,10.51,0.13312,0,0,0,0
440.09,1.174,10.511,0.13375,0,0,0,0
440.59,1.1764,10.513,0.13431,0,0,0,0
441.09,1.1795,10.515,0.13477,0,0,0,0
441.59,1.1826,10.516,0.13535,0,0,0,0
442.09,1.1857,10.517,0.13599,0,0,0,0
442.59,1.1887,10.518,0.13662,0,0,0,0
443.09,1.1923,10.52,0.13743,0,0,0,0
443.59,1.1955,10.521,0.13801,0,0,0,0
444.09,1.1984,10.522,0.1385,0,0,0,0
444.59,1.2014,10.523,0.13913,0,0,0,0
445.09,1.2041,10.524,0.1396,0,0,0,0
445.59,1.2071,10.526,0.1402,0,0,0,0
446.09,1.21,10.527,0.1406,0,0,0,0
446.59,1.2128,10.528,0.14138,0,0,0,0
447.09,1.216,10.53,0.14187,0,0,0,0
447.59,1.219,10.531,0.14251,0,0,0,0
448.09,1.2224,10.532,0.14282,0,0,0,0
448.59,1.2261,10.533,0.14366,0,0,0,0
449.09,1.2291,10.534,0.14412,0,0,0,0
449.59,1.2322,10.535,0.14477,0,0,0,0
450.09,1.2354,10.536,0.14521,0,0,0,0
450.59,1.2381,10.537,0.14583,0,0,0,0
451.09,1.2408,10.538,0.14629,0,0,0,0
451.59,1.2438,10.538,0.14695,0,0,0,0
452.09,1.247,10.539,0.14761,0,0,0,0
452.59,1.2497,10.54,0.14832,0,0,0,0
453.09,1.2533,10.541,0.14889,0,0,0,0
453.59,1.2569,10.542,0.14957,0,0,0,0
454.09,1.2603,10.543,0.15011,0,0,0,0
454.59,1.2635,10.544,0.15077,0,0,0,0
455.09,1.2662,10.545,0.15156,0,0,0,0
455.59,1.2693,10.545,0.15225,0,0,0,0
456.09,1.272,10.546,0.15288,0,0,0,0
456.59,1.2751,10.547,0.15373,0,0,0,0
457.09,1.278,10.547,0.15456,0,0,0,0
457.59,1.2815,10.548,0.15519,0,0,0,0
458.09,1.2848,10.549,0.15612,0,0,0,0
458.59,1.2884,10.549,0.1568,0,0,0,0
459.09,1.2919,10.55,0.15742,0,0,0,0
459.59,1.2949,10.55,0.15807,0,0,0,0
460.09,1.298,10.551,0.15878,0,0,0,0
460.59,1.3012,10.551,0.15943,0,0,0,0
461.09,1.3037,10.551,0.1598,0,0,0,0
461.59,1.3066,10.551,0.1605,0,0,0,0
462.09,1.3099,10.552,0.16123,0,0,0,0
462.59,1.3129,10.552,0.16179,0,0,0,0
463.09,1.3163,10.553,0.1624,0,0,0,0
463.59,1.3198,10.553,0.16333,0,0,0,0
464.09,1.3235,10.553,0.16392,0,0,0,0
464.59,1.3267,10.554,0.16476,0,0,0,0
465.09,1.3299,10.554,0.16574,0,0,0,0
465.59,1.3331,10.554,0.16644,0,0,0,0
466.09,1.336,10.554,0.16729,0,0,0,0
466.59,1.3388,10.554,0.16816,0,0,0,0
467.09,1.3417,10.554,0.16897,0,0,0,0
467.59,1.3453,10.554,0.16961,0,0,0,0
468.09,1.3483,10.555,0.17029,0,0,0,0
468.59,1.352,10.555,0.17087,0,0,0,0
469.09,1.3554,10.554,0.17157,0,0,0,0
469.59,1.3588,10.554,0.17243,0,0,0,0
470.09,1.362,10.554,0.17318,0,0,0,0
470.59,1.3651,10.555,0.17394,0,0,0,0
471.09,1.3681,10.555,0.17477,0,0,0,0
471.59,1.371,10.554,0.17555,0,0,0,0
472.09,1.374,10.554,0.17633,0,0,0,0
472.59,1.3772,10.554,0.1773,0,0,0,0
473.09,1.3806,10.554,0.17835,0,0,0,0
473.59,1.3843,10.554,0.17877,0,0,0,0
474.09,1.3879,10.554,0.17968,0,0,0,0
474.59,1.3914,10.553,0.18068,0,0,0,0
475.09,1.3946,10.552,0.18144,0,0,0,0
475.59,1.3975,10.552,0.1822,0,0,0,0
476.09,1.4005,10.552,0.18283,0,0,0,0
476.59,1.4035,10.551,0.18369,0,0,0,0
477.09,1.4065,10.55,0.18449,0,0,0,0
477.59,1.41,10.55,0.18534,0,0,0,0
478.09,1.4134,10.55,0.18607,0,0,0,0
478.59,1.4168,10.549,0.18692,0,0,0,0
479.09,1.4206,10.549,0.18802,0,0,0,0
479.59,1.424,10.548,0.18876,0,0,0,0
480.09,1.4274,10.547,0.18996,0,0,0,0
480.59,1.4304,10.547,0.19065,0,0,0,0
481.09,1.4335,10.546,0.19164,0,0,0,0
481.59,1.4366,10.545,0.19234,0,0,0,0
482.09,1.4398,10.545,0.19324,0,0,0,0
482.59,1.4428,10.544,0.19401,0,0,0,0
483.09,1.4465,10.543,0.19488,0,0,0,0
483.59,1.4501,10.542,0.19557,0,0,0,0
484.09,1.4537,10.541,0.1966,0,0,0,0
484.59,1.4574,10.54,0.19733,0,0,0,0
485.09,1.4607,10.539,0.19831,0,0,0,0
485.59,1.4639,10.538,0.19937,0,0,0,0
486.09,1.4668,10.537,0.20034,0,0,0,0
486.59,1.4702,10.536,0.20141,0,0,0,0
487.09,1.4733,10.534,0.20227,0,0,0,0
487.59,1.4764,10.533,0.20335,0,0,0,0
488.09,1.48,10.532,0.20438,0,0,0,0
488.59,1.4838,10.531,0.20535,0,0,0,0
489.09,1.4874,10.53,0.20616,0,0,0,0
489.59,1.4911,10.528,0.20728,0,0,0,0
490.09,1.4945,10.527,0.20813,0,0,0,0
490.59,1.4975,10.526,0.20924,0,0,0,0
491.09,1.5009,10.524,0.21026,0,0,0,0
491.59,1.5041,10.522,0.21112,0,0,0,0
492.09,1.507,10.521,0.21233,0,0,0,0
492.59,1.5106,10.519,0.21335,0,0,0,0
493.09,1.5139,10.518,0.21457,0,0,0,0
493.59,1.5177,10.516,0.2154,0,0,0,0
494.09,1.5214,10.514,0.21642,0,0,0,0
494.59,1.5251,10.512,0.21759,0,0,0,0
495.09,1.5286,10.511,0.21868,0,0,0,0
495.59,1.5316,10.509,0.21983,0,0,0,0
496.09,1.5347,10.507,0.22071,0,0,0,0
496.59,1.5379,10.505,0.22206,0,0,0,0
497.09,1.541,10.503,0.22304,0,0,0,0
497.59,1.5443,10.502,0.2241,0,0,0,0
498.09,1.5483,10.5,0.22547,0,0,0,0
498.59,1.5522,10.498,0.22664,0,0,0,0
499.09,1.5559,10.495,0.22782,0,0,0,0
499.59,1.5591,10.493,0.22872,0,0,0,0
500.09,1.5624,10.491,0.23001,0,0,0,0
500.59,1.5658,10.489,0.23089,0,0,0,0
501.09,1.5689,10.487,0.23199,0,0,0,0
501.59,1.5722,10.484,0.23314,0,0,0,0
502.09,1.5754,10.482,0.23404,0,0,0,0
502.59,1.579,10.479,0.23524,0,0,0,0
503.09,1.5826,10.477,0.23587,0,0,0,0
503.58,1.5864,10.474,0.23702,0,0,0,0
504.09,1.5901,10.472,0.2383,0,0,0,0
504.59,1.5934,10.469,0.23947,0,0,0,0
505.08,1.5969,10.466,0.24046,0,0,0,0
505.58,1.6,10.464,0.24182,0,0,0,0
506.09,1.6033,10.461,0.24304,0,0,0,0
506.59,1.6067,10.459,0.2441,0,0,0,0
507.08,1.6099,10.456,0.24548,0,0,0,0
507.59,1.6134,10.453,0.24649,0,0,0,0
508.09,1.6171,10.45,0.24776,0,0,0,0
508.58,1.6211,10.448,0.24906,0,0,0,0
509.08,1.6247,10.445,0.24998,0,0,0,0
509.58,1.628,10.441,0.2514,0,0,0,0
510.08,1.6314,10.438,0.25243,0,0,0,0
510.58,1.6347,10.435,0.25387,0,0,0,0
511.08,1.6378,10.432,0.25495,0,0,0,0
511.58,1.6408,10.429,0.25639,0,0,0,0
512.09,1.6444,10.426,0.25744,0,0,0,0
512.59,1.648,10.422,0.25889,0,0,0,0
513.09,1.6517,10.419,0.26015,0,0,0,0
513.59,1.6555,10.416,0.26128,0,0,0,0
514.09,1.6595,10.413,0.26232,0,0,0,0
514.59,1.6629,10.409,0.26365,0,0,0,0
515.09,1.6661,10.406,0.26479,0,0,0,0
515.59,1.6696,10.402,0.26604,0,0,0,0
516.09,1.6728,10.399,0.26786,0,0,0,0
516.59,1.6761,10.395,0.2688,0,0,0,0
517.09,1.6793,10.391,0.2702,0,0,0,0
517.59,1.6832,10.388,0.27163,0,0,0,0
518.09,1.6871,10.384,0.27302,0,0,0,0
518.59,1.6908,10.38,0.27434,0,0,0,0
519.09,1.6945,10.376,0.27584,0,0,0,0
519.59,1.698,10.372,0.27705,0,0,0,0
520.09,1.7014,10.368,0.27853,0,0,0,0
520.59,1.7048,10.364,0.27961,0,0,0,0
521.09,1.7079,10.36,0.28116,0,0,0,0
521.59,1.7113,10.355,0.28253,0,0,0,0
522.09,1.7148,10.352,0.28388,0,0,0,0
522.59,1.7185,10.347,0.28517,0,0,0,0
523.09,1.7224,10.343,0.28652,0,0,0,0
523.59,1.7265,10.338,0.28781,0,0,0,0
524.09,1.7301,10.334,0.28938,0,0,0,0
524.59,1.7334,10.33,0.29086,0,0,0,0
525.09,1.737,10.326,0.29218,0,0,0,0
525.59,1.7404,10.321,0.29394,0,0,0,0
526.09,1.7435,10.316,0.29507,0,0,0,0
526.59,1.7468,10.311,0.29638,0,0,0,0
527.09,1.7507,10.307,0.29776,0,0,0,0
527.59,1.7544,10.301,0.29929,0,0,0,0
528.09,1.7585,10.297,0.30086,0,0,0,0
528.59,1.762,10.291,0.30245,0,0,0,0
529.09,1.7659,10.286,0.30397,0,0,0,0
529.59,1.7692,10.281,0.30556,0,0,0,0
530.09,1.7728,10.276,0.30681,0,0,0,0
530.59,1.776,10.271,0.30849,0,0,0,0
531.09,1.7794,10.266,0.30965,0,0,0,0
531.59,1.7831,10.261,0.31111,0,0,0,0
532.09,1.7871,10.256,0.31297,0,0,0,0
532.59,1.7909,10.25,0.3146,0,0,0,0
533.09,1.7951,10.245,0.31609,0,0,0,0
533.59,1.7987,10.239,0.31783,0,0,0,0
534.09,1.8022,10.233,0.31942,0,0,0,0
534.59,1.8058,10.227,0.32104,0,0,0,0
535.09,1.8091,10.222,0.32257,0,0,0,0
535.59,1.8126,10.215,0.3237,0,0,0,0
536.09,1.8162,10.21,0.32512,0,0,0,0
536.59,1.8199,10.203,0.32662,0,0,0,0
537.09,1.824,10.198,0.3281,0,0,0,0
537.59,1.8281,10.191,0.32965,0,0,0,0
538.09,1.832,10.185,0.33135,0,0,0,0
538.59,1.8356,10.178,0.33283,0,0,0,0
539.09,1.839,10.172,0.33453,0,0,0,0
539.59,1.8427,10.165,0.33622,0,0,0,0
540.09,1.8457,10.159,0.33767,0,0,0,0
540.59,1.8494,10.153,0.33958,0,0,0,0
541.09,1.8532,10.147,0.34127,0,0,0,0
541.59,1.8572,10.139,0.34265,0,0,0,0
542.09,1.8614,10.132,0.34444,0,0,0,0
542.59,1.8655,10.125,0.34609,0,0,0,0
543.09,1.8691,10.119,0.34781,0,0,0,0
543.59,1.8727,10.111,0.34927,0,0,0,0
544.09,1.8763,10.104,0.35113,0,0,0,0
544.59,1.8796,10.096,0.35286,0,0,0,0
545.09,1.8834,10.088,0.35451,0,0,0,0
545.59,1.8869,10.081,0.35622,0,0,0,0
546.09,1.8907,10.074,0.35807,0,0,0,0
546.59,1.895,10.066,0.3596,0,0,0,0
547.09,1.899,10.058,0.36135,0,0,0,0
547.59,1.9031,10.049,0.36246,0,0,0,0
548.09,1.9067,10.042,0.36458,0,0,0,0
548.59,1.9103,10.034,0.3665,0,0,0,0
549.09,1.9139,10.026,0.36842,0,0,0,0
549.59,1.9172,10.018,0.37004,0,0,0,0
550.09,1.9207,10.01,0.37192,0,0,0,0
550.59,1.9248,10.001,0.37348,0,0,0,0
551.09,1.9288,9.9917,0.37526,0,0,0,0
551.59,1.9331,9.9831,0.37712,0,0,0,0
552.09,1.937,9.9753,0.37871,0,0,0,0
552.59,1.9408,9.9661,0.38048,0,0,0,0
553.09,1.9444,9.9569,0.38242,0,0,0,0
553.59,1.9481,9.9474,0.3843,0,0,0,0
554.09,1.9519,9.9386,0.38624,0,0,0,0
554.59,1.9552,9.9291,0.38798,0,0,0,0
555.09,1.959,9.9201,0.38973,0,0,0,0
555.59,1.9631,9.9103,0.39181,0,0,0,0
556.09,1.9676,9.9001,0.39331,0,0,0,0
556.59,1.9717,9.8897,0.39508,0,0,0,0
557.09,1.9755,9.8809,0.39706,0,0,0,0
557.59,1.9793,9.871,0.39896,0,0,0,0
558.09,1.9828,9.861,0.40069,0,0,0,0
558.59,1.9865,9.8506,0.40271,0,0,0,0
559.09,1.9902,9.8409,0.40443,0,0,0,0
559.59,1.9942,9.8293,0.40618,0,0,0,0
560.09,1.9982,9.8183,0.40822,0,0,0,0
560.59,2.0023,9.8073,0.40978,0,0,0,0
561.09,2.0066,9.7969,0.4118,0,0,0,0
561.59,2.0107,9.7851,0.41373,0,0,0,0
562.09,2.0145,9.7739,0.41557,0,0,0,0
562.59,2.0183,9.7621,0.41784,0,0,0,0
563.09,2.0219,9.7506,0.41961,0,0,0,0
563.59,2.0256,9.7384,0.42144,0,0,0,0
564.09,2.0295,9.7271,0.42336,0,0,0,0
564.59,2.0336,9.715,0.42505,0,0,0,0
565.09,2.0381,9.7021,0.42723,0,0,0,0
565.59,2.0424,9.6884,0.42889,0,0,0,0
566.09,2.0466,9.6764,0.43087,0,0,0,0
566.59,2.0505,9.6634,0.43263,0,0,0,0
567.09,2.0545,9.6506,0.43494,0,0,0,0
567.59,2.0581,9.6373,0.43681,0,0,0,0
568.09,2.062,9.6246,0.43917,0,0,0,0
568.59,2.0659,9.6093,0.44185,0,0,0,0
569.09,2.0701,9.5949,0.44393,0,0,0,0
569.59,2.0747,9.581,0.44624,0,0,0,0
570.09,2.0792,9.5679,0.44846,0,0,0,0
570.59,2.0833,9.5529,0.45054,0,0,0,0
571.09,2.0873,9.5381,0.45262,0,0,0,0
571.59,2.0912,9.5229,0.45439,0,0,0,0
572.09,2.095,9.5076,0.4567,0,0,0,0
572.59,2.099,9.4914,0.45908,0,0,0,0
573.09,2.103,9.4767,0.46074,0,0,0,0
573.59,2.1074,9.4609,0.46307,0,0,0,0
574.09,2.1122,9.444,0.4651,0,0,0,0
574.59,2.1166,9.4261,0.46736,0,0,0,0
575.09,2.1209,9.4107,0.46952,0,0,0,0
575.59,2.1251,9.3939,0.47196,0,0,0,0
576.09,2.1291,9.3771,0.4741,0,0,0,0
576.59,2.1332,9.3594,0.47635,0,0,0,0
577.09,2.1373,9.3424,0.47884,0,0,0,0
577.59,2.1418,9.3224,0.481,0,0,0,0
578.09,2.1467,9.3034,0.48332,0,0,0,0
578.59,2.1517,9.2844,0.48578,0,0,0,0
579.09,2.1562,9.2659,0.48829,0,0,0,0
579.59,2.1608,9.2449,0.49002,0,0,0,0
580.09,2.1646,9.2244,0.49248,0,0,0,0
580.59,2.1689,9.2033,0.49539,0,0,0,0
581.09,2.1732,9.1824,0.49735,0,0,0,0
581.59,2.1777,9.1603,0.49979,0,0,0,0
582.09,2.1825,9.1399,0.50271,0,0,0,0
582.59,2.1875,9.1174,0.50524,0,0,0,0
583.09,2.1929,9.0939,0.50735,0,0,0,0
583.59,2.1977,9.068,0.50967,0,0,0,0
584.09,2.2022,9.0451,0.5121,0,0,0,0
584.59,2.2066,9.0193,0.51508,0,0,0,0
585.09,2.2115,8.9932,0.51775,0,0,0,0
585.59,2.2198,8.963,-Inf,0,0,0,0