File: polyN_optimization/DP600_results/DATA/NT6_00_3.csv
Time[s],Displacement[mm],Force[kN],AxStrain_1,AxStrain_2,Thickness[mm],OuterWidth[mm],InnerWidth[mm]
0.59,0,-0.016967,0,0,1.5309,20,9.9056
1.09,-0.00015,-0.019512,7.9997e-05,0,0,0,0
1.59,0.000243,-0.021278,-7.1003e-05,0,0,0,0
2.1,0.00029,-0.0078381,0.00011299,0,0,0,0
2.59,0.000247,0.017846,0.00029796,0,0,0,0
3.1,0.000515,0.048436,6.3998e-05,0,0,0,0
3.6,0.000683,0.076423,0.00010199,0,0,0,0
4.09,0.000754,0.10686,0.00023797,0,0,0,0
4.59,0.000996,0.13356,4.6999e-05,0,0,0,0
5.09,0.000689,0.15815,-8e-06,0,0,0,0
5.59,0.000752,0.17742,-3.6001e-05,0,0,0,0
6.09,0.001011,0.19472,0.00011899,0,0,0,0
6.59,0.001019,0.20943,0.00012299,0,0,0,0
7.09,0.000955,0.22729,0.00023197,0,0,0,0
7.59,0.001016,0.24485,-2.3e-05,0,0,0,0
8.1,0.001031,0.26258,-6e-06,0,0,0,0
8.59,0.001057,0.27957,-4.1001e-05,0,0,0,0
9.1,0.001165,0.29815,6.3998e-05,0,0,0,0
9.6,0.00097,0.31614,-7.3003e-05,0,0,0,0
10.09,0.001017,0.33515,-7.2003e-05,0,0,0,0
10.59,0.001121,0.35357,-4.2001e-05,0,0,0,0
11.09,0.001438,0.37243,-0.00012801,0,0,0,0
11.6,0.001279,0.38971,-1.6e-05,0,0,0,0
12.09,0.001503,0.407,-2e-06,0,0,0,0
12.59,0.001336,0.42529,-0.00010801,0,0,0,0
13.09,0.001771,0.446,3.7999e-05,0,0,0,0
13.6,0.001798,0.46442,-4.5001e-05,0,0,0,0
14.09,0.002125,0.48272,0.00011299,0,0,0,0
14.6,0.001957,0.50028,0.00012899,0,0,0,0
15.1,0.002155,0.51829,0.00022797,0,0,0,0
15.6,0.002086,0.53485,0.00019198,0,0,0,0
16.09,0.002198,0.554,0.00014899,0,0,0,0
16.59,0.002357,0.57214,4.2999e-05,0,0,0,0
17.09,0.002231,0.59029,0.00020898,0,0,0,0
17.59,0.002245,0.60785,3.2999e-05,0,0,0,0
18.09,0.002258,0.62715,0.00024797,0,0,0,0
18.59,0.002139,0.64614,0.00022797,0,0,0,0
19.09,0.002437,0.66615,0.00026796,0,0,0,0
19.59,0.002403,0.68585,0.00013899,0,0,0,0
20.09,0.00249,0.70615,3.5999e-05,0,0,0,0
20.59,0.002347,0.72442,6.2998e-05,0,0,0,0
21.09,0.002463,0.74258,-3e-05,0,0,0,0
21.59,0.002483,0.76229,5.5998e-05,0,0,0,0
22.09,0.002764,0.78471,-1.7e-05,0,0,0,0
22.59,0.002672,0.80442,-4.3001e-05,0,0,0,0
23.09,0.002877,0.82429,5.9998e-05,0,0,0,0
23.59,0.002986,0.84371,-0.00011301,0,0,0,0
24.09,0.003205,0.86386,0.00014599,0,0,0,0
24.59,0.003175,0.88228,0.00021898,0,0,0,0
25.09,0.003582,0.90386,5.5998e-05,0,0,0,0
25.59,0.003933,0.92428,0.00038693,0,0,0,0
26.09,0.004098,0.94458,0.00027096,0,0,0,0
26.59,0.004026,0.96357,0.00026197,0,0,0,0
27.09,0.004002,0.98443,0.00025797,0,0,0,0
27.59,0.00383,1.0043,0.00048288,0,0,0,0
28.09,0.004161,1.0247,0.00027496,0,0,0,0
28.59,0.003883,1.0449,0.00038093,0,0,0,0
29.09,0.004089,1.0659,0.00042391,0,0,0,0
29.59,0.003827,1.0847,0.00030495,0,0,0,0
30.09,0.003834,1.105,0.00025797,0,0,0,0
30.59,0.004135,1.1264,0.00026197,0,0,0,0
31.09,0.003933,1.1491,0.00021498,0,0,0,0
31.59,0.003969,1.1684,2e-05,0,0,0,0
32.09,0.004281,1.189,8.5996e-05,0,0,0,0
32.59,0.00432,1.2087,0.00026197,0,0,0,0
33.09,0.004565,1.2291,7.8997e-05,0,0,0,0
33.59,0.004532,1.2486,9.2996e-05,0,0,0,0
34.09,0.004953,1.2713,0.00010299,0,0,0,0
34.59,0.005148,1.2926,0.00010299,0,0,0,0
35.09,0.005386,1.3133,0.00018498,0,0,0,0
35.59,0.005628,1.3326,8.2997e-05,0,0,0,0
36.09,0.005582,1.3537,0.00018198,0,0,0,0
36.59,0.00579,1.3743,0.00049288,0,0,0,0
37.09,0.005883,1.3954,0.00051687,0,0,0,0
37.59,0.006187,1.4159,0.00012599,0,0,0,0
38.09,0.006138,1.4371,0.00036393,0,0,0,0
38.59,0.006125,1.4564,0.0004469,0,0,0,0
39.09,0.005777,1.4773,0.00037393,0,0,0,0
39.59,0.005807,1.4989,0.00051986,0,0,0,0
40.09,0.005906,1.5214,0.00046689,0,0,0,0
40.59,0.005714,1.5401,0.00032395,0,0,0,0
41.09,0.005886,1.5603,0.00024197,0,0,0,0
41.59,0.005995,1.58,0.00040092,0,0,0,0
42.09,0.005883,1.6006,0.00018498,0,0,0,0
42.59,0.005989,1.6196,0.00028096,0,0,0,0
43.09,0.006045,1.6419,0.00024197,0,0,0,0
43.59,0.006482,1.663,0.00027096,0,0,0,0
44.09,0.006644,1.6836,0.00017898,0,0,0,0
44.59,0.007071,1.7026,0.00031795,0,0,0,0
45.09,0.00731,1.7231,0.00017199,0,0,0,0
45.59,0.008028,1.7431,0.0004369,0,0,0,0
46.09,0.00776,1.7641,0.00012899,0,0,0,0
46.59,0.008108,1.7846,0.00013199,0,0,0,0
47.09,0.008094,1.8054,0.00034094,0,0,0,0
47.59,0.008372,1.8244,0.00034794,0,0,0,0
48.09,0.008227,1.8444,0.00028796,0,0,0,0
48.59,0.008224,1.865,0.00051986,0,0,0,0
49.09,0.008041,1.8869,0.00040092,0,0,0,0
49.59,0.007972,1.9057,0.00047988,0,0,0,0
50.09,0.007949,1.926,0.00043391,0,0,0,0
50.59,0.00782,1.9457,0.00030495,0,0,0,0
51.09,0.007664,1.9659,0.00025797,0,0,0,0
51.59,0.007608,1.9846,0.00035794,0,0,0,0
52.09,0.007631,2.0066,0.00034794,0,0,0,0
52.59,0.007889,2.027,0.00038393,0,0,0,0
53.09,0.00784,2.0469,0.00030095,0,0,0,0
53.59,0.007856,2.0656,7.5997e-05,0,0,0,0
54.09,0.008214,2.0864,0.00014599,0,0,0,0
54.59,0.0087,2.1066,0.00021198,0,0,0,0
55.09,0.008763,2.1274,0.00033394,0,0,0,0
55.59,0.009263,2.1476,0.00017498,0,0,0,0
56.09,0.009925,2.1681,0.00018898,0,0,0,0
56.59,0.010243,2.1867,0.00033794,0,0,0,0
57.09,0.010233,2.2064,0.00040092,0,0,0,0
57.59,0.010518,2.227,0.00032795,0,0,0,0
58.09,0.010485,2.2489,0.00029096,0,0,0,0
58.59,0.010356,2.2674,0.00037093,0,0,0,0
59.09,0.010376,2.287,0.00035094,0,0,0,0
59.59,0.010346,2.306,0.00039092,0,0,0,0
60.09,0.010101,2.3259,0.0004539,0,0,0,0
60.59,0.0098,2.3446,0.00040392,0,0,0,0
61.09,0.009753,2.3666,0.0004499,0,0,0,0
61.59,0.009862,2.387,0.00027496,0,0,0,0
62.09,0.009707,2.4066,0.00031795,0,0,0,0
62.59,0.009932,2.4249,0.00019198,0,0,0,0
63.09,0.009912,2.4454,0.00014199,0,0,0,0
63.59,0.010035,2.4656,0.00014199,0,0,0,0
64.09,0.010227,2.4864,0.00014899,0,0,0,0
64.59,0.010647,2.5066,3.9999e-05,0,0,0,0
65.09,0.010832,2.5271,0.00010599,0,0,0,0
65.59,0.011286,2.5457,0.00014199,0,0,0,0
66.09,0.011766,2.5657,0.00025497,0,0,0,0
66.59,0.011931,2.5864,0.00022497,0,0,0,0
67.09,0.012306,2.6081,0.00016199,0,0,0,0
67.59,0.012402,2.6267,0.00029096,0,0,0,0
68.09,0.012643,2.6467,0.0004499,0,0,0,0
68.59,0.012766,2.666,0.00037093,0,0,0,0
69.09,0.01257,2.6859,0.00038393,0,0,0,0
69.59,0.012243,2.7046,0.00035394,0,0,0,0
70.09,0.012527,2.7263,0.00042691,0,0,0,0
70.59,0.01216,2.7466,0.00047289,0,0,0,0
71.09,0.01214,2.7666,0.00027496,0,0,0,0
71.59,0.012044,2.7856,0.0004539,0,0,0,0
72.09,0.011796,2.8061,0.00036393,0,0,0,0
72.59,0.011922,2.8259,0.00036393,0,0,0,0
73.09,0.011832,2.8461,0.00034394,0,0,0,0
73.59,0.011845,2.8661,0.00023197,0,0,0,0
74.09,0.012117,2.8871,0.00029096,0,0,0,0
74.59,0.012431,2.9061,0.00023797,0,0,0,0
75.09,0.012656,2.9263,0.00025797,0,0,0,0
75.59,0.013007,2.9471,5.2999e-05,0,0,0,0
76.09,0.01318,2.9691,0.00019898,0,0,0,0
76.59,0.013802,2.9877,0.00030095,0,0,0,0
77.09,0.014156,3.0077,0.00018898,0,0,0,0
77.59,0.014484,3.027,0.00039392,0,0,0,0
78.09,0.014646,3.0469,0.00034394,0,0,0,0
78.59,0.014865,3.0653,0.00039092,0,0,0,0
79.09,0.014722,3.0869,0.00052286,0,0,0,0
79.59,0.014782,3.107,0.00031795,0,0,0,0
80.09,0.014534,3.1269,0.00055984,0,0,0,0
80.59,0.014434,3.1456,0.00053586,0,0,0,0
81.09,0.014279,3.1661,0.00059582,0,0,0,0
81.59,0.013997,3.1859,0.00054985,0,0,0,0
82.09,0.014063,3.2064,0.00055285,0,0,0,0
82.59,0.013951,3.2266,0.00045989,0,0,0,0
83.09,0.013885,3.2471,0.0004469,0,0,0,0
83.59,0.014001,3.2654,0.00045989,0,0,0,0
84.09,0.014289,3.285,0.00036093,0,0,0,0
84.59,0.014385,3.3054,0.00039092,0,0,0,0
85.09,0.014858,3.3271,0.00038693,0,0,0,0
85.59,0.015156,3.3457,0.00030095,0,0,0,0
86.09,0.015464,3.3657,0.0004499,0,0,0,0
86.59,0.016106,3.385,0.00032795,0,0,0,0
87.09,0.016421,3.4046,0.00047289,0,0,0,0
87.59,0.016874,3.4229,0.00046289,0,0,0,0
88.09,0.017222,3.4446,0.00046689,0,0,0,0
88.59,0.017222,3.465,0.00074172,0,0,0,0
89.09,0.017281,3.4849,0.00053985,0,0,0,0
89.59,0.017172,3.5036,0.00082066,0,0,0,0
90.09,0.017083,3.5241,0.00081467,0,0,0,0
90.59,0.01701,3.5436,0.00081467,0,0,0,0
91.09,0.016937,3.5634,0.00082066,0,0,0,0
91.59,0.016752,3.5829,0.0009965,0,0,0,0
92.09,0.016417,3.6031,0.00078769,0,0,0,0
92.59,0.016414,3.6217,0.00067177,0,0,0,0
93.09,0.016354,3.6414,0.00058883,0,0,0,0
93.59,0.01645,3.6614,0.0006288,0,0,0,0
94.09,0.016652,3.6824,0.00057883,0,0,0,0
94.59,0.016765,3.7004,0.00050987,0,0,0,0
95.09,0.017119,3.7197,0.00057883,0,0,0,0
95.59,0.017573,3.7383,0.00065878,0,0,0,0
96.09,0.017841,3.7576,0.00076471,0,0,0,0
96.59,0.018354,3.7756,0.00060582,0,0,0,0
97.09,0.018784,3.7969,0.0007807,0,0,0,0
97.59,0.019079,3.817,0.0006258,0,0,0,0
98.09,0.019463,3.8366,0.00097253,0,0,0,0
98.59,0.019682,3.8549,0.0010095,0,0,0,0
99.09,0.01988,3.8751,0.00082066,0,0,0,0
99.59,0.019893,3.8946,0.00095355,0,0,0,0
100.09,0.01995,3.9144,0.0011843,0,0,0,0
100.59,0.019976,3.9339,0.0011284,0,0,0,0
101.09,0.020062,3.9541,0.0010395,0,0,0,0
101.59,0.01949,3.9721,0.0010155,0,0,0,0
102.09,0.019407,3.991,0.00090659,0,0,0,0
102.59,0.019314,4.0104,0.00091059,0,0,0,0
103.09,0.019377,4.0314,0.0007807,0,0,0,0
103.59,0.019248,4.0497,0.00092957,0,0,0,0
104.09,0.019397,4.0694,0.00076471,0,0,0,0
104.59,0.019506,4.0883,0.00076771,0,0,0,0
105.09,0.019668,4.1073,0.00080068,0,0,0,0
105.59,0.020327,4.1249,0.0007707,0,0,0,0
106.09,0.020705,4.1459,0.00068876,0,0,0,0
106.59,0.020923,4.166,0.00075472,0,0,0,0
107.09,0.021569,4.1856,0.00078769,0,0,0,0
107.59,0.02185,4.2036,0.00053586,0,0,0,0
108.09,0.022191,4.2234,0.0010954,0,0,0,0
108.59,0.022211,4.2429,0.00083365,0,0,0,0
109.09,0.022595,4.2631,0.00081767,0,0,0,0
109.59,0.022628,4.2826,0.00097952,0,0,0,0
110.09,0.022833,4.3024,0.00095954,0,0,0,0
110.59,0.022963,4.3204,0.0011583,0,0,0,0
111.09,0.023022,4.3397,0.00095954,0,0,0,0
111.59,0.022843,4.3597,0.0010255,0,0,0,0
112.09,0.022791,4.3811,0.00095954,0,0,0,0
112.59,0.022731,4.3991,0.0008936,0,0,0,0
113.09,0.022479,4.418,0.00099251,0,0,0,0
113.59,0.022579,4.4363,0.00066178,0,0,0,0
114.09,0.022612,4.4556,0.00079468,0,0,0,0
114.59,0.022711,4.4739,0.0008936,0,0,0,0
115.09,0.022877,4.495,0.00069476,0,0,0,0
115.59,0.023439,4.5149,0.00076071,0,0,0,0
116.09,0.023704,4.534,0.00079468,0,0,0,0
116.59,0.024135,4.5519,0.00072774,0,0,0,0
117.09,0.024499,4.5714,0.00069476,0,0,0,0
117.59,0.024697,4.5906,0.00082766,0,0,0,0
118.09,0.025128,4.6104,0.00072774,0,0,0,0
118.59,0.025393,4.6281,0.00072774,0,0,0,0
119.09,0.025856,4.647,0.00066178,0,0,0,0
119.59,0.025989,4.6653,0.00095954,0,0,0,0
120.09,0.026088,4.6857,0.00099251,0,0,0,0
120.59,0.026187,4.7054,0.00099251,0,0,0,0
121.09,0.026485,4.7264,0.0011913,0,0,0,0
121.59,0.02632,4.7441,0.0011913,0,0,0,0
122.09,0.026187,4.763,0.0011583,0,0,0,0
122.59,0.02632,4.7813,0.0010924,0,0,0,0
123.09,0.026551,4.8003,0.0010584,0,0,0,0
123.59,0.026353,4.8179,0.0010924,0,0,0,0
124.09,0.026485,4.8386,0.00092657,0,0,0,0
124.59,0.026518,4.858,0.00095954,0,0,0,0
125.09,0.027048,4.8766,0.00079468,0,0,0,0
125.59,0.027412,4.8939,0.00086063,0,0,0,0
126.09,0.027412,4.9131,0.0010584,0,0,0,0
126.59,0.028008,4.9319,0.00079468,0,0,0,0
127.09,0.028405,4.9509,0.00086063,0,0,0,0
127.59,0.028703,4.968,0.00095954,0,0,0,0
128.09,0.028869,4.9864,0.0010255,0,0,0,0
128.59,0.029332,5.0057,0.00092657,0,0,0,0
129.09,0.029663,5.0261,0.0010255,0,0,0,0
129.59,0.029796,5.0446,0.0010255,0,0,0,0
130.09,0.029829,5.0634,0.0013561,0,0,0,0
130.59,0.03016,5.0807,0.0012572,0,0,0,0
131.09,0.030226,5.098,0.0014559,0,0,0,0
131.59,0.030491,5.1151,0.0014889,0,0,0,0
132.09,0.030491,5.1353,0.0015548,0,0,0,0
132.59,0.030623,5.1543,0.0013231,0,0,0,0
133.09,0.030756,5.1737,0.0014889,0,0,0,0
133.59,0.031219,5.1913,0.0015218,0,0,0,0
134.09,0.031451,5.2096,0.001423,0,0,0,0
134.59,0.031418,5.2266,0.001423,0,0,0,0
135.09,0.031683,5.2454,0.0012902,0,0,0,0
135.59,0.032245,5.2639,0.0013231,0,0,0,0
136.09,0.03261,5.2831,0.00139,0,0,0,0
136.59,0.032941,5.3004,0.0012243,0,0,0,0
137.09,0.033073,5.3187,0.0013231,0,0,0,0
137.59,0.03347,5.3374,0.0013561,0,0,0,0
138.09,0.03357,5.3574,0.001389,0,0,0,0
138.59,0.034033,5.3756,0.0015218,0,0,0,0
139.09,0.034298,5.3944,0.00139,0,0,0,0
139.59,0.034497,5.4114,0.0016207,0,0,0,0
140.09,0.034729,5.4286,0.0018193,0,0,0,0
140.59,0.035126,5.4456,0.0018523,0,0,0,0
141.09,0.035192,5.4656,0.0018852,0,0,0,0
141.59,0.035556,5.4846,0.0018523,0,0,0,0
142.09,0.035689,5.5041,0.0019521,0,0,0,0
142.59,0.03602,5.5216,0.001985,0,0,0,0
143.09,0.036483,5.5393,0.0019521,0,0,0,0
143.59,0.03698,5.5561,0.0018852,0,0,0,0
144.09,0.037344,5.5749,0.0017864,0,0,0,0
144.59,0.038172,5.5929,0.001985,0,0,0,0
145.09,0.038404,5.6111,0.0016536,0,0,0,0
145.59,0.039132,5.6277,0.0017535,0,0,0,0
146.09,0.039463,5.6457,0.0016546,0,0,0,0
146.59,0.040092,5.6647,0.0017535,0,0,0,0
147.09,0.040092,5.6849,0.0017535,0,0,0,0
147.59,0.040225,5.7029,0.0016536,0,0,0,0
148.09,0.040556,5.7211,0.0017535,0,0,0,0
148.59,0.040622,5.7377,0.0017205,0,0,0,0
149.09,0.040953,5.7543,0.0018852,0,0,0,0
149.59,0.041284,5.7711,0.0021497,0,0,0,0
150.09,0.041582,5.7907,0.002018,0,0,0,0
150.59,0.04188,5.8089,0.0024799,0,0,0,0
151.09,0.041781,5.8274,0.0023482,0,0,0,0
151.59,0.042112,5.8446,0.0026126,0,0,0,0
152.09,0.042906,5.8623,0.0026455,0,0,0,0
152.59,0.043734,5.8789,0.0024799,0,0,0,0
153.09,0.044529,5.8969,0.0026126,0,0,0,0
153.59,0.045224,5.9139,0.0025458,0,0,0,0
154.09,0.046018,5.9314,0.0023812,0,0,0,0
154.59,0.046747,5.9477,0.002447,0,0,0,0
155.09,0.047541,5.9651,0.0025128,0,0,0,0
155.59,0.048038,5.983,0.0024141,0,0,0,0
156.09,0.048832,6.0019,0.0023812,0,0,0,0
156.59,0.048998,6.0189,0.0024141,0,0,0,0
157.09,0.049461,6.0341,0.0023482,0,0,0,0
157.59,0.049859,6.0501,0.0024799,0,0,0,0
158.09,0.050124,6.0677,0.0026116,0,0,0,0
158.59,0.050091,6.087,0.0026455,0,0,0,0
159.09,0.050388,6.1041,0.0026455,0,0,0,0
159.59,0.050885,6.1207,0.0029427,0,0,0,0
160.09,0.051183,6.1364,0.0030743,0,0,0,0
160.59,0.05158,6.1527,0.0032726,0,0,0,0
161.09,0.052077,6.1689,0.0037669,0,0,0,0
161.59,0.052805,6.184,0.0038336,0,0,0,0
162.09,0.053666,6.199,0.0038336,0,0,0,0
162.59,0.054493,6.2141,0.0037679,0,0,0,0
163.09,0.055321,6.232,0.0038336,0,0,0,0
163.59,0.056215,6.2489,0.003734,0,0,0,0
164.09,0.057274,6.2661,0.0036025,0,0,0,0
164.59,0.057903,6.2816,0.0037011,0,0,0,0
165.09,0.058566,6.2976,0.0037011,0,0,0,0
165.59,0.059426,6.3126,0.0036683,0,0,0,0
166.09,0.060155,6.3291,0.0037011,0,0,0,0
166.59,0.060486,6.3451,0.0036025,0,0,0,0
167.09,0.061181,6.3616,0.0036683,0,0,0,0
167.59,0.061777,6.3763,0.0038008,0,0,0,0
168.09,0.06234,6.3919,0.0040319,0,0,0,0
168.59,0.06277,6.4083,0.0039323,0,0,0,0
169.09,0.063399,6.4256,0.0040976,0,0,0,0
169.59,0.06416,6.4411,0.0043943,0,0,0,0
170.09,0.064922,6.4569,0.0045914,0,0,0,0
170.59,0.065882,6.471,0.0048552,0,0,0,0
171.09,0.066776,6.4853,0.0049547,0,0,0,0
171.59,0.067835,6.4999,0.0053825,0,0,0,0
172.09,0.068498,6.5167,0.0053825,0,0,0,0
172.59,0.069325,6.5321,0.0055148,0,0,0,0
173.09,0.070087,6.5481,0.005646,0,0,0,0
173.59,0.070881,6.5629,0.0055804,0,0,0,0
174.09,0.071378,6.578,0.0054819,0,0,0,0
174.59,0.072173,6.5919,0.0054491,0,0,0,0
175.09,0.072735,6.6071,0.005284,0,0,0,0
175.59,0.073497,6.6219,0.0051527,0,0,0,0
176.09,0.074126,6.6371,0.005284,0,0,0,0
176.59,0.07502,6.651,0.0053835,0,0,0,0
177.09,0.075848,6.6659,0.0054491,0,0,0,0
177.59,0.076477,6.681,0.005284,0,0,0,0
178.09,0.077801,6.6971,0.0054163,0,0,0,0
178.59,0.078827,6.7119,0.0055476,0,0,0,0
179.09,0.080019,6.7271,0.0058439,0,0,0,0
179.59,0.081145,6.7407,0.0060745,0,0,0,0
180.09,0.082668,6.754,0.0060745,0,0,0,0
180.59,0.083694,6.7671,0.0066995,0,0,0,0
181.09,0.084456,6.7827,0.0068972,0,0,0,0
181.59,0.085714,6.7974,0.0071603,0,0,0,0
182.09,0.086442,6.8126,0.0075216,0,0,0,0
182.59,0.087369,6.8261,0.0074234,0,0,0,0
183.09,0.088263,6.8403,0.0075544,0,0,0,0
183.59,0.088561,6.8536,0.0073906,0,0,0,0
184.09,0.089455,6.8681,0.0075216,0,0,0,0
184.59,0.090217,6.8821,0.0071941,0,0,0,0
185.09,0.090912,6.8966,0.0071941,0,0,0,0
185.59,0.091574,6.9096,0.0071275,0,0,0,0
186.09,0.092799,6.9233,0.0071603,0,0,0,0
186.59,0.093892,6.9376,0.0069955,0,0,0,0
187.09,0.09515,6.9526,0.0069955,0,0,0,0
187.59,0.09611,6.9661,0.007062,0,0,0,0
188.09,0.097468,6.9799,0.0071275,0,0,0,0
188.59,0.098527,6.9926,0.0074234,0,0,0,0
189.09,0.099818,7.0054,0.0075544,0,0,0,0
189.59,0.10065,7.0184,0.0078174,0,0,0,0
190.09,0.10157,7.0334,0.0078828,0,0,0,0
190.59,0.10233,7.0477,0.0082439,0,0,0,0
191.09,0.10356,7.0623,0.0086713,0,0,0,0
191.59,0.10445,7.0754,0.0088021,0,0,0,0
192.09,0.10548,7.0887,0.0091302,0,0,0,0
192.59,0.10637,7.1011,0.009262,0,0,0,0
193.09,0.10773,7.1149,0.0093927,0,0,0,0
193.59,0.10872,7.1281,0.0094918,0,0,0,0
194.09,0.11005,7.1419,0.0094264,0,0,0,0
194.59,0.11147,7.1543,0.0093601,0,0,0,0
195.09,0.11283,7.1676,0.0092293,0,0,0,0
195.59,0.11432,7.1813,0.0089667,0,0,0,0
196.09,0.11568,7.1956,0.0088686,0,0,0,0
196.59,0.11693,7.2084,0.0088686,0,0,0,0
197.09,0.11796,7.2216,0.0089003,0,0,0,0
197.59,0.11899,7.2336,0.0089994,0,0,0,0
198.09,0.11988,7.2457,0.0090331,0,0,0,0
198.59,0.12087,7.2579,0.009261,0,0,0,0
199.09,0.1221,7.272,0.0093274,0,0,0,0
199.59,0.12276,7.2851,0.0095572,0,0,0,0
200.09,0.12369,7.2989,0.009786,0,0,0,0
200.59,0.12488,7.3117,0.010442,0,0,0,0
201.09,0.12574,7.3249,0.010573,0,0,0,0
201.59,0.1271,7.3367,0.010737,0,0,0,0
202.09,0.12852,7.3496,0.011097,0,0,0,0
202.59,0.12991,7.3621,0.011229,0,0,0,0
203.09,0.1314,7.3749,0.011393,0,0,0,0
203.59,0.13263,7.3866,0.011556,0,0,0,0
204.09,0.13379,7.399,0.011458,0,0,0,0
204.59,0.13521,7.4116,0.011392,0,0,0,0
205.09,0.13627,7.4249,0.011392,0,0,0,0
205.59,0.13723,7.4371,0.011457,0,0,0,0
206.09,0.13829,7.4499,0.01113,0,0,0,0
206.59,0.13955,7.4613,0.011163,0,0,0,0
207.09,0.14057,7.4727,0.011032,0,0,0,0
207.59,0.14157,7.4839,0.011065,0,0,0,0
208.09,0.14296,7.497,0.011097,0,0,0,0
208.59,0.14455,7.5094,0.011359,0,0,0,0
209.09,0.14597,7.5226,0.011523,0,0,0,0
209.59,0.14766,7.5344,0.011523,0,0,0,0
210.09,0.14925,7.5464,0.012014,0,0,0,0
210.59,0.15077,7.5574,0.012111,0,0,0,0
211.09,0.15223,7.5699,0.012701,0,0,0,0
211.59,0.15375,7.5819,0.013028,0,0,0,0
212.09,0.15501,7.5939,0.013192,0,0,0,0
212.59,0.15623,7.6049,0.013224,0,0,0,0
213.09,0.15716,7.6167,0.013616,0,0,0,0
213.59,0.15838,7.6289,0.013649,0,0,0,0
214.09,0.15944,7.6416,0.013747,0,0,0,0
214.59,0.16084,7.6531,0.013715,0,0,0,0
215.09,0.16173,7.6649,0.013747,0,0,0,0
215.59,0.16335,7.6756,0.013583,0,0,0,0
216.09,0.16467,7.6864,0.01329,0,0,0,0
216.59,0.16626,7.6974,0.013354,0,0,0,0
217.09,0.16779,7.7101,0.01329,0,0,0,0
217.59,0.16977,7.722,0.013323,0,0,0,0
218.09,0.17077,7.7343,0.013258,0,0,0,0
218.59,0.17222,7.7454,0.013453,0,0,0,0
219.09,0.17358,7.7567,0.013487,0,0,0,0
219.59,0.17467,7.7671,0.013878,0,0,0,0
220.09,0.17587,7.7789,0.014041,0,0,0,0
220.59,0.17706,7.7901,0.014367,0,0,0,0
221.09,0.17822,7.8019,0.014793,0,0,0,0
221.59,0.17964,7.8123,0.014988,0,0,0,0
222.09,0.18096,7.8233,0.015249,0,0,0,0
222.59,0.18216,7.8346,0.015641,0,0,0,0
223.09,0.18358,7.8466,0.015674,0,0,0,0
223.59,0.18553,7.8577,0.015771,0,0,0,0
224.09,0.18742,7.8693,0.015934,0,0,0,0
224.59,0.18908,7.8799,0.015967,0,0,0,0
225.09,0.1909,7.8901,0.015934,0,0,0,0
225.59,0.19235,7.9004,0.015902,0,0,0,0
226.09,0.19378,7.9124,0.015641,0,0,0,0
226.59,0.1953,7.9237,0.015868,0,0,0,0
227.09,0.19676,7.9353,0.015869,0,0,0,0
227.59,0.19802,7.9457,0.015837,0,0,0,0
228.09,0.19951,7.9564,0.015772,0,0,0,0
228.59,0.20063,7.9664,0.015934,0,0,0,0
229.09,0.20219,7.9776,0.016195,0,0,0,0
229.59,0.20358,7.9881,0.016196,0,0,0,0
230.09,0.20543,7.9989,0.016521,0,0,0,0
230.59,0.20709,8.0086,0.016782,0,0,0,0
231.09,0.20874,8.019,0.017107,0,0,0,0
231.59,0.21063,8.0296,0.017172,0,0,0,0
232.09,0.21235,8.0409,0.017529,0,0,0,0
232.59,0.21407,8.0514,0.017888,0,0,0,0
233.09,0.21546,8.0623,0.017953,0,0,0,0
233.59,0.21689,8.0719,0.018148,0,0,0,0
234.09,0.21818,8.0814,0.018147,0,0,0,0
234.59,0.21954,8.0911,0.018051,0,0,0,0
235.09,0.2207,8.1027,0.018181,0,0,0,0
235.59,0.22212,8.1137,0.018181,0,0,0,0
236.09,0.22361,8.1247,0.018344,0,0,0,0
236.59,0.2251,8.1343,0.018279,0,0,0,0
237.09,0.22682,8.1441,0.018213,0,0,0,0
237.59,0.22834,8.1537,0.018181,0,0,0,0
238.09,0.2303,8.1643,0.01844,0,0,0,0
238.59,0.23192,8.1744,0.018375,0,0,0,0
239.09,0.23391,8.1846,0.018732,0,0,0,0
239.59,0.23533,8.1939,0.018798,0,0,0,0
240.09,0.23708,8.2037,0.01896,0,0,0,0
240.59,0.23841,8.2139,0.019221,0,0,0,0
241.09,0.2399,8.2246,0.019318,0,0,0,0
241.59,0.24125,8.2344,0.019512,0,0,0,0
242.09,0.24261,8.2446,0.019837,0,0,0,0
242.59,0.244,8.2536,0.019934,0,0,0,0
243.09,0.24579,8.2627,0.020356,0,0,0,0
243.59,0.24751,8.2721,0.020486,0,0,0,0
244.09,0.24917,8.2829,0.020647,0,0,0,0
244.59,0.25129,8.2926,0.020583,0,0,0,0
245.09,0.25314,8.3027,0.020453,0,0,0,0
245.59,0.25533,8.312,0.020778,0,0,0,0
246.09,0.25682,8.3214,0.020777,0,0,0,0
246.59,0.25867,8.3304,0.020841,0,0,0,0
247.09,0.26032,8.3403,0.020744,0,0,0,0
247.59,0.26145,8.3494,0.020939,0,0,0,0
248.09,0.26331,8.3589,0.021037,0,0,0,0
248.59,0.2646,8.3676,0.02094,0,0,0,0
249.09,0.26628,8.377,0.021297,0,0,0,0
249.59,0.26777,8.3866,0.021329,0,0,0,0
250.09,0.2696,8.3966,0.021588,0,0,0,0
250.59,0.27158,8.4057,0.021814,0,0,0,0
251.09,0.27353,8.4153,0.02188,0,0,0,0
251.59,0.27542,8.4241,0.022074,0,0,0,0
252.09,0.27758,8.4329,0.02243,0,0,0,0
252.59,0.27916,8.4414,0.022623,0,0,0,0
253.09,0.28105,8.4514,0.022752,0,0,0,0
253.59,0.28281,8.461,0.022947,0,0,0,0
254.09,0.28443,8.4707,0.023012,0,0,0,0
254.59,0.28565,8.4796,0.023302,0,0,0,0
255.09,0.28741,8.4886,0.023497,0,0,0,0
255.59,0.2889,8.4967,0.023627,0,0,0,0
256.09,0.29025,8.5056,0.023626,0,0,0,0
256.59,0.29211,8.5147,0.023691,0,0,0,0
257.09,0.2938,8.5243,0.023885,0,0,0,0
257.59,0.29552,8.5329,0.023853,0,0,0,0
258.09,0.29757,8.5417,0.024047,0,0,0,0
258.59,0.29992,8.5506,0.024144,0,0,0,0
259.09,0.30171,8.5599,0.024435,0,0,0,0
259.59,0.30343,8.5687,0.024467,0,0,0,0
260.09,0.30522,8.5783,0.024435,0,0,0,0
260.59,0.30668,8.5866,0.02466,0,0,0,0
261.09,0.30833,8.5947,0.024855,0,0,0,0
261.59,0.30976,8.6029,0.025112,0,0,0,0
262.09,0.31134,8.6124,0.025243,0,0,0,0
262.59,0.31307,8.6213,0.025533,0,0,0,0
263.09,0.31495,8.6304,0.025629,0,0,0,0
263.59,0.31681,8.6386,0.025726,0,0,0,0
264.09,0.31879,8.6471,0.026017,0,0,0,0
264.59,0.32138,8.6554,0.026274,0,0,0,0
265.09,0.3233,8.6649,0.026403,0,0,0,0
265.59,0.32535,8.6736,0.026339,0,0,0,0
266.09,0.32727,8.6819,0.026565,0,0,0,0
266.59,0.32909,8.6894,0.026822,0,0,0,0
267.09,0.33091,8.6979,0.027049,0,0,0,0
267.59,0.3325,8.7064,0.02708,0,0,0,0
268.09,0.33409,8.7153,0.027275,0,0,0,0
268.59,0.33588,8.7234,0.027371,0,0,0,0
269.09,0.33744,8.7319,0.027499,0,0,0,0
269.59,0.33939,8.7396,0.027662,0,0,0,0
270.09,0.34164,8.748,0.027758,0,0,0,0
270.59,0.34373,8.7566,0.02779,0,0,0,0
271.09,0.34628,8.7656,0.02808,0,0,0,0
271.59,0.34833,8.7729,0.028111,0,0,0,0
272.09,0.35025,8.781,0.028369,0,0,0,0
272.59,0.35227,8.789,0.028562,0,0,0,0
273.09,0.35419,8.7971,0.028755,0,0,0,0
273.59,0.35598,8.8044,0.028981,0,0,0,0
274.09,0.3576,8.8129,0.029173,0,0,0,0
274.59,0.35909,8.8209,0.029236,0,0,0,0
275.09,0.36084,8.8289,0.029559,0,0,0,0
275.59,0.36283,8.8367,0.029624,0,0,0,0
276.09,0.36472,8.8453,0.02972,0,0,0,0
276.59,0.36661,8.8531,0.030041,0,0,0,0
277.09,0.36879,8.8609,0.030266,0,0,0,0
277.59,0.37088,8.8684,0.030492,0,0,0,0
278.09,0.37336,8.8766,0.030523,0,0,0,0
278.59,0.37535,8.8841,0.030651,0,0,0,0
279.09,0.37704,8.8921,0.031005,0,0,0,0
279.59,0.37905,8.9001,0.031133,0,0,0,0
280.09,0.38045,8.9086,0.031166,0,0,0,0
280.59,0.3823,8.9161,0.031423,0,0,0,0
281.09,0.38402,8.9239,0.031294,0,0,0,0
281.59,0.38568,8.9311,0.031712,0,0,0,0
282.09,0.38783,8.9386,0.031777,0,0,0,0
282.59,0.38955,8.946,0.032,0,0,0,0
283.09,0.39183,8.9546,0.032128,0,0,0,0
283.59,0.39409,8.9626,0.032353,0,0,0,0
284.09,0.39634,8.9699,0.032546,0,0,0,0
284.59,0.39836,8.9767,0.032802,0,0,0,0
285.09,0.40054,8.9843,0.032834,0,0,0,0
285.59,0.40253,8.9914,0.033154,0,0,0,0
286.09,0.40419,8.9989,0.033283,0,0,0,0
286.59,0.4061,9.0067,0.033475,0,0,0,0
287.09,0.40796,9.015,0.033794,0,0,0,0
287.59,0.40985,9.0221,0.033732,0,0,0,0
288.09,0.4117,9.0294,0.033826,0,0,0,0
288.59,0.41379,9.0369,0.034211,0,0,0,0
289.09,0.41581,9.0449,0.034179,0,0,0,0
289.59,0.41819,9.0519,0.034244,0,0,0,0
290.09,0.42074,9.0589,0.034627,0,0,0,0
290.59,0.42296,9.0654,0.034852,0,0,0,0
291.09,0.42511,9.0729,0.035012,0,0,0,0
291.59,0.42733,9.0799,0.03498,0,0,0,0
292.09,0.42892,9.0877,0.0353,0,0,0,0
292.59,0.4311,9.095,0.035268,0,0,0,0
293.09,0.43289,9.1021,0.035651,0,0,0,0
293.59,0.43471,9.1084,0.035587,0,0,0,0
294.09,0.4367,9.1156,0.036131,0,0,0,0
294.59,0.43892,9.1224,0.036355,0,0,0,0
295.09,0.44104,9.1296,0.036387,0,0,0,0
295.59,0.44329,9.1361,0.036578,0,0,0,0
296.09,0.44574,9.1434,0.036897,0,0,0,0
296.59,0.44802,9.1509,0.036961,0,0,0,0
297.09,0.4504,9.1586,0.037216,0,0,0,0
297.59,0.45276,9.1657,0.037376,0,0,0,0
298.09,0.45474,9.173,0.037629,0,0,0,0
298.59,0.4566,9.1794,0.037663,0,0,0,0
299.09,0.45842,9.1856,0.037631,0,0,0,0
299.59,0.4605,9.192,0.038012,0,0,0,0
300.09,0.46232,9.1996,0.038109,0,0,0,0
300.59,0.46428,9.2066,0.038491,0,0,0,0
301.09,0.46663,9.2137,0.038619,0,0,0,0
301.59,0.46901,9.2203,0.038588,0,0,0,0
302.09,0.47163,9.2271,0.038904,0,0,0,0
302.59,0.47398,9.2334,0.039128,0,0,0,0
303.09,0.47626,9.2406,0.039448,0,0,0,0
303.59,0.47835,9.2474,0.03967,0,0,0,0
304.09,0.4803,9.2543,0.039924,0,0,0,0
304.59,0.48242,9.2601,0.040211,0,0,0,0
305.09,0.48434,9.2667,0.040243,0,0,0,0
305.59,0.48616,9.2739,0.040591,0,0,0,0
306.09,0.48785,9.2813,0.040655,0,0,0,0
306.59,0.48997,9.2877,0.040782,0,0,0,0
307.09,0.49232,9.2943,0.040845,0,0,0,0
307.59,0.4946,9.3004,0.041195,0,0,0,0
308.09,0.49715,9.3066,0.04129,0,0,0,0
308.59,0.49947,9.3124,0.041448,0,0,0,0
309.09,0.50172,9.3191,0.041608,0,0,0,0
309.59,0.50397,9.3256,0.041861,0,0,0,0
310.09,0.50606,9.3324,0.04183,0,0,0,0
310.59,0.50795,9.3386,0.042243,0,0,0,0
311.09,0.50987,9.3451,0.04256,0,0,0,0
311.59,0.51192,9.3511,0.04275,0,0,0,0
312.09,0.51381,9.3576,0.043164,0,0,0,0
312.59,0.51583,9.3637,0.043322,0,0,0,0
313.09,0.51791,9.3703,0.043606,0,0,0,0
313.59,0.52043,9.3761,0.043701,0,0,0,0
314.09,0.52308,9.3821,0.044051,0,0,0,0
314.59,0.52566,9.3884,0.04424,0,0,0,0
315.09,0.52798,9.3953,0.044367,0,0,0,0
315.59,0.53013,9.4014,0.044494,0,0,0,0
316.09,0.53245,9.4076,0.044716,0,0,0,0
316.59,0.53447,9.4131,0.04481,0,0,0,0
317.09,0.53642,9.4189,0.044936,0,0,0,0
317.59,0.53847,9.4244,0.045221,0,0,0,0
318.09,0.54033,9.4309,0.045157,0,0,0,0
318.59,0.54238,9.4369,0.045411,0,0,0,0
319.09,0.54493,9.4431,0.045632,0,0,0,0
319.59,0.54708,9.4489,0.045885,0,0,0,0
320.09,0.54983,9.4546,0.046138,0,0,0,0
320.59,0.55244,9.46,0.046296,0,0,0,0
321.09,0.55509,9.4663,0.046518,0,0,0,0
321.59,0.55744,9.4724,0.046834,0,0,0,0
322.09,0.5594,9.4786,0.047118,0,0,0,0
322.59,0.56175,9.4841,0.047528,0,0,0,0
323.09,0.5637,9.4901,0.047655,0,0,0,0
323.59,0.56576,9.4961,0.048066,0,0,0,0
324.09,0.56811,9.5026,0.048224,0,0,0,0
324.59,0.57032,9.5084,0.048476,0,0,0,0
325.09,0.57268,9.5143,0.048728,0,0,0,0
325.59,0.57519,9.5194,0.048791,0,0,0,0
326.09,0.57751,9.5246,0.04898,0,0,0,0
326.59,0.58052,9.53,0.048885,0,0,0,0
327.09,0.58287,9.5363,0.049232,0,0,0,0
327.59,0.58502,9.5421,0.049484,0,0,0,0
328.09,0.58714,9.5479,0.049547,0,0,0,0
328.59,0.58926,9.5531,0.049704,0,0,0,0
329.09,0.59138,9.5589,0.049892,0,0,0,0
329.59,0.59353,9.5644,0.049956,0,0,0,0
330.09,0.59569,9.5703,0.05046,0,0,0,0
330.59,0.59794,9.5757,0.05068,0,0,0,0
331.09,0.60049,9.5813,0.0509,0,0,0,0
331.59,0.60297,9.5864,0.05131,0,0,0,0
332.09,0.60582,9.5919,0.051561,0,0,0,0
332.59,0.60847,9.5977,0.051939,0,0,0,0
333.09,0.61085,9.6037,0.052127,0,0,0,0
333.59,0.613,9.609,0.05241,0,0,0,0
334.09,0.61519,9.6143,0.052692,0,0,0,0
334.59,0.61754,9.6194,0.052944,0,0,0,0
335.09,0.61946,9.6246,0.053069,0,0,0,0
335.59,0.62141,9.6297,0.053257,0,0,0,0
336.09,0.6236,9.6356,0.053352,0,0,0,0
336.59,0.62598,9.6409,0.053634,0,0,0,0
337.09,0.6283,9.6464,0.053759,0,0,0,0
337.59,0.63121,9.6516,0.053979,0,0,0,0
338.09,0.63373,9.6569,0.054011,0,0,0,0
338.59,0.63641,9.6617,0.054292,0,0,0,0
339.09,0.63856,9.6673,0.0547,0,0,0,0
339.59,0.64091,9.6727,0.05492,0,0,0,0
340.09,0.6431,9.6783,0.055265,0,0,0,0
340.59,0.64512,9.6831,0.055421,0,0,0,0
341.09,0.64737,9.6881,0.055828,0,0,0,0
341.59,0.64926,9.6931,0.056016,0,0,0,0
342.09,0.65184,9.6986,0.056298,0,0,0,0
342.59,0.65426,9.7037,0.056549,0,0,0,0
343.09,0.65701,9.7093,0.056892,0,0,0,0
343.59,0.65959,9.7141,0.057267,0,0,0,0
344.09,0.66214,9.7186,0.057581,0,0,0,0
344.59,0.66469,9.723,0.057643,0,0,0,0
345.09,0.6671,9.7283,0.057862,0,0,0,0
345.59,0.66942,9.7334,0.058175,0,0,0,0
346.09,0.67131,9.7389,0.058487,0,0,0,0
346.59,0.67373,9.7439,0.058642,0,0,0,0
347.09,0.67594,9.7486,0.058892,0,0,0,0
347.59,0.67823,9.753,0.059111,0,0,0,0
348.09,0.68045,9.758,0.059267,0,0,0,0
348.59,0.6832,9.763,0.059704,0,0,0,0
349.09,0.68564,9.768,0.059736,0,0,0,0
349.59,0.68872,9.7724,0.060297,0,0,0,0
350.09,0.69137,9.7771,0.060391,0,0,0,0
350.59,0.69379,9.7821,0.060765,0,0,0,0
351.09,0.69624,9.7873,0.060921,0,0,0,0
351.59,0.69869,9.7917,0.061326,0,0,0,0
352.09,0.70058,9.7963,0.061512,0,0,0,0
352.59,0.70273,9.8007,0.062042,0,0,0,0
353.09,0.70495,9.8053,0.062227,0,0,0,0
353.59,0.7076,9.8097,0.062571,0,0,0,0
354.09,0.70981,9.8146,0.062819,0,0,0,0
354.59,0.71236,9.8189,0.062944,0,0,0,0
355.09,0.71521,9.8234,0.063224,0,0,0,0
355.59,0.71803,9.8279,0.063347,0,0,0,0
356.09,0.72081,9.8326,0.06372,0,0,0,0
356.59,0.72303,9.837,0.064001,0,0,0,0
357.09,0.72544,9.8417,0.064249,0,0,0,0
357.59,0.72803,9.846,0.064436,0,0,0,0
358.09,0.73005,9.8503,0.064808,0,0,0,0
358.59,0.73226,9.8544,0.065181,0,0,0,0
359.09,0.73465,9.8589,0.065275,0,0,0,0
359.59,0.7369,9.8634,0.065585,0,0,0,0
360.09,0.73951,9.868,0.065925,0,0,0,0
360.59,0.74249,9.8723,0.066235,0,0,0,0
361.09,0.74528,9.877,0.066545,0,0,0,0
361.59,0.74812,9.8814,0.066763,0,0,0,0
362.09,0.75041,9.8853,0.067135,0,0,0,0
362.59,0.75299,9.889,0.067319,0,0,0,0
363.09,0.75527,9.8936,0.067444,0,0,0,0
363.59,0.75756,9.8981,0.067876,0,0,0,0
364.09,0.75964,9.9026,0.068124,0,0,0,0
364.59,0.76183,9.9064,0.068557,0,0,0,0
365.09,0.76428,9.9106,0.068651,0,0,0,0
365.59,0.76673,9.9144,0.069081,0,0,0,0
366.09,0.76948,9.9186,0.069298,0,0,0,0
366.59,0.77262,9.9227,0.069762,0,0,0,0
367.09,0.77521,9.9273,0.069917,0,0,0,0
367.59,0.77779,9.9311,0.070195,0,0,0,0
368.09,0.78027,9.9349,0.070565,0,0,0,0
368.59,0.78265,9.9387,0.070874,0,0,0,0
369.09,0.78501,9.9433,0.071151,0,0,0,0
369.59,0.78719,9.9474,0.071399,0,0,0,0
370.09,0.78951,9.9516,0.071677,0,0,0,0
370.59,0.79186,9.9551,0.07183,0,0,0,0
371.09,0.79414,9.9589,0.072323,0,0,0,0
371.59,0.79709,9.9627,0.072569,0,0,0,0
372.09,0.79974,9.9673,0.072939,0,0,0,0
372.59,0.80269,9.9714,0.073369,0,0,0,0
373.09,0.8053,9.9756,0.073339,0,0,0,0
373.59,0.80795,9.9794,0.073647,0,0,0,0
374.09,0.81014,9.9833,0.073985,0,0,0,0
374.59,0.81252,9.987,0.074415,0,0,0,0
375.09,0.81474,9.991,0.074662,0,0,0,0
375.59,0.81719,9.995,0.075184,0,0,0,0
376.09,0.81931,9.9987,0.075368,0,0,0,0
376.59,0.82179,10.002,0.075614,0,0,0,0
377.09,0.82434,10.006,0.076013,0,0,0,0
377.59,0.82686,10.009,0.076197,0,0,0,0
378.09,0.82983,10.014,0.07635,0,0,0,0
378.59,0.83271,10.017,0.076749,0,0,0,0
379.09,0.8354,10.021,0.077118,0,0,0,0
379.59,0.83778,10.024,0.077301,0,0,0,0
380.09,0.8402,10.027,0.077668,0,0,0,0
380.59,0.84248,10.031,0.077945,0,0,0,0
381.09,0.8449,10.035,0.07822,0,0,0,0
381.59,0.84705,10.039,0.078556,0,0,0,0
382.09,0.84967,10.043,0.078954,0,0,0,0
382.59,0.85215,10.046,0.079383,0,0,0,0
383.09,0.85467,10.05,0.079902,0,0,0,0
383.59,0.85751,10.054,0.079964,0,0,0,0
384.09,0.86059,10.057,0.080269,0,0,0,0
384.59,0.86324,10.061,0.080637,0,0,0,0
385.09,0.86572,10.064,0.080942,0,0,0,0
385.59,0.86824,10.067,0.081279,0,0,0,0
386.09,0.87053,10.071,0.081705,0,0,0,0
386.59,0.87298,10.074,0.081767,0,0,0,0
387.09,0.87506,10.078,0.082285,0,0,0,0
387.59,0.87768,10.082,0.082408,0,0,0,0
388.09,0.88023,10.085,0.082895,0,0,0,0
388.59,0.88317,10.088,0.083168,0,0,0,0
389.09,0.88596,10.092,0.083474,0,0,0,0
389.59,0.88907,10.095,0.083929,0,0,0,0
390.09,0.89178,10.098,0.084112,0,0,0,0
390.59,0.89456,10.101,0.084508,0,0,0,0
391.09,0.89691,10.105,0.084963,0,0,0,0
391.59,0.89936,10.108,0.085268,0,0,0,0
392.09,0.90165,10.112,0.085602,0,0,0,0
392.59,0.9041,10.115,0.085968,0,0,0,0
393.09,0.90661,10.118,0.086422,0,0,0,0
393.59,0.90916,10.122,0.086878,0,0,0,0
394.09,0.91185,10.125,0.086971,0,0,0,0
394.59,0.91479,10.128,0.087699,0,0,0,0
395.09,0.91787,10.131,0.08785,0,0,0,0
395.59,0.92075,10.134,0.088334,0,0,0,0
396.09,0.92373,10.138,0.088578,0,0,0,0
396.59,0.92592,10.141,0.088728,0,0,0,0
397.09,0.92847,10.144,0.08891,0,0,0,0
397.59,0.93112,10.146,0.089363,0,0,0,0
398.09,0.9335,10.149,0.089486,0,0,0,0
398.59,0.93585,10.152,0.089878,0,0,0,0
399.09,0.9384,10.156,0.090333,0,0,0,0
399.59,0.94145,10.159,0.090756,0,0,0,0
400.09,0.94433,10.162,0.091059,0,0,0,0
400.59,0.94741,10.165,0.091451,0,0,0,0
401.09,0.95019,10.168,0.091935,0,0,0,0
401.59,0.95303,10.171,0.092087,0,0,0,0
402.09,0.95575,10.174,0.09272,0,0,0,0
402.59,0.95807,10.177,0.093082,0,0,0,0
403.09,0.96045,10.179,0.093414,0,0,0,0
403.59,0.96307,10.182,0.094048,0,0,0,0
404.09,0.96538,10.185,0.09444,0,0,0,0
404.59,0.96813,10.188,0.094651,0,0,0,0
405.09,0.97088,10.191,0.095012,0,0,0,0
405.59,0.97396,10.194,0.095313,0,0,0,0
406.09,0.97684,10.197,0.095854,0,0,0,0
406.59,0.97989,10.199,0.096125,0,0,0,0
407.09,0.9828,10.203,0.096184,0,0,0,0
407.59,0.98565,10.205,0.096636,0,0,0,0
408.09,0.98823,10.208,0.096846,0,0,0,0
408.59,0.99055,10.211,0.097417,0,0,0,0
409.09,0.9931,10.214,0.097717,0,0,0,0
409.59,0.99565,10.216,0.098047,0,0,0,0
410.09,0.99829,10.219,0.098168,0,0,0,0
410.59,1.0012,10.222,0.098828,0,0,0,0
411.09,1.0041,10.225,0.099098,0,0,0,0
411.59,1.0073,10.227,0.099668,0,0,0,0
412.09,1.0104,10.23,0.10009,0,0,0,0
412.59,1.0131,10.233,0.10027,0,0,0,0
413.09,1.016,10.235,0.10096,0,0,0,0
413.59,1.0188,10.238,0.10125,0,0,0,0
414.09,1.0214,10.24,0.10167,0,0,0,0
414.59,1.0238,10.243,0.10206,0,0,0,0
415.09,1.0264,10.246,0.10251,0,0,0,0
415.59,1.0289,10.248,0.10311,0,0,0,0
416.09,1.0315,10.251,0.10344,0,0,0,0
416.59,1.0351,10.254,0.10379,0,0,0,0
417.09,1.0385,10.256,0.10418,0,0,0,0
417.59,1.0416,10.259,0.10463,0,0,0,0
418.09,1.0445,10.262,0.10535,0,0,0,0
418.59,1.0473,10.264,0.10561,0,0,0,0
419.09,1.05,10.267,0.10606,0,0,0,0
419.59,1.0526,10.269,0.10645,0,0,0,0
420.09,1.055,10.271,0.10689,0,0,0,0
420.59,1.058,10.274,0.10731,0,0,0,0
421.09,1.0606,10.276,0.10785,0,0,0,0
421.59,1.0637,10.279,0.10835,0,0,0,0
422.09,1.0671,10.281,0.10883,0,0,0,0
422.59,1.0703,10.283,0.10904,0,0,0,0
423.09,1.073,10.285,0.10939,0,0,0,0
423.59,1.076,10.287,0.10998,0,0,0,0
424.09,1.0787,10.289,0.11046,0,0,0,0
424.59,1.0813,10.292,0.1109,0,0,0,0
425.09,1.0839,10.294,0.11129,0,0,0,0
425.59,1.0866,10.296,0.11185,0,0,0,0
426.09,1.0893,10.298,0.11226,0,0,0,0
426.59,1.0921,10.301,0.1128,0,0,0,0
427.09,1.0951,10.303,0.11315,0,0,0,0
427.59,1.0985,10.305,0.1136,0,0,0,0
428.09,1.1016,10.307,0.11404,0,0,0,0
428.59,1.1046,10.308,0.11484,0,0,0,0
429.09,1.1076,10.311,0.11528,0,0,0,0
429.59,1.1104,10.313,0.11575,0,0,0,0
430.09,1.113,10.315,0.11637,0,0,0,0
430.59,1.1156,10.317,0.11684,0,0,0,0
431.09,1.1183,10.319,0.11711,0,0,0,0
431.59,1.1211,10.321,0.11767,0,0,0,0
432.09,1.1242,10.323,0.11817,0,0,0,0
432.59,1.1272,10.324,0.11864,0,0,0,0
433.09,1.1304,10.326,0.11911,0,0,0,0
433.59,1.1338,10.328,0.11961,0,0,0,0
434.09,1.1366,10.33,0.12017,0,0,0,0
434.59,1.1394,10.332,0.12067,0,0,0,0
435.09,1.142,10.334,0.1209,0,0,0,0
435.59,1.1447,10.335,0.12131,0,0,0,0
436.09,1.1477,10.337,0.12187,0,0,0,0
436.59,1.1503,10.339,0.12243,0,0,0,0
437.09,1.1533,10.341,0.12289,0,0,0,0
437.59,1.1564,10.343,0.12354,0,0,0,0
438.09,1.1596,10.344,0.1241,0,0,0,0
438.59,1.1629,10.346,0.12445,0,0,0,0
439.09,1.166,10.348,0.125,0,0,0,0
439.59,1.1689,10.349,0.12559,0,0,0,0
440.09,1.1717,10.351,0.12605,0,0,0,0
440.59,1.1744,10.352,0.12661,0,0,0,0
441.09,1.1771,10.354,0.1271,0,0,0,0
441.59,1.1798,10.356,0.12777,0,0,0,0
442.09,1.1826,10.357,0.12806,0,0,0,0
442.59,1.1858,10.359,0.12876,0,0,0,0
443.09,1.189,10.36,0.1292,0,0,0,0
443.59,1.192,10.362,0.12961,0,0,0,0
444.09,1.1954,10.363,0.13033,0,0,0,0
444.59,1.1984,10.365,0.1308,0,0,0,0
445.09,1.2012,10.366,0.1317,0,0,0,0
445.59,1.2043,10.367,0.13211,0,0,0,0
446.09,1.2067,10.369,0.13268,0,0,0,0
446.59,1.2095,10.37,0.13341,0,0,0,0
447.09,1.2127,10.371,0.13384,0,0,0,0
447.59,1.2153,10.373,0.13448,0,0,0,0
448.09,1.2186,10.374,0.135,0,0,0,0
448.59,1.2218,10.375,0.13544,0,0,0,0
449.09,1.2254,10.376,0.13613,0,0,0,0
449.59,1.2286,10.378,0.13674,0,0,0,0
450.09,1.2315,10.379,0.13726,0,0,0,0
450.59,1.2344,10.38,0.13772,0,0,0,0
451.09,1.2371,10.382,0.13838,0,0,0,0
451.59,1.2398,10.383,0.13907,0,0,0,0
452.09,1.2427,10.384,0.13956,0,0,0,0
452.59,1.2457,10.385,0.14025,0,0,0,0
453.09,1.2489,10.387,0.14077,0,0,0,0
453.59,1.2521,10.388,0.14143,0,0,0,0
454.09,1.2556,10.389,0.14186,0,0,0,0
454.59,1.2587,10.39,0.14255,0,0,0,0
455.09,1.262,10.391,0.14324,0,0,0,0
455.59,1.2648,10.392,0.14384,0,0,0,0
456.09,1.2678,10.393,0.1443,0,0,0,0
456.59,1.2707,10.393,0.14502,0,0,0,0
457.09,1.2735,10.394,0.14573,0,0,0,0
457.59,1.2764,10.395,0.14619,0,0,0,0
458.09,1.2794,10.397,0.14674,0,0,0,0
458.59,1.2828,10.398,0.14759,0,0,0,0
459.09,1.2861,10.398,0.14828,0,0,0,0
459.59,1.2895,10.399,0.14885,0,0,0,0
460.09,1.293,10.4,0.14951,0,0,0,0
460.59,1.2961,10.401,0.15005,0,0,0,0
461.09,1.2988,10.402,0.1509,0,0,0,0
461.59,1.302,10.403,0.15141,0,0,0,0
462.09,1.3045,10.403,0.15218,0,0,0,0
462.59,1.3075,10.403,0.15281,0,0,0,0
463.09,1.3108,10.404,0.1534,0,0,0,0
463.59,1.3137,10.405,0.15392,0,0,0,0
464.09,1.3175,10.405,0.15459,0,0,0,0
464.59,1.3207,10.406,0.15528,0,0,0,0
465.09,1.324,10.407,0.15587,0,0,0,0
465.59,1.3274,10.407,0.15658,0,0,0,0
466.09,1.3303,10.408,0.15726,0,0,0,0
466.59,1.3333,10.408,0.15808,0,0,0,0
467.09,1.3361,10.408,0.1587,0,0,0,0
467.59,1.3391,10.409,0.15966,0,0,0,0
468.09,1.3423,10.409,0.1602,0,0,0,0
468.59,1.3455,10.41,0.16093,0,0,0,0
469.09,1.349,10.41,0.16163,0,0,0,0
469.59,1.3522,10.411,0.16237,0,0,0,0
470.09,1.3558,10.411,0.16315,0,0,0,0
470.59,1.3591,10.411,0.1638,0,0,0,0
471.09,1.3621,10.411,0.1645,0,0,0,0
471.59,1.365,10.412,0.16543,0,0,0,0
472.09,1.3681,10.412,0.16596,0,0,0,0
472.59,1.3709,10.412,0.16652,0,0,0,0
473.09,1.3741,10.412,0.16731,0,0,0,0
473.59,1.3774,10.412,0.16809,0,0,0,0
474.09,1.3807,10.412,0.16896,0,0,0,0
474.59,1.3843,10.412,0.16963,0,0,0,0
475.09,1.3881,10.412,0.17033,0,0,0,0
475.59,1.3914,10.412,0.17088,0,0,0,0
476.09,1.3946,10.413,0.17175,0,0,0,0
476.59,1.3974,10.413,0.17248,0,0,0,0
477.09,1.4003,10.413,0.1734,0,0,0,0
477.59,1.4032,10.412,0.17429,0,0,0,0
478.09,1.4064,10.412,0.17481,0,0,0,0
478.59,1.4096,10.412,0.17565,0,0,0,0
479.09,1.4129,10.412,0.1764,0,0,0,0
479.59,1.4168,10.411,0.17751,0,0,0,0
480.09,1.4203,10.411,0.17814,0,0,0,0
480.59,1.4233,10.411,0.17889,0,0,0,0
481.09,1.4267,10.411,0.17967,0,0,0,0
481.59,1.4299,10.411,0.18063,0,0,0,0
482.09,1.4328,10.41,0.18146,0,0,0,0
482.59,1.4359,10.41,0.18235,0,0,0,0
483.09,1.4389,10.41,0.1832,0,0,0,0
483.59,1.442,10.409,0.18414,0,0,0,0
484.09,1.4456,10.409,0.1848,0,0,0,0
484.59,1.4492,10.409,0.18565,0,0,0,0
485.09,1.4529,10.408,0.18664,0,0,0,0
485.59,1.4563,10.408,0.18746,0,0,0,0
486.09,1.4594,10.407,0.18818,0,0,0,0
486.59,1.4629,10.406,0.18911,0,0,0,0
487.09,1.4658,10.405,0.18985,0,0,0,0
487.59,1.4689,10.405,0.19056,0,0,0,0
488.09,1.4718,10.404,0.19149,0,0,0,0
488.59,1.4749,10.404,0.19226,0,0,0,0
489.09,1.4785,10.403,0.19329,0,0,0,0
489.59,1.4822,10.402,0.194,0,0,0,0
490.09,1.486,10.401,0.19504,0,0,0,0
490.59,1.4895,10.4,0.19607,0,0,0,0
491.09,1.4929,10.4,0.19697,0,0,0,0
491.59,1.4959,10.399,0.19781,0,0,0,0
492.09,1.4989,10.398,0.19866,0,0,0,0
492.59,1.502,10.397,0.19966,0,0,0,0
493.09,1.5052,10.396,0.20061,0,0,0,0
493.59,1.5084,10.395,0.20169,0,0,0,0
494.09,1.5123,10.394,0.20253,0,0,0,0
494.59,1.5157,10.393,0.20348,0,0,0,0
495.09,1.5194,10.392,0.20447,0,0,0,0
495.59,1.5228,10.391,0.2055,0,0,0,0
496.09,1.5261,10.39,0.20633,0,0,0,0
496.59,1.5293,10.388,0.20738,0,0,0,0
497.09,1.5326,10.387,0.20827,0,0,0,0
497.59,1.5358,10.385,0.20942,0,0,0,0
498.09,1.5389,10.384,0.21039,0,0,0,0
498.59,1.542,10.383,0.21128,0,0,0,0
499.09,1.5458,10.382,0.21235,0,0,0,0
499.59,1.5497,10.38,0.21334,0,0,0,0
500.09,1.5533,10.378,0.2143,0,0,0,0
500.59,1.5568,10.377,0.21532,0,0,0,0
501.09,1.5602,10.375,0.21622,0,0,0,0
501.59,1.5633,10.374,0.21732,0,0,0,0
502.09,1.5665,10.372,0.2182,0,0,0,0
502.59,1.5694,10.371,0.21918,0,0,0,0
503.09,1.5728,10.368,0.22019,0,0,0,0
503.59,1.5763,10.367,0.22112,0,0,0,0
504.09,1.5799,10.365,0.22216,0,0,0,0
504.59,1.5836,10.363,0.2234,0,0,0,0
505.09,1.5876,10.361,0.22441,0,0,0,0
505.59,1.591,10.359,0.2256,0,0,0,0
506.09,1.5942,10.358,0.22663,0,0,0,0
506.59,1.5972,10.356,0.2275,0,0,0,0
507.09,1.6004,10.354,0.22868,0,0,0,0
507.59,1.6037,10.352,0.22995,0,0,0,0
508.09,1.6068,10.349,0.23095,0,0,0,0
508.59,1.6101,10.347,0.23179,0,0,0,0
509.09,1.6137,10.345,0.23305,0,0,0,0
509.59,1.6176,10.343,0.23407,0,0,0,0
510.09,1.6215,10.341,0.23517,0,0,0,0
510.59,1.6249,10.338,0.23614,0,0,0,0
511.09,1.6283,10.336,0.23737,0,0,0,0
511.59,1.6312,10.334,0.23864,0,0,0,0
512.09,1.6343,10.332,0.23974,0,0,0,0
512.59,1.6376,10.329,0.24065,0,0,0,0
513.09,1.6408,10.327,0.24166,0,0,0,0
513.59,1.6442,10.324,0.24291,0,0,0,0
514.09,1.648,10.322,0.24387,0,0,0,0
514.59,1.6519,10.319,0.24507,0,0,0,0
515.09,1.6555,10.317,0.24615,0,0,0,0
515.59,1.6591,10.314,0.2475,0,0,0,0
516.09,1.6624,10.312,0.24858,0,0,0,0
516.59,1.6656,10.309,0.24998,0,0,0,0
517.09,1.6689,10.306,0.25119,0,0,0,0
517.59,1.672,10.304,0.25237,0,0,0,0
518.09,1.6754,10.301,0.25376,0,0,0,0
518.59,1.679,10.299,0.25482,0,0,0,0
519.09,1.6827,10.296,0.25628,0,0,0,0
519.59,1.6865,10.293,0.25738,0,0,0,0
520.09,1.6904,10.29,0.2585,0,0,0,0
520.59,1.6938,10.287,0.25991,0,0,0,0
521.09,1.6973,10.284,0.2609,0,0,0,0
521.59,1.7004,10.28,0.26208,0,0,0,0
522.09,1.7038,10.278,0.26327,0,0,0,0
522.59,1.7069,10.274,0.26457,0,0,0,0
523.09,1.7105,10.271,0.26566,0,0,0,0
523.59,1.7139,10.268,0.26685,0,0,0,0
524.09,1.7179,10.264,0.2681,0,0,0,0
524.59,1.7217,10.261,0.26964,0,0,0,0
525.09,1.7253,10.258,0.27088,0,0,0,0
525.59,1.7288,10.254,0.27222,0,0,0,0
526.09,1.7322,10.251,0.27373,0,0,0,0
526.59,1.7354,10.247,0.27484,0,0,0,0
527.09,1.7387,10.243,0.27622,0,0,0,0
527.59,1.7421,10.24,0.2777,0,0,0,0
528.09,1.7453,10.236,0.27911,0,0,0,0
528.59,1.7492,10.232,0.28018,0,0,0,0
529.09,1.7534,10.229,0.28165,0,0,0,0
529.59,1.757,10.224,0.28315,0,0,0,0
530.09,1.7609,10.221,0.28455,0,0,0,0
530.59,1.7646,10.217,0.28579,0,0,0,0
531.09,1.7674,10.213,0.28751,0,0,0,0
531.59,1.7706,10.208,0.28885,0,0,0,0
532.09,1.7743,10.205,0.29019,0,0,0,0
532.59,1.7774,10.2,0.29155,0,0,0,0
533.09,1.7812,10.196,0.29274,0,0,0,0
533.59,1.7848,10.192,0.29414,0,0,0,0
534.09,1.7889,10.189,0.29526,0,0,0,0
534.59,1.7928,10.184,0.29661,0,0,0,0
535.09,1.7962,10.18,0.29811,0,0,0,0
535.59,1.7999,10.175,0.29958,0,0,0,0
536.09,1.8032,10.17,0.30096,0,0,0,0
536.59,1.8065,10.166,0.30252,0,0,0,0
537.09,1.8099,10.161,0.30394,0,0,0,0
537.59,1.8136,10.156,0.30567,0,0,0,0
538.09,1.8172,10.152,0.30691,0,0,0,0
538.59,1.8212,10.147,0.30815,0,0,0,0
539.09,1.8253,10.143,0.30973,0,0,0,0
539.59,1.8291,10.138,0.31102,0,0,0,0
540.09,1.8327,10.133,0.31264,0,0,0,0
540.59,1.8359,10.127,0.31422,0,0,0,0
541.09,1.8393,10.122,0.31567,0,0,0,0
541.59,1.8428,10.117,0.31745,0,0,0,0
542.09,1.8462,10.111,0.31868,0,0,0,0
542.59,1.8498,10.106,0.32029,0,0,0,0
543.09,1.8537,10.101,0.32195,0,0,0,0
543.59,1.858,10.095,0.32346,0,0,0,0
544.09,1.8618,10.091,0.32485,0,0,0,0
544.59,1.8656,10.085,0.32623,0,0,0,0
545.09,1.8688,10.08,0.32781,0,0,0,0
545.59,1.8725,10.073,0.32936,0,0,0,0
546.09,1.8758,10.068,0.33098,0,0,0,0
546.59,1.8793,10.061,0.33257,0,0,0,0
547.09,1.8832,10.056,0.33445,0,0,0,0
547.59,1.887,10.049,0.33587,0,0,0,0
548.09,1.891,10.044,0.33731,0,0,0,0
548.59,1.8948,10.037,0.33891,0,0,0,0
549.09,1.8986,10.031,0.34075,0,0,0,0
549.59,1.9021,10.025,0.34209,0,0,0,0
550.09,1.9058,10.019,0.3435,0,0,0,0
550.59,1.909,10.012,0.34501,0,0,0,0
551.09,1.9125,10.006,0.34669,0,0,0,0
551.59,1.916,9.9994,0.3481,0,0,0,0
552.09,1.9197,9.9933,0.34964,0,0,0,0
552.59,1.9237,9.9864,0.35104,0,0,0,0
553.09,1.928,9.9796,0.35267,0,0,0,0
553.59,1.9319,9.9724,0.35439,0,0,0,0
554.09,1.9356,9.9653,0.35583,0,0,0,0
554.59,1.939,9.958,0.35743,0,0,0,0
555.09,1.9425,9.9513,0.35903,0,0,0,0
555.59,1.9459,9.9444,0.36067,0,0,0,0
556.09,1.9495,9.9373,0.36221,0,0,0,0
556.59,1.953,9.9294,0.36383,0,0,0,0
557.09,1.9569,9.9221,0.36521,0,0,0,0
557.59,1.9613,9.9146,0.36672,0,0,0,0
558.09,1.9654,9.9074,0.36851,0,0,0,0
558.59,1.9692,9.8996,0.37048,0,0,0,0
559.09,1.9727,9.8921,0.37199,0,0,0,0
559.59,1.9762,9.8836,0.37379,0,0,0,0
560.09,1.9796,9.8757,0.37559,0,0,0,0
560.59,1.9834,9.8679,0.37727,0,0,0,0
561.09,1.9869,9.8606,0.3792,0,0,0,0
561.59,1.9907,9.8521,0.38101,0,0,0,0
562.09,1.995,9.8436,0.38273,0,0,0,0
562.59,1.9992,9.8347,0.38446,0,0,0,0
563.09,2.003,9.8263,0.38599,0,0,0,0
563.59,2.0068,9.8177,0.38793,0,0,0,0
564.09,2.0105,9.809,0.38973,0,0,0,0
564.59,2.0142,9.7997,0.39136,0,0,0,0
565.09,2.0177,9.7903,0.39317,0,0,0,0
565.59,2.0215,9.7807,0.39518,0,0,0,0
566.09,2.0253,9.7719,0.3967,0,0,0,0
566.59,2.0294,9.7626,0.39852,0,0,0,0
567.09,2.0336,9.7534,0.40052,0,0,0,0
567.59,2.0378,9.7433,0.40229,0,0,0,0
568.09,2.0417,9.7337,0.40413,0,0,0,0
568.59,2.0455,9.7233,0.40621,0,0,0,0
569.09,2.0493,9.7137,0.40797,0,0,0,0
569.59,2.0527,9.7036,0.4099,0,0,0,0
570.09,2.0564,9.6936,0.4119,0,0,0,0
570.59,2.0604,9.6827,0.41368,0,0,0,0
571.09,2.0648,9.6723,0.41549,0,0,0,0
571.59,2.069,9.6611,0.41748,0,0,0,0
572.09,2.0733,9.6499,0.4195,0,0,0,0
572.59,2.0772,9.6381,0.42135,0,0,0,0
573.09,2.0811,9.6269,0.42335,0,0,0,0
573.59,2.0846,9.6151,0.42536,0,0,0,0
574.09,2.0883,9.6036,0.42735,0,0,0,0
574.59,2.092,9.5911,0.42947,0,0,0,0
575.09,2.0961,9.5797,0.43175,0,0,0,0
575.59,2.1002,9.5677,0.43371,0,0,0,0
576.09,2.1046,9.5563,0.43595,0,0,0,0
576.59,2.1089,9.5434,0.43788,0,0,0,0
577.09,2.113,9.5313,0.44025,0,0,0,0
577.59,2.1167,9.5177,0.44202,0,0,0,0
578.09,2.1205,9.5053,0.44451,0,0,0,0
578.59,2.1241,9.4923,0.44671,0,0,0,0
579.09,2.128,9.4799,0.4487,0,0,0,0
579.59,2.1322,9.4659,0.45041,0,0,0,0
580.09,2.1366,9.4521,0.45236,0,0,0,0
580.59,2.141,9.4376,0.45412,0,0,0,0
581.09,2.1453,9.4231,0.45622,0,0,0,0
581.59,2.1495,9.4081,0.45836,0,0,0,0
582.09,2.1534,9.3936,0.4607,0,0,0,0
582.59,2.1573,9.3781,0.46268,0,0,0,0
583.09,2.1614,9.3629,0.46491,0,0,0,0
583.59,2.165,9.3469,0.46746,0,0,0,0
584.09,2.1695,9.3323,0.46966,0,0,0,0
584.59,2.1738,9.3166,0.47125,0,0,0,0
585.09,2.1784,9.3011,0.47348,0,0,0,0
585.59,2.1829,9.2836,0.47585,0,0,0,0
586.09,2.187,9.2674,0.47788,0,0,0,0
586.59,2.1913,9.2496,0.4799,0,0,0,0
587.09,2.1952,9.2331,0.48254,0,0,0,0
587.59,2.1994,9.2154,0.48521,0,0,0,0
588.09,2.2035,9.1984,0.48755,0,0,0,0
588.59,2.208,9.1796,0.48989,0,0,0,0
589.09,2.2129,9.1611,0.49268,0,0,0,0
589.59,2.2178,9.1416,0.49519,0,0,0,0
590.09,2.2223,9.1221,0.49724,0,0,0,0
590.59,2.2267,9.1016,0.50048,0,0,0,0
591.09,2.2307,9.0814,0.50299,0,0,0,0
591.59,2.2354,9.06,0.50551,0,0,0,0
592.09,2.2395,9.0387,0.50836,0,0,0,0
592.59,2.2444,9.0166,0.51089,0,0,0,0
593.09,2.2493,8.9966,0.5138,0,0,0,0
593.59,2.2542,8.9741,0.51644,0,0,0,0
594.09,2.2595,8.9513,0.5189,0,0,0,0
594.59,2.2641,8.9254,0.52189,0,0,0,0
595.09,2.2687,8.9016,-Inf,0,0,0,0
595.59,2.2734,8.8746,-Inf,0,0,0,0
596.09,2.2782,8.8489,-Inf,0,0,0,0
596.59,2.2864,8.8178,-Inf,0,0,0,0