File: polyN_optimization/results_exp/AA7020-T6/_SL_320_SH2_90_1.csv
Time[s];Displacement[mm];Force[kN];AxStrain_1;AxStrain_2;Thickness[mm];Width[mm];Inner width
0;0;0.0003;0;0;1.022;20;0
0.5;-0.001443619;0.0016;0;0;0;0;0
1.0001;-1.05E-03;-0.0003;0;0;0;0;0
1.5001;-0.000357399;0;0;0;0;0;0
2.0001;-7.60302E-05;0.001;0;0;0;0;0
2.5;2.21144E-05;0.0019;0;0;0;0;0
3;-0.000613595;0.0007;0;0;0;0;0
3.5;-0.001036637;0.0016;0;0;0;0;0
4.0003;-7.92E-04;0.0003;0;0;0;0;0
4.5003;-0.000922623;0;0;0;0;0;0
5;-0.000156012;-0.0019;0;0;0;0;0
5.5001;-9.88E-05;-0.0003;0;0;0;0;0
6;-0.000277099;0.0022;0;0;0;0;0
6.5;-0.002610903;0.0025;0;0;0;0;0
7.0003;-0.000920966;-0.0009;0;0;0;0;0
7.5001;-0.000560763;0;0;0;0;0;0
7.9999;-0.001147209;0.0041;0;0;0;0;0
8.5001;0.001527296;0.0067;0;0;0;0;0
9.0002;0.003616758;0.0221;0;0;0;0;0
9.5002;0.006496475;0.0319;0;0;0;0;0
9.9999;0.0103875;0.0427;0;0;0;0;0
10.5;0.0114578;0.0515;0;0;0;0;0
11;0.0157833;0.0626;0;0;0;0;0
11.5002;0.0211672;0.0695;0;0;0;0;0
11.9999;0.0215068;0.0812;0;0;0;0;0
12.4998;0.0237793;0.0882;0;0;0;0;0
13;0.0273906;0.0989;0;0;0;0;0
13.4998;0.0288961;0.1053;0;0;0;0;0
13.9999;0.03115366;0.11;0;0;0;0;0
14.4999;0.0359612;0.1249;0;0;0;0;0
15;0.038259;0.1271;0;0;0;0;0
15.4998;0.0403585;0.1334;0;0;0;0;0
15.9999;0.0442532;0.1425;0;0;0;0;0
16.4999;4.65E-02;0.1514;0;0;0;0;0
16.9999;0.049126;0.1549;0;0;0;0;0
17.4998;0.0528378;0.159;0;0;0;0;0
17.9997;0.0550447;0.1681;0;0;0;0;0
18.4997;0.0594067;0.1691;0;0;0;0;0
19;0.0622315;0.1805;0;0;0;0;0
19.4998;6.40E-02;0.1836;0;0;0;0;0
19.9999;0.0675943;0.1824;0;0;0;0;0
20.4997;0.0713302;0.1868;0;0;0;0;0
21;0.0745955;0.1906;0;0;0;0;0
21.4998;0.0774795;0.1918;0;0;0;0;0
22;0.0815474;0.1941;0;0;0;0;0
22.4997;0.08395529;0.1928;0;0;0;0;0
22.9997;8.67E-02;0.1956;0;0;0;0;0
23.4999;0.0898393;0.1937;0;0;0;0;0
24;0.09263663;0.1969;0;0;0;0;0
24.4999;0.0958446;0.1997;0;0;0;0;0
24.9996;9.90E-02;0.1953;0;0;0;0;0
25.4996;0.103244;0.1944;0;0;0;0;0
25.9999;0.10738;0.2001;0;0;0;0;0
26.4999;0.109673;0.1988;0;0;0;0;0
26.9997;0.113366;0.1969;0;0;0;0;0
27.4996;1.16E-01;0.1975;0;0;0;0;0
27.9997;1.20E-01;0.1994;0;0;0;0;0
28.4996;0.122702;0.201;0;0;0;0;0
28.9996;0.126578;0.1975;0;0;0;0;0
29.4998;0.129137;0.1997;0;0;0;0;0
29.9995;1.32E-01;0.1956;0;0;0;0;0
30.4995;0.136211;0.1969;0;0;0;0;0
30.9996;0.139504;0.1972;0;0;0;0;0
31.4996;1.43E-01;0.195;0;0;0;0;0
31.9996;0.146193;0.1963;0;0;0;0;0
32.4995;0.149994;0.1903;0;0;0;0;0
32.9995;0.152465;0.1953;0;0;0;0;0
33.4995;0.156564;0.195;0;0;0;0;0
33.9995;1.59E-01;0.1937;0;0;0;0;0
34.4998;1.63E-01;0.1963;0;0;0;0;0
34.9996;1.66E-01;0.1953;0;0;0;0;0
35.4996;1.69E-01;0.1922;0;0;0;0;0
35.9997;1.72E-01;0.1893;0;0;0;0;0
36.4995;0.175163;0.1909;0;0;0;0;0
36.9995;1.79E-01;0.1922;0;0;0;0;0
37.4996;0.18256;0.1922;0;0;0;0;0
37.9994;0.185545;0.1906;0;0;0;0;0
38.4994;0.189411;0.1896;0;0;0;0;0
38.9995;1.92E-01;0.1877;0;0;0;0;0
39.4994;0.195137;0.1874;0;0;0;0;0
39.9994;0.197476;0.1852;0;0;0;0;0
40.4993;0.203668;0.1871;0;0;0;0;0
40.9996;0.205371;0.1849;0;0;0;0;0
41.4997;2.08E-01;0.1874;0;0;0;0;0
41.9994;0.212045;0.1833;0;0;0;0;0
42.4993;0.21544;0.1849;0;0;0;0;0
42.9995;0.219118;0.1802;0;0;0;0;0
43.4993;2.23E-01;0.1893;0;0;0;0;0
43.9994;2.25E-01;0.1839;0;0;0;0;0
44.4994;0.228774;0.1821;0;0;0;0;0
44.9994;2.32E-01;0.1855;0;0;0;0;0
45.4994;2.35E-01;0.1817;0;0;0;0;0
45.9995;2.38E-01;0.1805;0;0;0;0;0
46.4996;0.24172;0.1798;0;0;0;0;0
46.9993;2.44E-01;0.1814;0;0;0;0;0
47.4992;0.24833;0.1811;0;0;0;0;0
47.9992;0.251448;0.177;0;0;0;0;0
48.4992;0.254278;0.1795;0;0;0;0;0
48.9993;2.59E-01;0.1792;0;0;0;0;0
49.4993;0.261903;0.176;0;0;0;0;0
49.9994;2.66E-01;0.1754;0;0;0;0;0
50.4992;2.68E-01;0.1726;0;0;0;0;0
50.9993;2.72E-01;0.1741;0;0;0;0;0
51.4995;0.274849;0.1723;0;0;0;0;0
51.9993;2.78E-01;0.177;0;0;0;0;0
52.4993;0.280595;0.1767;0;0;0;0;0
52.9992;0.285482;0.1729;0;0;0;0;0
53.4991;0.288804;0.1748;0;0;0;0;0
53.9992;0.29256;0.1729;0;0;0;0;0
54.4992;0.295477;0.1697;0;0;0;0;0
54.9991;0.299008;0.1723;0;0;0;0;0
55.4991;0.302412;0.1732;0;0;0;0;0
55.9994;0.305187;0.1719;0;0;0;0;0
56.4994;0.308305;0.1688;0;0;0;0;0
56.9992;3.13E-01;0.1688;0;0;0;0;0
57.4993;0.314383;0.164;0;0;0;0;0
57.9991;3.19E-01;0.1685;0;0;0;0;0
58.4991;0.321777;0.1681;0;0;0;0;0
58.9991;0.325009;0.1675;0;0;0;0;0
59.4991;0.327989;0.1662;0;0;0;0;0
59.999;0.331617;0.1707;0;0;0;0;0
60.499;0.334931;0.1694;0;0;0;0;0
60.9991;0.338411;0.1669;0;0;0;0;0
61.4991;0.341969;0.1653;0;0;0;0;0
61.9991;3.44E-01;0.1675;0;0;0;0;0
62.4992;3.48E-01;0.165;0;0;0;0;0
62.999;0.352343;0.1659;0;0;0;0;0
63.4992;0.355275;0.1628;0;0;0;0;0
63.999;0.35836;0.164;0;0;0;0;0
64.4992;0.361694;0.1653;0;0;0;0;0
64.999;3.65E-01;0.164;0;0;0;0;0
65.4989;0.369221;0.165;0;0;0;0;0
65.9992;0.371309;0.1662;0;0;0;0;0
66.499;0.374652;0.1609;0;0;0;0;0
66.9993;3.79E-01;0.1634;0;0;0;0;0
67.4991;3.82E-01;0.1628;0;0;0;0;0
67.9989;0.385379;0.1637;0;0;0;0;0
68.4994;0.386646;0.1634;0;0;0;0;0
68.999;0.390665;0.165;0;0;0;0;0
69.4993;3.95E-01;0.1612;0;0;0;0;0
69.9991;0.396776;0.1609;0;0;0;0;0
70.4988;0.40289;0.1602;0;0;0;0;0
70.9989;0.40623;0.1596;0;0;0;0;0
71.4991;0.408345;0.1615;0;0;0;0;0
71.9989;0.413156;0.1615;0;0;0;0;0
72.4988;4.15E-01;0.1618;0;0;0;0;0
72.9988;4.18E-01;0.1577;0;0;0;0;0
73.4988;4.22E-01;0.159;0;0;0;0;0
73.9989;0.424524;0.1587;0;0;0;0;0
74.4988;4.28E-01;0.1587;0;0;0;0;0
74.9989;4.32E-01;0.1568;0;0;0;0;0
75.4987;0.434469;0.1536;0;0;0;0;0
75.999;0.437831;0.1587;0;0;0;0;0
76.499;0.440922;0.1565;0;0;0;0;0
76.9988;0.445071;0.1533;0;0;0;0;0
77.4987;0.448639;0.1587;0;0;0;0;0
77.9989;0.451057;0.158;0;0;0;0;0
78.4987;4.54E-01;0.1565;0;0;0;0;0
78.9988;0.458369;0.1549;0;0;0;0;0
79.499;0.461872;0.1555;0;0;0;0;0
79.9987;0.465259;0.1577;0;0;0;0;0
80.4986;0.467736;0.1574;0;0;0;0;0
80.9988;0.471554;0.1552;0;0;0;0;0
81.499;0.473993;0.1546;0;0;0;0;0
81.9987;0.479067;0.1555;0;0;0;0;0
82.4986;4.83E-01;0.1552;0;0;0;0;0
82.9988;4.86E-01;0.152;0;0;0;0;0
83.4986;4.89E-01;0.1523;0;0;0;0;0
83.9989;4.92E-01;0.1517;0;0;0;0;0
84.4987;0.494907;0.1555;0;0;0;0;0
84.9986;4.98E-01;0.1546;0;0;0;0;0
85.4988;0.501312;0.1511;0;0;0;0;0
85.9987;5.04E-01;0.1555;0;0;0;0;0
86.4987;5.09E-01;0.153;0;0;0;0;0
86.9987;0.51099;0.1523;0;0;0;0;0
87.4985;0.514133;0.1539;0;0;0;0;0
87.9985;5.18E-01;0.1539;0;0;0;0;0
88.4988;0.521122;0.1492;0;0;0;0;0
88.9991;0.524054;0.1495;0;0;0;0;0
89.4988;0.52825;0.1514;0;0;0;0;0
89.9987;0.531329;0.1508;0;0;0;0;0
90.4985;0.534143;0.147;0;0;0;0;0
90.9986;0.538045;0.1511;0;0;0;0;0
91.4988;0.541462;0.1498;0;0;0;0;0
91.9988;5.45E-01;0.1482;0;0;0;0;0
92.4985;0.547433;0.1498;0;0;0;0;0
92.9986;5.52E-01;0.1498;0;0;0;0;0
93.4984;5.56E-01;0.1508;0;0;0;0;0
93.9985;5.58E-01;0.1473;0;0;0;0;0
94.4987;0.560992;0.1473;0;0;0;0;0
94.9986;0.564791;0.1508;0;0;0;0;0
95.4984;0.567982;0.1539;0;0;0;0;0
95.9987;0.570742;0.1486;0;0;0;0;0
96.4985;0.574092;0.1479;0;0;0;0;0
96.9987;5.79E-01;0.1495;0;0;0;0;0
97.4984;0.580869;0.1495;0;0;0;0;0
97.9984;0.583648;0.1508;0;0;0;0;0
98.4986;0.587688;0.1467;0;0;0;0;0
98.9987;0.590602;0.147;0;0;0;0;0
99.4984;5.94E-01;0.1498;0;0;0;0;0
99.9985;5.98E-01;0.1482;0;0;0;0;0
100.4985;0.600689;0.1479;0;0;0;0;0
100.9986;6.05E-01;0.1419;0;0;0;0;0
101.4984;6.09E-01;0.1479;0;0;0;0;0
101.9984;0.611206;0.1463;0;0;0;0;0
102.4983;0.614569;0.1489;0;0;0;0;0
102.9983;6.18E-01;0.1454;0;0;0;0;0
103.4983;6.21E-01;0.1476;0;0;0;0;0
103.9986;0.624286;0.1463;0;0;0;0;0
104.4986;6.29E-01;0.1454;0;0;0;0;0
104.9984;6.31E-01;0.1448;0;0;0;0;0
105.4984;0.634942;0.1451;0;0;0;0;0
105.9985;0.637372;0.1397;0;0;0;0;0
106.4985;6.40E-01;0.146;0;0;0;0;0
106.9983;0.643984;0.1457;0;0;0;0;0
107.4982;0.646846;0.147;0;0;0;0;0
107.9983;0.650601;0.1438;0;0;0;0;0
108.4982;0.654296;0.1467;0;0;0;0;0
108.9985;0.657961;0.1444;0;0;0;0;0
109.4982;0.661064;0.1451;0;0;0;0;0
109.9984;0.664476;0.1454;0;0;0;0;0
110.4981;0.667354;0.1407;0;0;0;0;0
110.9983;6.71E-01;0.1473;0;0;0;0;0
111.4982;0.674636;0.1467;0;0;0;0;0
111.9982;6.77E-01;0.1381;0;0;0;0;0
112.4983;0.680996;0.1422;0;0;0;0;0
112.9981;6.84E-01;0.1422;0;0;0;0;0
113.4981;0.687692;0.1448;0;0;0;0;0
113.9982;0.690667;0.1429;0;0;0;0;0
114.4985;0.694129;0.146;0;0;0;0;0
114.9982;0.697397;0.1397;0;0;0;0;0
115.4982;0.701209;0.1444;0;0;0;0;0
115.9981;0.704806;0.1457;0;0;0;0;0
116.4982;7.08E-01;0.1457;0;0;0;0;0
116.9982;0.711116;0.146;0;0;0;0;0
117.498;7.15E-01;0.1457;0;0;0;0;0
117.998;0.718341;0.1435;0;0;0;0;0
118.4983;7.22E-01;0.147;0;0;0;0;0
118.9983;0.725249;0.1444;0;0;0;0;0
119.4983;7.28E-01;0.1419;0;0;0;0;0
119.998;0.730963;0.1489;0;0;0;0;0
120.4979;0.734791;0.141;0;0;0;0;0
120.9983;0.737871;0.1432;0;0;0;0;0
121.4983;0.740717;0.1429;0;0;0;0;0
121.9981;0.744074;0.1388;0;0;0;0;0
122.4979;7.48E-01;0.1444;0;0;0;0;0
122.998;0.75197;0.1425;0;0;0;0;0
123.4979;0.753158;0.1429;0;0;0;0;0
123.998;0.757077;0.1425;0;0;0;0;0
124.4982;0.760537;0.1369;0;0;0;0;0
124.9981;7.64E-01;0.1391;0;0;0;0;0
125.4978;0.767132;0.1397;0;0;0;0;0
125.998;7.70E-01;0.141;0;0;0;0;0
126.498;0.774939;0.1413;0;0;0;0;0
126.998;7.77E-01;0.1381;0;0;0;0;0
127.4979;0.782421;0.1397;0;0;0;0;0
127.998;0.783746;0.14;0;0;0;0;0
128.4979;0.788289;0.1422;0;0;0;0;0
128.9981;0.790809;0.14;0;0;0;0;0
129.4982;7.95E-01;0.1365;0;0;0;0;0
129.9981;0.797776;0.1388;0;0;0;0;0
130.4978;0.800832;0.1419;0;0;0;0;0
130.9981;0.80585;0.135;0;0;0;0;0
131.4979;8.09E-01;0.1407;0;0;0;0;0
131.9979;8.10E-01;0.1381;0;0;0;0;0
132.4978;0.816092;0.1391;0;0;0;0;0
132.9978;0.818122;0.1372;0;0;0;0;0
133.4978;8.22E-01;0.1416;0;0;0;0;0
133.998;0.823778;0.1388;0;0;0;0;0
134.4978;0.829102;0.1416;0;0;0;0;0
134.9977;0.83102;0.1381;0;0;0;0;0
135.4979;0.834316;0.1416;0;0;0;0;0
135.9978;0.837463;0.1375;0;0;0;0;0
136.498;0.840296;0.1372;0;0;0;0;0
136.998;0.84421;0.141;0;0;0;0;0
137.4977;0.847795;0.1403;0;0;0;0;0
137.9977;8.50E-01;0.14;0;0;0;0;0
138.4977;0.854316;0.1403;0;0;0;0;0
138.9977;0.85715;0.1397;0;0;0;0;0
139.498;0.8609;0.1391;0;0;0;0;0
139.9978;0.865068;0.1381;0;0;0;0;0
140.4976;8.68E-01;0.1407;0;0;0;0;0
140.9977;8.71E-01;0.1369;0;0;0;0;0
141.4977;0.874304;0.141;0;0;0;0;0
141.9977;0.877934;0.1391;0;0;0;0;0
142.4978;8.80E-01;0.1372;0;0;0;0;0
142.9976;0.885102;0.1359;0;0;0;0;0
143.4976;0.887049;0.1369;0;0;0;0;0
143.9977;0.890977;0.1362;0;0;0;0;0
144.4976;0.894356;0.1397;0;0;0;0;0
144.9976;0.896773;0.1378;0;0;0;0;0
145.4977;0.901292;0.1391;0;0;0;0;0
145.9978;0.904536;0.1381;0;0;0;0;0
146.4977;0.907485;0.1391;0;0;0;0;0
146.9979;9.10E-01;0.1346;0;0;0;0;0
147.4975;0.914535;0.1384;0;0;0;0;0
147.9977;0.917458;0.1359;0;0;0;0;0
148.4975;9.21E-01;0.1394;0;0;0;0;0
148.9978;0.923226;0.1378;0;0;0;0;0
149.4976;9.28E-01;0.1356;0;0;0;0;0
149.9975;0.930794;0.1391;0;0;0;0;0
150.4974;0.933646;0.1362;0;0;0;0;0
150.9978;0.937858;0.135;0;0;0;0;0
151.4975;0.9411017;0.1359;0;0;0;0;0
151.9978;0.944107;0.1356;0;0;0;0;0
152.4974;0.947786;0.1375;0;0;0;0;0
152.9975;0.950933;0.1372;0;0;0;0;0
153.4974;0.954389;0.1359;0;0;0;0;0
153.9975;0.957652;0.1346;0;0;0;0;0
154.4975;0.961765;0.1324;0;0;0;0;0
154.9974;0.96463;0.129;0;0;0;0;0
155.4974;0.967201;0.1318;0;0;0;0;0
155.9975;0.970559;0.1359;0;0;0;0;0
156.4977;0.975441;0.1346;0;0;0;0;0
156.9977;0.977057;0.1321;0;0;0;0;0
157.4975;0.98027;0.1346;0;0;0;0;0
157.9973;0.984159;0.1369;0;0;0;0;0
158.4973;0.987572;0.1359;0;0;0;0;0
158.9974;0.990783;0.1328;0;0;0;0;0
159.4974;0.993874;0.134;0;0;0;0;0
159.9973;0.997758;0.134;0;0;0;0;0
160.4975;1.00073;0.1346;0;0;0;0;0
160.9974;1.00E+00;0.1312;0;0;0;0;0
161.4974;1.00771;0.1343;0;0;0;0;0
161.9974;1.01092;0.1372;0;0;0;0;0
162.4973;1.0133;0.1343;0;0;0;0;0
162.9973;1.01777;0.1334;0;0;0;0;0
163.4972;1.02E+00;0.1346;0;0;0;0;0
163.9975;1.02457;0.1321;0;0;0;0;0
164.4973;1.02695;0.1362;0;0;0;0;0
164.9972;1.0307;0.1312;0;0;0;0;0
165.4972;1.03E+00;0.1328;0;0;0;0;0
165.9973;1.03823;0.1283;0;0;0;0;0
166.4975;1.04154;0.129;0;0;0;0;0
166.9973;1.04402;0.1337;0;0;0;0;0
167.4972;1.04702;0.1328;0;0;0;0;0
167.9973;1.05E+00;0.1299;0;0;0;0;0
168.4972;1.05E+00;0.1302;0;0;0;0;0
168.9972;1.05798;0.1343;0;0;0;0;0
169.4972;1.06E+00;0.134;0;0;0;0;0
169.9973;1.06376;0.1328;0;0;0;0;0
170.4973;1.07E+00;0.1328;0;0;0;0;0
170.9972;1.0709;0.1312;0;0;0;0;0
171.4974;1.07415;0.1309;0;0;0;0;0
171.9974;1.07797;0.1312;0;0;0;0;0
172.4971;1.08111;0.1318;0;0;0;0;0
172.9971;1.08476;0.1305;0;0;0;0;0
173.4971;1.08763;0.1337;0;0;0;0;0
173.9974;1.09E+00;0.1337;0;0;0;0;0
174.4971;1.09E+00;0.134;0;0;0;0;0
174.9972;1.0967;0.1296;0;0;0;0;0
175.497;1.10E+00;0.1315;0;0;0;0;0
175.9973;1.10382;0.1302;0;0;0;0;0
176.4971;1.10704;0.1242;0;0;0;0;0
176.9972;1.11E+00;0.1261;0;0;0;0;0
177.497;1.11438;0.1249;0;0;0;0;0
177.997;1.11715;0.1296;0;0;0;0;0
178.497;1.12063;0.1293;0;0;0;0;0
178.9971;1.1241;0.1286;0;0;0;0;0
179.4973;1.12733;0.1312;0;0;0;0;0
179.9971;1.13105;0.1299;0;0;0;0;0
180.4969;1.13E+00;0.1249;0;0;0;0;0
180.997;1.1376;0.1296;0;0;0;0;0
181.497;1.14001;0.1271;0;0;0;0;0
181.997;1.14391;0.1286;0;0;0;0;0
182.4969;1.14784;0.1296;0;0;0;0;0
182.9969;1.15073;0.1286;0;0;0;0;0
183.4969;1.15439;0.1293;0;0;0;0;0
183.997;1.15751;0.128;0;0;0;0;0
184.4969;1.16097;0.1302;0;0;0;0;0
184.9969;1.16377;0.1267;0;0;0;0;0
185.4968;1.17E+00;0.1299;0;0;0;0;0
185.9971;1.17028;0.1258;0;0;0;0;0
186.497;1.17452;0.1309;0;0;0;0;0
186.9972;1.17784;0.1277;0;0;0;0;0
187.497;1.18017;0.1267;0;0;0;0;0
187.997;1.18374;0.1321;0;0;0;0;0
188.4968;1.18748;0.1305;0;0;0;0;0
188.9971;1.19026;0.1299;0;0;0;0;0
189.4969;1.1939;0.1214;0;0;0;0;0
189.997;1.20E+00;0.1274;0;0;0;0;0
190.4968;1.20022;0.1217;0;0;0;0;0
190.997;1.20332;0.1305;0;0;0;0;0
191.4971;1.20664;0.128;0;0;0;0;0
191.9969;1.2103;0.1264;0;0;0;0;0
192.4967;1.21442;0.1267;0;0;0;0;0
192.9969;1.21732;0.1223;0;0;0;0;0
193.4967;1.22083;0.1207;0;0;0;0;0
193.9968;1.22364;0.1302;0;0;0;0;0
194.4968;1.22631;0.1255;0;0;0;0;0
194.9967;1.22985;0.1277;0;0;0;0;0
195.4967;1.23494;0.1264;0;0;0;0;0
195.9968;1.24E+00;0.1236;0;0;0;0;0
196.497;1.24151;0.1239;0;0;0;0;0
196.9968;1.24389;0.1264;0;0;0;0;0
197.4966;1.24711;0.1252;0;0;0;0;0
197.9968;1.25003;0.1249;0;0;0;0;0
198.4966;1.25356;0.1214;0;0;0;0;0
198.9967;1.26E+00;0.1258;0;0;0;0;0
199.4967;1.26061;0.1236;0;0;0;0;0
199.9968;1.26E+00;0.1245;0;0;0;0;0
200.4968;1.26759;0.1233;0;0;0;0;0
200.9969;1.26988;0.1223;0;0;0;0;0
201.4967;1.27365;0.1255;0;0;0;0;0
201.9967;1.27759;0.1144;0;0;0;0;0
202.4966;1.28038;0.1211;0;0;0;0;0
202.9966;1.28388;0.1211;0;0;0;0;0
203.4968;1.28693;0.1211;0;0;0;0;0
203.9969;1.29095;0.1242;0;0;0;0;0
204.4966;1.29404;0.1271;0;0;0;0;0
204.9967;1.29667;0.1267;0;0;0;0;0
205.4967;1.30092;0.1242;0;0;0;0;0
205.9968;1.30314;0.1223;0;0;0;0;0
206.4966;1.30637;0.1211;0;0;0;0;0
206.9968;1.31068;0.1223;0;0;0;0;0
207.4965;1.31287;0.1207;0;0;0;0;0
207.9965;1.31678;0.1198;0;0;0;0;0
208.4965;1.32E+00;0.1242;0;0;0;0;0
208.9965;1.3234;0.1214;0;0;0;0;0
209.4967;1.33E+00;0.1204;0;0;0;0;0
209.9966;1.33142;0.1207;0;0;0;0;0
210.4965;1.33282;0.1169;0;0;0;0;0
210.9967;1.33721;0.1176;0;0;0;0;0
211.4968;1.33994;0.1182;0;0;0;0;0
211.9965;1.34433;0.1198;0;0;0;0;0
212.4964;1.34743;0.1201;0;0;0;0;0
212.9964;1.35018;0.1226;0;0;0;0;0
213.4964;1.35E+00;0.1195;0;0;0;0;0
213.9964;1.357;0.1169;0;0;0;0;0
214.4964;1.36E+00;0.1201;0;0;0;0;0
214.9965;1.36357;0.1163;0;0;0;0;0
215.4963;1.37E+00;0.1173;0;0;0;0;0
215.9964;1.37032;0.1147;0;0;0;0;0
216.4964;1.3728;0.1185;0;0;0;0;0
216.9966;1.37625;0.1201;0;0;0;0;0
217.4965;1.38103;0.116;0;0;0;0;0
217.9963;1.38312;0.1185;0;0;0;0;0
218.4963;1.38651;0.1195;0;0;0;0;0
218.9966;1.39043;0.1192;0;0;0;0;0
219.4966;1.39344;0.1154;0;0;0;0;0
219.9963;1.40E+00;0.1154;0;0;0;0;0
220.4964;1.40112;0.1211;0;0;0;0;0
220.9965;1.40307;0.1188;0;0;0;0;0
221.4964;1.4067;0.1154;0;0;0;0;0
221.9963;1.41074;0.1163;0;0;0;0;0
222.4964;1.41331;0.1138;0;0;0;0;0
222.9962;1.41652;0.1147;0;0;0;0;0
223.4962;1.41989;0.1157;0;0;0;0;0
223.9963;1.42365;0.1163;0;0;0;0;0
224.4963;1.42615;0.1125;0;0;0;0;0
224.9962;1.43029;0.1151;0;0;0;0;0
225.4961;1.43408;0.1185;0;0;0;0;0
225.9963;1.43713;0.1122;0;0;0;0;0
226.4963;1.44039;0.1078;0;0;0;0;0
226.9963;1.44412;0.1122;0;0;0;0;0
227.4963;1.45E+00;0.1116;0;0;0;0;0
227.9963;1.45025;0.109;0;0;0;0;0
228.4961;1.45E+00;0.1135;0;0;0;0;0
228.9964;1.45733;0.1109;0;0;0;0;0
229.4962;1.46053;0.109;0;0;0;0;0
229.9962;1.46338;0.1109;0;0;0;0;0
230.4964;1.46696;0.1087;0;0;0;0;0
230.9962;1.47E+00;0.1138;0;0;0;0;0
231.4962;1.47346;0.1081;0;0;0;0;0
231.9962;1.4769;0.1141;0;0;0;0;0
232.4961;1.48065;0.1109;0;0;0;0;0
232.9961;1.48323;0.1106;0;0;0;0;0
233.4961;1.48645;0.1072;0;0;0;0;0
233.9961;1.48986;0.1116;0;0;0;0;0
234.4961;1.49273;0.1059;0;0;0;0;0
234.9962;1.49624;0.1097;0;0;0;0;0
235.4962;1.49993;0.1084;0;0;0;0;0
235.9961;1.50289;0.1087;0;0;0;0;0
236.4961;1.50683;0.1068;0;0;0;0;0
236.9961;1.50928;0.1062;0;0;0;0;0
237.496;1.51224;0.109;0;0;0;0;0
237.996;1.51616;0.1072;0;0;0;0;0
238.496;1.51905;0.1075;0;0;0;0;0
238.9963;1.52327;0.1024;0;0;0;0;0
239.4962;1.52807;0.1103;0;0;0;0;0
239.9959;1.53E+00;0.1078;0;0;0;0;0
240.4959;1.53406;0.1059;0;0;0;0;0
240.996;1.53667;0.104;0;0;0;0;0
241.4962;1.53965;0.1072;0;0;0;0;0
241.996;1.54E+00;0.1011;0;0;0;0;0
242.4959;1.54703;0.1068;0;0;0;0;0
242.9959;1.5506;0.1046;0;0;0;0;0
243.4959;1.55384;0.1046;0;0;0;0;0
243.9959;1.55631;0.1002;0;0;0;0;0
244.4959;1.55897;0.1065;0;0;0;0;0
244.9958;1.56329;0.0999;0;0;0;0;0
245.4958;1.56692;0.1021;0;0;0;0;0
245.9959;1.57045;0.1011;0;0;0;0;0
246.4961;1.57413;0.0939;0;0;0;0;0
246.9959;1.57739;0.0993;0;0;0;0;0
247.4958;1.58078;0.0977;0;0;0;0;0
247.9958;1.58337;0.0999;0;0;0;0;0
248.4958;1.58717;0.0983;0;0;0;0;0
248.9961;1.58853;0.0999;0;0;0;0;0
249.4958;1.59304;0.0977;0;0;0;0;0
249.9958;1.59693;0.0993;0;0;0;0;0
250.4957;1.59975;0.1011;0;0;0;0;0
250.9958;1.60316;0.0964;0;0;0;0;0
251.4958;1.60581;0.0964;0;0;0;0;0
251.9961;1.60997;0.0961;0;0;0;0;0
252.4959;1.61319;0.0996;0;0;0;0;0
252.9957;1.61656;0.0964;0;0;0;0;0
253.496;1.61995;0.0961;0;0;0;0;0
253.996;1.62303;0.0955;0;0;0;0;0
254.4958;1.62583;0.0955;0;0;0;0;0
254.9959;1.63009;0.0967;0;0;0;0;0
255.4958;1.63324;0.0951;0;0;0;0;0
255.9958;1.63638;0.0939;0;0;0;0;0
256.4957;1.63971;0.0964;0;0;0;0;0
256.9958;1.64253;0.0939;0;0;0;0;0
257.4956;1.64585;0.0932;0;0;0;0;0
257.9956;1.65014;0.091;0;0;0;0;0
258.4956;1.65319;0.091;0;0;0;0;0
258.9957;1.65653;0.0907;0;0;0;0;0
259.4957;1.65994;0.0936;0;0;0;0;0
259.9956;1.66382;0.0895;0;0;0;0;0
260.4957;1.66629;0.091;0;0;0;0;0
260.9958;1.66991;0.0901;0;0;0;0;0
261.4957;1.67346;0.0876;0;0;0;0;0
261.9959;1.67695;0.0936;0;0;0;0;0
262.4957;1.68061;0.0882;0;0;0;0;0
262.9955;1.68283;0.0879;0;0;0;0;0
263.4958;1.68665;0.0882;0;0;0;0;0
263.9956;1.68978;0.0901;0;0;0;0;0
264.4956;1.69493;0.0869;0;0;0;0;0
264.9955;1.69677;0.0885;0;0;0;0;0
265.4955;1.69994;0.0863;0;0;0;0;0
265.9956;1.70401;0.0869;0;0;0;0;0
266.4956;1.707;0.0876;0;0;0;0;0
266.9956;1.71014;0.086;0;0;0;0;0
267.4955;1.71439;0.0869;0;0;0;0;0
267.9955;1.71711;0.0876;0;0;0;0;0
268.4954;1.72064;0.0857;0;0;0;0;0
268.9958;1.72341;0.0869;0;0;0;0;0
269.4955;1.72666;0.0835;0;0;0;0;0
269.9954;1.7298;0.0809;0;0;0;0;0
270.4957;1.73363;0.0806;0;0;0;0;0
270.9957;1.73688;0.0809;0;0;0;0;0
271.4955;1.74062;0.086;0;0;0;0;0
271.9955;1.74393;0.0806;0;0;0;0;0
272.4954;1.74729;0.0806;0;0;0;0;0
272.9954;1.75083;0.0797;0;0;0;0;0
273.4956;1.75428;0.0812;0;0;0;0;0
273.9956;1.75712;0.08;0;0;0;0;0
274.4956;1.76128;0.0803;0;0;0;0;0
274.9955;1.76423;0.0812;0;0;0;0;0
275.4953;1.76888;0.0781;0;0;0;0;0
275.9954;1.77121;0.0765;0;0;0;0;0
276.4954;1.77379;0.0768;0;0;0;0;0
276.9954;1.77719;0.0787;0;0;0;0;0
277.4953;1.78023;0.079;0;0;0;0;0
277.9953;1.78471;0.0711;0;0;0;0;0
278.4953;1.78726;0.074;0;0;0;0;0
278.9953;1.79018;0.0752;0;0;0;0;0
279.4955;1.79421;0.0759;0;0;0;0;0
279.9954;1.79794;0.0746;0;0;0;0;0
280.4954;1.79962;0.0778;0;0;0;0;0
280.9953;1.80381;0.0743;0;0;0;0;0
281.4955;1.80716;0.0765;0;0;0;0;0
281.9953;1.8106;0.073;0;0;0;0;0
282.4952;1.81384;0.073;0;0;0;0;0
282.9952;1.81726;0.073;0;0;0;0;0
283.4952;1.82145;0.0733;0;0;0;0;0
283.9953;1.82418;0.0737;0;0;0;0;0
284.4955;1.82767;0.0721;0;0;0;0;0
284.9952;1.83084;0.0718;0;0;0;0;0
285.4951;1.83423;0.0724;0;0;0;0;0
285.9954;1.83833;0.0711;0;0;0;0;0
286.4952;1.84125;0.0724;0;0;0;0;0
286.9954;1.84424;0.0708;0;0;0;0;0
287.4951;1.84852;0.0692;0;0;0;0;0
287.9951;1.8517;0.0676;0;0;0;0;0
288.4951;1.85455;0.0654;0;0;0;0;0
288.9954;1.85698;0.0683;0;0;0;0;0
289.4954;1.86124;0.0686;0;0;0;0;0
289.9952;1.86531;0.0664;0;0;0;0;0
290.4951;1.86813;0.0673;0;0;0;0;0
290.9952;1.87105;0.0654;0;0;0;0;0
291.4951;1.87519;0.0654;0;0;0;0;0
291.9954;1.87834;0.0686;0;0;0;0;0
292.495;1.88151;0.0692;0;0;0;0;0
292.9952;1.88419;0.0642;0;0;0;0;0
293.4953;1.88763;0.0645;0;0;0;0;0
293.9953;1.89286;0.0613;0;0;0;0;0
294.4953;1.89538;0.067;0;0;0;0;0
294.995;1.89811;0.0692;0;0;0;0;0
295.4951;1.90096;0.0654;0;0;0;0;0
295.9951;1.90412;0.0639;0;0;0;0;0
296.4951;1.90765;0.0632;0;0;0;0;0
296.9951;1.91091;0.0607;0;0;0;0;0
297.4949;1.9139;0.0613;0;0;0;0;0
297.9949;1.91737;0.0639;0;0;0;0;0
298.4952;1.92106;0.0597;0;0;0;0;0
298.995;1.9241;0.061;0;0;0;0;0
299.4952;1.92692;0.0579;0;0;0;0;0
299.9951;1.93095;0.0604;0;0;0;0;0
300.4949;1.93429;0.0591;0;0;0;0;0
300.995;1.93743;0.0585;0;0;0;0;0
301.4952;1.9407;0.0591;0;0;0;0;0
301.995;1.9446;0.0582;0;0;0;0;0
302.4949;1.94733;0.0594;0;0;0;0;0
302.9949;1.95119;0.0582;0;0;0;0;0
303.4949;1.95421;0.0566;0;0;0;0;0
303.9949;1.9579;0.0613;0;0;0;0;0
304.4949;1.96324;0.056;0;0;0;0;0
304.9948;1.96545;0.0528;0;0;0;0;0
305.4948;1.96902;0.0572;0;0;0;0;0
305.9951;1.97123;0.0512;0;0;0;0;0
306.4949;1.97452;0.056;0;0;0;0;0
306.9949;1.9778;0.0537;0;0;0;0;0
307.495;1.98106;0.0534;0;0;0;0;0
307.9948;1.985;0.0528;0;0;0;0;0
308.495;1.98916;0.0534;0;0;0;0;0
308.9948;1.99257;0.0553;0;0;0;0;0
309.4948;1.99389;0.0515;0;0;0;0;0
309.9948;1.99849;0.0506;0;0;0;0;0
310.495;2.00095;0.0493;0;0;0;0;0
310.9948;2.00415;0.0515;0;0;0;0;0
311.4948;2.00872;0.0528;0;0;0;0;0
311.9948;2.01134;0.0493;0;0;0;0;0
312.4947;2.01502;0.0493;0;0;0;0;0
312.9947;2.01832;0.0503;0;0;0;0;0
313.4949;2.02157;0.0506;0;0;0;0;0
313.9947;2.02445;0.0449;0;0;0;0;0
314.4949;2.0292;0.0515;0;0;0;0;0
314.9947;2.03175;0.0481;0;0;0;0;0
315.4946;2.03589;0.0465;0;0;0;0;0
315.9947;2.03954;0.0481;0;0;0;0;0
316.4947;2.04249;0.0481;0;0;0;0;0
316.9949;2.0454;0.0424;0;0;0;0;0
317.4946;2.04882;0.0417;0;0;0;0;0
317.9946;2.05243;0.0455;0;0;0;0;0
318.4946;2.05541;0.0411;0;0;0;0;0
318.9947;2.05915;0.0436;0;0;0;0;0
319.4946;2.06211;0.0367;0;0;0;0;0
319.9948;2.06621;0.0427;0;0;0;0;0
320.4945;2.0692;0.0408;0;0;0;0;0
320.9948;2.07323;0.0433;0;0;0;0;0
321.4946;2.07561;0.0449;0;0;0;0;0
321.9946;2.07881;0.0357;0;0;0;0;0
322.4947;2.08203;0.037;0;0;0;0;0
322.9945;2.08627;0.0376;0;0;0;0;0
323.4945;2.08999;0.0408;0;0;0;0;0
323.9948;2.09382;0.0364;0;0;0;0;0
324.4948;2.09746;0.0402;0;0;0;0;0
324.9947;2.10041;0.0395;0;0;0;0;0
325.4945;2.10269;0.0392;0;0;0;0;0
325.9946;2.1058;0.0351;0;0;0;0;0
326.4946;2.10958;0.0367;0;0;0;0;0
326.9946;2.11315;0.0354;0;0;0;0;0
327.4946;2.11651;0.0354;0;0;0;0;0
327.9944;2.12007;0.0357;0;0;0;0;0
328.4947;2.12313;0.037;0;0;0;0;0
328.9945;2.12581;0.0367;0;0;0;0;0
329.4945;2.12976;0.0348;0;0;0;0;0
329.9944;2.13243;0.0332;0;0;0;0;0
330.4944;2.13616;0.0294;0;0;0;0;0
330.9945;2.13985;0.0364;0;0;0;0;0
331.4945;2.14379;0.031;0;0;0;0;0
331.9947;2.14879;0.0319;0;0;0;0;0
332.4944;2.15087;0.0316;0;0;0;0;0
332.9944;2.15361;0.0326;0;0;0;0;0
333.4943;2.15665;0.0259;0;0;0;0;0
333.9946;2.15997;0.0316;0;0;0;0;0
334.4944;2.16335;0.0266;0;0;0;0;0
334.9945;2.16694;0.0294;0;0;0;0;0
335.4943;2.17057;0.0278;0;0;0;0;0
335.9944;2.17442;0.0272;0;0;0;0;0
336.4944;2.17791;0.0259;0;0;0;0;0
336.9944;2.17992;0.0285;0;0;0;0;0
337.4943;2.18332;0.0234;0;0;0;0;0
337.9943;2.18681;0.0244;0;0;0;0;0
338.4942;2.19017;0.0206;0;0;0;0;0
338.9943;2.19332;0.0228;0;0;0;0;0
339.4945;2.19632;0.0231;0;0;0;0;0
339.9944;2.2001;0.0202;0;0;0;0;0
340.4942;2.20346;0.0215;0;0;0;0;0
340.9943;2.20778;0.0187;0;0;0;0;0
341.4943;2.21046;0.0193;0;0;0;0;0
341.9943;2.21429;0.0193;0;0;0;0;0
342.4944;2.21799;0.0177;0;0;0;0;0
342.9942;2.21983;0.0136;0;0;0;0;0
343.4942;2.22369;0.019;0;0;0;0;0
343.9945;2.227472;0.0139;0;0;0;0;0
344.4942;2.23053;0.0155;0;0;0;0;0
344.9942;2.23366;0.013;0;0;0;0;0
345.4941;2.23718;0.0142;0;0;0;0;0
345.9942;2.24068;0.0117;0;0;0;0;0
346.4944;2.24471;0.0123;0;0;0;0;0
346.9942;2.24745;0.0133;0;0;0;0;0
347.4943;2.25137;0.0111;0;0;0;0;0
347.9942;2.25403;0.0127;0;0;0;0;0
348.4941;2.25757;0.0079;0;0;0;0;0
348.9942;2.26088;0.0073;0;0;0;0;0
349.4941;2.2639;0.0067;0;0;0;0;0
349.9941;2.26701;0.0089;0;0;0;0;0
350.494;2.27078;0.0025;0;0;0;0;0
350.9943;2.27468;0.0086;0;0;0;0;0
351.4944;2.2778;0.0054;0;0;0;0;0
351.9941;2.28083;0.0038;0;0;0;0;0
352.494;2.28433;0.0035;0;0;0;0;0
352.994;2.287;0.0025;0;0;0;0;0
353.494;2.29093;0;0;0;0;0;0
353.9943;2.29415;0.0025;0;0;0;0;0
354.494;2.29768;0.0007;0;0;0;0;0
354.994;2.30121;0.001;0;0;0;0;0