File: polyN_optimization/results_exp/AA7020-T6/_SL_120_NT20_90_2.csv
Time[s];Displacement[mm];Force[kN];AxStrain_1;AxStrain_2;Thickness[mm];OuterWidth[mm];InnerWidth[mm]
0;0;0.0051;0;0;1.024;20;10
0.4762;-0.001154742;0.0035;-0.001190182;0;0;0;0
0.9761;0.000633828;-0.0012;-0.000589647;0;0;0;0
1.4761;-0.001020788;-0.0038;-0.000293025;0;0;0;0
1.9761;-0.002899304;-0.0082;-0.000826657;0;0;0;0
2.4761;-0.001723171;-0.0066;-0.000257928;0;0;0;0
2.9761;-0.002095929;0.0013;-0.000191246;0;0;0;0
3.4761;0.000226881;-0.0016;-0.000364979;0;0;0;0
3.9761;-0.002135203;0.007;-0.000252663;0;0;0;0
4.4761;-0.001505583;-0.0063;-0.00029127;0;0;0;0
4.9762;-0.000245115;0.0063;-0.000544008;0;0;0;0
5.4761;-0.002617719;0.0025;-0.000633534;0;0;0;0
5.9762;-0.002837937;0.0016;-0.000243889;0;0;0;0
6.4761;-0.000340321;0.013;-2.45617E-05;0;0;0;0
6.9762;0.002757109;-0.0114;-2.63161E-05;0;0;0;0
7.476;0.002335434;0.0051;0.000354323;0;0;0;0
7.976;0.003270133;0.0187;0.000194718;0;0;0;0
8.476;0.00094031;0.0746;-0.000496615;0;0;0;0
8.976;0.002222169;0.146;0.000285924;0;0;0;0
9.476;0.004839537;0.176;0.000773385;0;0;0;0
9.976;0.006429456;0.2253;0.00089609;0;0;0;0
10.476;0.006927226;0.2816;0.000473572;0;0;0;0
10.9759;0.00778846;0.3211;0.000210504;0;0;0;0
11.4759;0.012106;0.3511;0.001568944;0;0;0;0
11.9759;0.0137654;0.4023;0.001446322;0;0;0;0
12.4761;0.0162516;0.4513;0.001670534;0;0;0;0
12.9759;0.0184117;0.5101;0.000256108;0;0;0;0
13.476;0.0183884;0.5265;0.000661185;0;0;0;0
13.9759;0.01966656;0.6024;0.000727805;0;0;0;0
14.4759;0.0220286;0.6235;0.001376246;0;0;0;0
14.9759;0.0259638;0.7003;0.001479607;0;0;0;0
15.476;0.0266122;0.7345;0.001540917;0;0;0;0
15.9759;0.02879018;0.7784;0.001300908;0;0;0;0
16.4758;0.0235637;0.8141;0.001950728;0;0;0;0
16.9758;0.0270958;0.8754;0.001679291;0;0;0;0
17.4758;0.0304451;0.8918;0.00252838;0;0;0;0
17.9758;0.031879;0.968;0.003429201;0;0;0;0
18.4758;0.0350476;0.9806;0.0022571;0;0;0;0
18.9759;0.0343996;1.0562;0.001476103;0;0;0;0
19.4758;0.035747;1.0862;0.001768611;0;0;0;0
19.9759;0.03897281;1.1364;0.00161974;0;0;0;0
20.4758;0.0381184;1.1658;0.001906953;0;0;0;0
20.9757;0.0391276;1.2445;0.002110053;0;0;0;0
21.4759;0.042749;1.2433;0.003179152;0;0;0;0
21.9757;0.0450307;1.3267;0.003528854;0;0;0;0
22.4757;0.0473094;1.3463;0.00343095;0;0;0;0
22.9757;0.0486538;1.4003;0.003897657;0;0;0;0
23.4757;0.0512358;1.4477;0.003813771;0;0;0;0
23.9758;0.0501843;1.5071;0.003705407;0;0;0;0
24.4757;0.04835417;1.5485;0.002762846;0;0;0;0
24.9757;0.0532251;1.5555;0.002558129;0;0;0;0
25.4757;0.0551795;1.6354;0.003100452;0;0;0;0
25.9756;0.0579345;1.6708;0.003175654;0;0;0;0
26.4756;0.0580573;1.722;0.003182649;0;0;0;0
26.9758;0.0599589;1.7514;0.003969305;0;0;0;0
27.4756;0.0605409;1.7786;0.004631364;0;0;0;0
27.9756;0.0623415;1.8488;0.004877559;0;0;0;0
28.4756;0.064456;1.881;0.005408157;0;0;0;0
28.9757;0.0664285;1.9028;0.004865338;0;0;0;0
29.4756;0.069227;1.9647;0.00354284;0;0;0;0
29.9756;0.069493;1.9998;0.003366258;0;0;0;0
30.4756;0.0726173;2.0725;0.003682684;0;0;0;0
30.9756;0.0739435;2.1019;0.00354284;0;0;0;0
31.4755;0.073761;2.1325;0.004166746;0;0;0;0
31.9755;0.0771905;2.2027;0.00471169;0;0;0;0
32.4755;0.075047;2.2074;0.004178975;0;0;0;0
32.9755;0.0787948;2.2631;0.006135525;0;0;0;0
33.4755;0.0817782;2.3155;0.00626106;0;0;0;0
33.9755;0.0798464;2.374;0.004781533;0;0;0;0
34.4755;0.0829167;2.4034;0.004266325;0;0;0;0
34.9756;0.0859298;2.4492;0.005224923;0;0;0;0
35.4755;0.0883232;2.4836;0.004563257;0;0;0;0
35.9754;0.0891634;2.5143;0.004533567;0;0;0;0
36.4754;0.0925719;2.5487;0.005404667;0;0;0;0
36.9754;0.0919752;2.5724;0.005457013;0;0;0;0
37.4754;0.0964943;2.6252;0.006264547;0;0;0;0
37.9754;0.09613956;2.6328;0.006189577;0;0;0;0
38.4754;0.0998116;2.6859;0.00746505;0;0;0;0
38.9754;0.101478;2.7131;0.006771757;0;0;0;0
39.4755;0.101529;2.7576;0.0057815;0;0;0;0
39.9754;0.104251;2.7459;0.006402269;0;0;0;0
40.4754;0.106604;2.7817;0.006459792;0;0;0;0
40.9753;0.107552;2.811;0.006275008;0;0;0;0
41.4753;0.113537;2.8414;0.006686368;0;0;0;0
41.9753;0.114407;2.843;0.007668765;0;0;0;0
42.4753;0.118368;2.8667;0.008678026;0;0;0;0
42.9753;0.119291;2.8834;0.009336976;0;0;0;0
43.4753;0.123572;2.9052;0.01024558;0;0;0;0
43.9753;0.125822;2.9327;0.01029941;0;0;0;0
44.4753;0.127956;2.9387;0.0105477;0;0;0;0
44.9753;0.131212;2.964;0.009627194;0;0;0;0
45.4754;0.13286;2.9728;0.009615031;0;0;0;0
45.9752;0.136355;2.9839;0.009853053;0;0;0;0
46.4752;0.140934;3.0007;0.0104348;0;0;0;0
46.9752;0.139708;3.019;0.0101466;0;0;0;0
47.4753;0.143795;3.0117;0.011476;0;0;0;0
47.9752;0.146097;3.0531;0.0126616;0;0;0;0
48.4752;0.15024;3.0553;0.0128192;0;0;0;0
48.9752;0.153938;3.0632;0.01277247;0;0;0;0
49.4753;0.157992;3.0714;0.0134858;0;0;0;0
49.9751;0.158117;3.0958;0.0140154;0;0;0;0
50.4751;0.160328;3.0822;0.0137195;0;0;0;0
50.9751;0.165158;3.1195;0.0136987;0;0;0;0
51.4753;0.167666;3.1198;0.0136503;0;0;0;0
51.9751;0.170856;3.1454;0.0138856;0;0;0;0
52.4751;0.173368;3.1476;0.0141434;0;0;0;0
52.9751;0.178909;3.1697;0.0158285;0;0;0;0
53.4751;0.177425;3.1647;0.0154675;0;0;0;0
53.9751;0.182932;3.1688;0.0162117;0;0;0;0
54.4751;0.181605;3.1653;0.016141;0;0;0;0
54.975;0.186883;3.1795;0.0168071;0;0;0;0
55.4751;0.189414;3.2032;0.0168709;0;0;0;0
55.9752;0.193644;3.2238;0.0173504;0;0;0;0
56.475;0.195809;3.2386;0.0173435;0;0;0;0
56.975;0.197452;3.2222;0.0181484;0;0;0;0
57.475;0.201359;3.2291;0.0183947;0;0;0;0
57.975;0.205938;3.2472;0.0185686;0;0;0;0
58.475;0.204063;3.2563;0.0183861;0;0;0;0
58.975;0.211303;3.2712;0.0191437;0;0;0;0
59.4751;0.213794;3.2367;0.018944;0;0;0;0
59.9749;0.215998;3.268;0.0196323;0;0;0;0
60.4749;0.217727;3.2797;0.0202755;0;0;0;0
60.9749;0.223938;3.2693;0.0203546;0;0;0;0
61.475;0.22723;3.3059;0.0206588;0;0;0;0
61.975;0.22856;3.3056;0.0211399;0;0;0;0
62.4749;0.232292;3.2775;0.0218233;0;0;0;0
62.9749;0.235288;3.3154;0.0223518;0;0;0;0
63.475;0.239016;3.311;0.02217168;0;0;0;0
63.9748;0.24252;3.3015;0.0236394;0;0;0;0
64.4748;0.245307;3.3258;0.0228767;0;0;0;0
64.975;0.247639;3.3499;0.0233755;0;0;0;0
65.475;0.251168;3.3473;0.0235692;0;0;0;0
65.9748;0.254331;3.3442;0.0236429;0;0;0;0
66.4748;0.257408;3.3635;0.0241259;0;0;0;0
66.9748;0.259687;3.3603;0.02459847;0;0;0;0
67.4748;0.260876;3.3796;0.0258524;0;0;0;0
67.9748;0.265422;3.3698;0.025572;0;0;0;0
68.4749;0.268035;3.3976;0.025625;0;0;0;0
68.9747;0.272498;3.3878;0.0261122;0;0;0;0
69.4747;0.274301;3.3862;0.025996;0;0;0;0
69.9747;0.278233;3.4036;0.0264079;0;0;0;0
70.4747;0.280925;3.4305;0.0263857;0;0;0;0
70.9747;0.284394;3.4238;0.0270177;0;0;0;0
71.4747;0.285925;3.4039;0.02729086;0;0;0;0
71.9747;0.291734;3.4181;0.02721745;0;0;0;0
72.4748;0.291392;3.4368;0.02808949;0;0;0;0
72.9747;0.295732;3.4298;0.0282635;0;0;0;0
73.4747;0.300414;3.439;0.0290954;0;0;0;0
73.9747;0.299647;3.4368;0.0289182;0;0;0;0
74.4746;0.303909;3.4409;0.0292266;0;0;0;0
74.9746;0.305546;3.4605;0.0290204;0;0;0;0
75.4746;0.312236;3.4614;0.0301633;0;0;0;0
75.9748;0.314884;3.4706;0.0305922;0;0;0;0
76.4746;0.318292;3.4415;0.0306789;0;0;0;0
76.9746;0.319541;3.4801;0.0302671;0;0;0;0
77.4746;0.322859;3.4361;0.0308882;0;0;0;0
77.9746;0.328283;3.4621;0.0316822;0;0;0;0
78.4746;0.329829;3.4873;0.0312079;0;0;0;0
78.9746;0.3332306;3.4899;0.0316839;0;0;0;0
79.4745;0.336749;3.5035;0.0323126;0;0;0;0
79.9746;0.338344;3.5041;0.0318114;0;0;0;0
80.4745;0.34325;3.4883;0.0326591;0;0;0;0
80.9746;0.347315;3.5041;0.0333516;0;0;0;0
81.4745;0.349789;3.5193;0.0333873;0;0;0;0
81.9746;0.352145;3.5177;0.034215;0;0;0;0
82.4745;0.355792;3.5164;0.0340098;0;0;0;0
82.9745;0.359518;3.5243;0.0341929;0;0;0;0
83.4745;0.360618;3.5268;0.0346675;0;0;0;0
83.9746;0.365254;3.5297;0.0345913;0;0;0;0
84.4746;0.368208;3.517;0.0347268;0;0;0;0
84.9744;0.369893;3.5395;0.0351131;0;0;0;0
85.4745;0.3751;3.536;0.0360257;0;0;0;0
85.9744;0.37844;3.5528;0.0359884;0;0;0;0
86.4744;0.379116;3.56;0.0361069;0;0;0;0
86.9745;0.386647;3.5597;0.036469;0;0;0;0
87.4744;0.387814;3.5471;0.0368478;0;0;0;0
87.9744;0.391865;3.5878;0.0373617;0;0;0;0
88.4743;0.392947;3.5714;0.037578;0;0;0;0
88.9745;0.395828;3.5524;0.0369932;0;0;0;0
89.4744;0.397756;3.5942;0.0372603;0;0;0;0
89.9743;0.402722;3.5638;0.0371994;0;0;0;0
90.4743;0.406159;3.573;0.0379024;0;0;0;0
90.9743;0.409812;3.5891;0.0386335;0;0;0;0
91.4744;0.413855;3.5894;0.0394332;0;0;0;0
91.9743;0.415679;3.6049;0.038836;0;0;0;0
92.4743;0.420443;3.6014;0.0394467;0;0;0;0
92.9742;0.420007;3.584;0.039327;0;0;0;0
93.4743;0.42448;3.5774;0.0394501;0;0;0;0
93.9742;0.428971;3.6068;0.0400706;0;0;0;0
94.4742;0.431698;3.6251;0.040411;0;0;0;0
94.9744;0.433486;3.6248;0.0408927;0;0;0;0
95.4742;0.438105;3.6229;0.0406906;0;0;0;0
95.9743;0.441331;3.6318;0.0410359;0;0;0;0
96.4742;0.4489;3.634;0.0413305;0;0;0;0
96.9742;0.448908;3.6321;0.0412564;0;0;0;0
97.4743;0.446905;3.6321;0.0406451;0;0;0;0
97.9743;0.45464;3.6526;0.0415291;0;0;0;0
98.4742;0.458945;3.6611;0.0420743;0;0;0;0
98.9741;0.45983;3.6457;0.0425199;0;0;0;0
99.4742;0.462668;3.6507;0.0431469;0;0;0;0
99.9741;0.467131;3.6495;0.042957;0;0;0;0
100.4741;0.469271;3.6719;0.0433804;0;0;0;0
100.9742;0.471028;3.6754;0.0437684;0;0;0;0
101.4741;0.476;3.6564;0.0436895;0;0;0;0
101.9741;0.475326;3.6855;0.0432695;0;0;0;0
102.4741;0.48005;3.6593;0.0440756;0;0;0;0
102.9741;0.48576;3.6896;0.0443291;0;0;0;0
103.4742;0.488266;3.6719;0.0448761;0;0;0;0
103.974;0.491488;3.6766;0.0448107;0;0;0;0
104.474;0.494309;3.6874;0.0448459;0;0;0;0
104.9741;0.498018;3.6807;0.0453741;0;0;0;0
105.474;0.501819;3.6807;0.046269;0;0;0;0
105.974;0.503605;3.6991;0.0464415;0;0;0;0
106.474;0.507733;3.7117;0.04646499;0;0;0;0
106.9741;0.512324;3.6924;0.0469238;0;0;0;0
107.474;0.513653;3.7104;0.0475898;0;0;0;0
107.9739;0.519214;3.7256;0.0476851;0;0;0;0
108.4739;0.519279;3.701;0.04782395;0;0;0;0
108.9739;0.523887;3.7259;0.04820687;0;0;0;0
109.4739;0.524464;3.7351;0.0477085;0;0;0;0
109.9739;0.529283;3.7044;0.0486414;0;0;0;0
110.4739;0.533417;3.7228;0.048603;0;0;0;0
110.9739;0.533893;3.731;0.0489355;0;0;0;0
111.474;0.54099;3.7357;0.049697;0;0;0;0
111.9739;0.541982;3.7487;0.0499574;0;0;0;0
112.4739;0.546455;3.7225;0.0497287;0;0;0;0
112.974;0.549589;3.7332;0.0495718;0;0;0;0
113.4738;0.551961;3.7509;0.0505564;0;0;0;0
113.9738;0.557913;3.7468;0.0500876;0;0;0;0
114.4738;0.558921;3.7537;0.0503612;0;0;0;0
114.9738;0.563989;3.7402;0.0507882;0;0;0;0
115.4738;0.564415;3.768;0.0511283;0;0;0;0
115.9738;0.568025;3.7711;0.0511566;0;0;0;0
116.4739;0.572933;3.736;0.0516915;0;0;0;0
116.9738;0.572427;3.7755;0.0520247;0;0;0;0
117.4737;0.5804806;3.7575;0.0523161;0;0;0;0
117.9737;0.579386;3.7711;0.0523461;0;0;0;0
118.4737;0.583538;3.7575;0.05307;0;0;0;0
118.9737;0.587765;3.7778;0.0528804;0;0;0;0
119.4737;0.592161;3.7689;0.0536173;0;0;0;0
119.9737;0.593323;3.7755;0.0538301;0;0;0;0
120.4737;0.597751;3.7787;0.0544865;0;0;0;0
120.9737;0.599657;3.7582;0.0547656;0;0;0;0
121.4737;0.603695;3.7904;0.0550961;0;0;0;0
121.9738;0.606999;3.8065;0.0553916;0;0;0;0
122.4737;0.609261;3.7876;0.0562228;0;0;0;0
122.9736;0.613435;3.7974;0.0563986;0;0;0;0
123.4736;0.616961;3.7977;0.0557932;0;0;0;0
123.9736;0.620778;3.7936;0.0562145;0;0;0;0
124.4736;0.623816;3.81;0.05678154;0;0;0;0
124.9736;0.628419;3.7989;0.0574576;0;0;0;0
125.4736;0.630285;3.8179;0.0576812;0;0;0;0
125.9736;0.633345;3.804;0.0583649;0;0;0;0
126.4736;0.635901;3.803;0.0584294;0;0;0;0
126.9735;0.640327;3.8176;0.0580488;0;0;0;0
127.4736;0.640581;3.8264;0.0586842;0;0;0;0
127.9735;0.645945;3.8302;0.05903;0;0;0;0
128.4737;0.649368;3.8305;0.0583268;0;0;0;0
128.9736;0.650842;3.8173;0.0600201;0;0;0;0
129.4735;0.655627;3.8106;0.0600598;0;0;0;0
129.9735;0.658187;3.8296;0.06024808;0;0;0;0
130.4736;0.661551;3.8441;0.0610423;0;0;0;0
130.9736;0.661907;3.8236;0.0612123;0;0;0;0
131.4735;0.669494;3.834;0.0608079;0;0;0;0
131.9736;0.675246;3.835;0.0615489;0;0;0;0
132.4736;0.672085;3.8375;0.0612469;0;0;0;0
132.9736;0.677478;3.8312;0.06227115;0;0;0;0
133.4734;0.679573;3.8343;0.0628891;0;0;0;0
133.9734;0.684423;3.8391;0.0631412;0;0;0;0
134.4735;0.688725;3.8378;0.0633635;0;0;0;0
134.9734;0.692178;3.8451;0.0640861;0;0;0;0
135.4734;0.693771;3.8729;0.0641305;0;0;0;0
135.9734;0.697823;3.8324;0.0643214;0;0;0;0
136.4734;0.698961;3.8571;0.0639726;0;0;0;0
136.9735;0.70366;3.8732;0.0650236;0;0;0;0
137.4735;0.710082;3.8599;0.0654312;0;0;0;0
137.9733;0.708704;3.8571;0.0657582;0;0;0;0
138.4733;0.713768;3.8726;0.0649677;0;0;0;0
138.9733;0.716019;3.87;0.06574503;0;0;0;0
139.4734;0.720041;3.8678;0.0659011;0;0;0;0
139.9733;0.722633;3.8331;0.06649877;0;0;0;0
140.4733;0.727031;3.8561;0.0663576;0;0;0;0
140.9733;0.729121;3.8783;0.0673848;0;0;0;0
141.4733;0.733727;3.8726;0.0670288;0;0;0;0
141.9734;0.734602;3.8764;0.0674061;0;0;0;0
142.4734;0.741826;3.8843;0.0676488;0;0;0;0
142.9732;0.743823;3.8877;0.0678078;0;0;0;0
143.4732;0.745893;3.8846;0.0674799;0;0;0;0
143.9732;0.749045;3.8583;0.0688008;0;0;0;0
144.4733;0.751782;3.8811;0.06986968;0;0;0;0
144.9732;0.754704;3.9026;0.0695392;0;0;0;0
145.4733;0.758284;3.9042;0.0695866;0;0;0;0
145.9732;0.76625;3.9171;0.0701886;0;0;0;0
146.4732;0.765648;3.8814;0.0702508;0;0;0;0
146.9733;0.770074;3.8997;0.0709962;0;0;0;0
147.4731;0.770206;3.8802;0.0714455;0;0;0;0
147.9733;0.773159;3.8764;0.0708688;0;0;0;0
148.4731;0.780613;3.8931;0.0717183;0;0;0;0
148.9731;0.778523;3.9102;0.0712952;0;0;0;0
149.4731;0.784059;3.8814;0.0721542;0;0;0;0
149.9732;0.788222;3.9133;0.0727465;0;0;0;0
150.4731;0.790807;3.9001;0.0727074;0;0;0;0
150.9731;0.793785;3.9269;0.0730988;0;0;0;0
151.4731;0.79534;3.9225;0.0734151;0;0;0;0
151.9732;0.800885;3.9209;0.07346077;0;0;0;0
152.4731;0.804343;3.9197;0.0747705;0;0;0;0
152.973;0.80711;3.926;0.07469076;0;0;0;0
153.473;0.811269;3.938;0.0748763;0;0;0;0
153.9731;0.814558;3.9234;0.0752751;0;0;0;0
154.4731;0.815949;3.9348;0.0762867;0;0;0;0
154.973;0.819843;3.9528;0.0759762;0;0;0;0
155.473;0.824365;3.9402;0.0769529;0;0;0;0
155.9729;0.827965;3.9269;0.0773167;0;0;0;0
156.4729;0.831269;3.92;0.0775148;0;0;0;0
156.9729;0.835655;3.9298;0.0780521;0;0;0;0
157.4729;0.838175;3.926;0.0782289;0;0;0;0
157.9731;0.839933;3.9263;0.078722;0;0;0;0
158.4729;0.84411;3.9307;0.0799212;0;0;0;0
158.9729;0.846936;3.9351;0.0799034;0;0;0;0
159.4729;0.850247;3.9421;0.0797803;0;0;0;0
159.9729;0.853266;3.9282;0.0806352;0;0;0;0
160.4729;0.85537;3.9456;0.0810446;0;0;0;0
160.9729;0.859818;3.944;0.0818807;0;0;0;0
161.4728;0.859431;3.9535;0.08098801;0;0;0;0
161.973;0.866536;3.9636;0.0814037;0;0;0;0
162.4728;0.86823;3.9411;0.0816657;0;0;0;0
162.9728;0.87216;3.962;0.08214899;0;0;0;0
163.4728;0.878012;3.9471;0.083399;0;0;0;0
163.9729;0.875325;3.9626;0.0832053;0;0;0;0
164.4728;0.879374;3.9756;0.0836411;0;0;0;0
164.9728;0.883434;3.9516;0.084404;0;0;0;0
165.4728;0.887518;3.9503;0.08395569;0;0;0;0
165.9727;0.893622;3.949;0.0841541;0;0;0;0
166.4727;0.895389;3.9784;0.0850407;0;0;0;0
166.9727;0.899074;3.9506;0.0855756;0;0;0;0
167.4727;0.903089;3.9664;0.085648;0;0;0;0
167.9727;0.903986;3.9573;0.0854048;0;0;0;0
168.4728;0.906565;3.9816;0.08602317;0;0;0;0
168.9727;0.909752;3.9731;0.0863821;0;0;0;0
169.4727;0.915356;3.9699;0.08674409;0;0;0;0
169.9727;0.917679;3.9772;0.0875834;0;0;0;0
170.4727;0.92249;3.9601;0.088043;0;0;0;0
170.9728;0.924625;3.9784;0.0873423;0;0;0;0
171.4726;0.92879;3.98;0.0877731;0;0;0;0
171.9726;0.931112;3.9639;0.0879836;0;0;0;0
172.4726;0.93249;3.9724;0.0879563;0;0;0;0
172.9726;0.936812;3.9721;0.0896306;0;0;0;0
173.4726;0.940925;3.9835;0.0890963;0;0;0;0
173.9726;0.942046;3.9923;0.0892712;0;0;0;0
174.4726;0.949043;3.9705;0.0897862;0;0;0;0
174.9727;0.953338;3.986;0.0899722;0;0;0;0
175.4726;0.954456;4.0078;0.0902592;0;0;0;0
175.9726;0.95694;4.0025;0.0906999;0;0;0;0
176.4725;0.959303;4.0062;0.0912813;0;0;0;0
176.9725;0.961691;3.9952;0.0914639;0;0;0;0
177.4725;0.966762;3.9971;0.0918865;0;0;0;0
177.9725;0.970435;3.9974;0.092472;0;0;0;0
178.4725;0.972825;3.9863;0.0928462;0;0;0;0
178.9725;0.975195;4.0091;0.0926639;0;0;0;0
179.4725;0.981438;4.0081;0.0936661;0;0;0;0
179.9726;0.983236;4.0119;0.0937923;0;0;0;0
180.4726;0.987261;4.0072;0.0940782;0;0;0;0
180.9724;0.989054;3.9832;0.0952272;0;0;0;0
181.4724;0.992024;4.0157;0.0939807;0;0;0;0
181.9726;0.996134;4.0211;0.09517939;0;0;0;0
182.4725;1.00074;4.0243;0.0954218;0;0;0;0
182.9724;1.00223;4.0037;0.0962683;0;0;0;0
183.4724;1.00662;4.0243;0.09693406;0;0;0;0
183.9725;1.00704;4.0151;0.0969771;0;0;0;0
184.4724;1.01294;4.0281;0.09672226;0;0;0;0
184.9723;1.01578;4.0094;0.09764716;0;0;0;0
185.4724;1.01968;3.9942;0.0976742;0;0;0;0
185.9724;1.0227;4.0078;0.0985426;0;0;0;0
186.4723;1.02526;4.0176;0.0981785;0;0;0;0
186.9725;1.02825;4.011;0.0989527;0;0;0;0
187.4723;1.03134;4.0201;0.0994372;0;0;0;0
187.9723;1.03831;4.035;0.09878897;0;0;0;0
188.4723;1.03812;4.0372;0.10079;0;0;0;0
188.9723;1.04052;4.0164;0.100636;0;0;0;0
189.4724;1.04628;3.9942;0.101238;0;0;0;0
189.9723;1.04972;4.0198;0.100886;0;0;0;0
190.4723;1.05021;4.0284;0.101441;0;0;0;0
190.9722;1.05563;4.0432;0.102644;0;0;0;0
191.4723;1.0592;4.0085;0.102572;0;0;0;0
191.9723;1.06583;4.0274;0.102267;0;0;0;0
192.4722;1.06498;4.0189;0.10296;0;0;0;0
192.9722;1.06886;4.0344;0.103569;0;0;0;0
193.4722;1.07257;4.0262;0.103908;0;0;0;0
193.9722;1.07522;4.0097;0.104362;0;0;0;0
194.4722;1.08099;4.0568;0.105011;0;0;0;0
194.9722;1.0813;4.0464;0.104978;0;0;0;0
195.4722;1.08559;4.0524;0.105508;0;0;0;0
195.9722;1.08741;4.0322;0.105739;0;0;0;0
196.4721;1.09084;4.0271;0.10569;0;0;0;0
196.9722;1.09496;4.0435;0.106805;0;0;0;0
197.4721;1.09667;4.0378;0.107732;0;0;0;0
197.9722;1.10042;4.0518;0.10853;0;0;0;0
198.4721;1.10412;4.048;0.10853;0;0;0;0
198.9721;1.1085;4.0521;0.108858;0;0;0;0
199.4722;1.11039;4.0524;0.108576;0;0;0;0
199.972;1.11476;4.0574;0.109413;0;0;0;0
200.4722;1.11754;4.0552;0.109784;0;0;0;0
200.972;1.11941;4.0486;0.111017;0;0;0;0
201.472;1.12316;4.0638;0.111207;0;0;0;0
201.9722;1.12979;4.0562;0.111212;0;0;0;0
202.472;1.12993;4.0511;0.112172;0;0;0;0
202.9721;1.13418;4.0495;0.113427;0;0;0;0
203.4721;1.13653;4.0597;0.11375;0;0;0;0
203.9721;1.14162;4.0777;0.113673;0;0;0;0
204.4721;1.1417;4.0701;0.113905;0;0;0;0
204.9719;1.14691;4.0518;0.11454;0;0;0;0
205.4721;1.14819;4.0676;0.114742;0;0;0;0
205.9719;1.1537;4.0726;0.114908;0;0;0;0
206.472;1.1565;4.0628;0.116041;0;0;0;0
206.9719;1.16109;4.0694;0.116888;0;0;0;0
207.4719;1.16093;4.0508;0.117257;0;0;0;0
207.972;1.16618;4.0723;0.116553;0;0;0;0
208.4719;1.17134;4.0751;0.117889;0;0;0;0
208.9719;1.1726;4.0887;0.118639;0;0;0;0
209.4719;1.17418;4.0549;0.118963;0;0;0;0
209.9718;1.17939;4.0742;0.119768;0;0;0;0
210.4718;1.18172;4.0821;0.120088;0;0;0;0
210.9718;1.1859;4.059;0.121693;0;0;0;0
211.4719;1.1874;4.0748;0.121803;0;0;0;0
211.9718;1.19492;4.0865;0.122364;0;0;0;0
212.4718;1.19393;4.0713;0.122866;0;0;0;0
212.9718;1.20034;4.084;0.123614;0;0;0;0
213.4718;1.19903;4.0628;0.123378;0;0;0;0
213.9717;1.20868;4.0843;0.123836;0;0;0;0
214.4717;1.20868;4.0682;0.123992;0;0;0;0
214.9717;1.21414;4.047;0.125146;0;0;0;0
215.4718;1.21697;4.078;0.124708;0;0;0;0
215.9719;1.21761;4.0647;0.126339;0;0;0;0
216.4717;1.22325;4.0461;0.127107;0;0;0;0
216.9717;1.22576;4.0694;0.127873;0;0;0;0
217.4717;1.22862;4.0524;0.127376;0;0;0;0
217.9717;1.23135;4.0881;0.128301;0;0;0;0
218.4717;1.23506;4.0969;0.128734;0;0;0;0
218.9717;1.24221;4.0954;0.129141;0;0;0;0
219.4716;1.24376;4.0628;0.129388;0;0;0;0
219.9716;1.24494;4.0982;0.130954;0;0;0;0
220.4718;1.24761;4.0811;0.130817;0;0;0;0
220.9716;1.25195;4.0805;0.130904;0;0;0;0
221.4716;1.25524;4.0878;0.13199;0;0;0;0
221.9716;1.2594;4.0663;0.132564;0;0;0;0
222.4716;1.26186;4.0894;0.133018;0;0;0;0
222.9716;1.26536;4.0884;0.132778;0;0;0;0
223.4716;1.26876;4.0853;0.133603;0;0;0;0
223.9717;1.27176;4.0767;0.1336;0;0;0;0
224.4715;1.27368;4.0928;0.134309;0;0;0;0
224.9715;1.27999;4.0935;0.135745;0;0;0;0
225.4715;1.28433;4.0878;0.136319;0;0;0;0
225.9715;1.2873;4.0717;0.137121;0;0;0;0
226.4715;1.28917;4.0761;0.137907;0;0;0;0
226.9715;1.29201;4.0865;0.1375031;0;0;0;0
227.4715;1.29692;4.0913;0.137566;0;0;0;0
227.9715;1.29987;4.0881;0.138773;0;0;0;0
228.4715;1.29961;4.1108;0.139284;0;0;0;0
228.9714;1.30503;4.0789;0.140713;0;0;0;0
229.4716;1.30762;4.0802;0.141324;0;0;0;0
229.9716;1.31173;4.0925;0.142527;0;0;0;0
230.4714;1.31613;4.0698;0.142839;0;0;0;0
230.9714;1.32032;4.0998;0.142335;0;0;0;0
231.4714;1.32185;4.0969;0.143727;0;0;0;0
231.9715;1.3232;4.0862;0.144545;0;0;0;0
232.4714;1.32536;4.0903;0.144339;0;0;0;0
232.9714;1.33364;4.0871;0.14462;0;0;0;0
233.4715;1.33532;4.0976;0.145629;0;0;0;0
233.9713;1.33691;4.1115;0.147161;0;0;0;0
234.4715;1.34248;4.1067;0.148105;0;0;0;0
234.9713;1.34173;4.0922;0.148302;0;0;0;0
235.4713;1.34578;4.0802;0.148116;0;0;0;0
235.9713;1.35248;4.0884;0.149339;0;0;0;0
236.4714;1.35629;4.0979;0.149753;0;0;0;0
236.9713;1.35914;4.1064;0.149662;0;0;0;0
237.4714;1.36354;4.1045;0.15086;0;0;0;0
237.9713;1.36459;4.1033;0.152726;0;0;0;0
238.4713;1.36816;4.083;0.153638;0;0;0;0
238.9713;1.37207;4.1121;0.154382;0;0;0;0
239.4714;1.37267;4.0973;0.154985;0;0;0;0
239.9713;1.37738;4.0957;0.155285;0;0;0;0
240.4712;1.38047;4.1061;0.155467;0;0;0;0
240.9712;1.38472;4.1036;0.156407;0;0;0;0
241.4712;1.38859;4.0849;0.156707;0;0;0;0
241.9712;1.3886;4.1184;0.157504;0;0;0;0
242.4712;1.39341;4.1071;0.158209;0;0;0;0
242.9713;1.39787;4.0979;0.159153;0;0;0;0
243.4713;1.40073;4.0571;0.16134;0;0;0;0
243.9711;1.40499;4.1014;0.161122;0;0;0;0
244.4711;1.40848;4.1001;0.160575;0;0;0;0
244.9711;1.41013;4.1061;0.161392;0;0;0;0
245.4711;1.41301;4.12;0.161441;0;0;0;0
245.9712;1.4168;4.1146;0.162007;0;0;0;0
246.4711;1.42228;4.1153;0.162738;0;0;0;0
246.9711;1.42306;4.1033;0.163997;0;0;0;0
247.4711;1.42604;4.1175;0.163966;0;0;0;0
247.9711;1.43025;4.1191;0.164064;0;0;0;0
248.471;1.43002;4.0751;0.165152;0;0;0;0
248.971;1.43674;4.1014;0.165271;0;0;0;0
249.471;1.4428;4.0805;0.166865;0;0;0;0
249.971;1.44364;4.0894;0.167235;0;0;0;0
250.471;1.44581;4.1115;0.168599;0;0;0;0
250.971;1.45049;4.1191;0.168509;0;0;0;0
251.4711;1.45461;4.1058;0.169014;0;0;0;0
251.971;1.45637;4.1061;0.169798;0;0;0;0
252.471;1.46198;4.108;0.170296;0;0;0;0
252.9709;1.46474;4.0871;0.171726;0;0;0;0
253.4709;1.46889;4.1127;0.171963;0;0;0;0
253.971;1.47122;4.0995;0.172751;0;0;0;0
254.4709;1.47211;4.1169;0.173312;0;0;0;0
254.9709;1.47539;4.1067;0.174118;0;0;0;0
255.4709;1.47931;4.1162;0.175008;0;0;0;0
255.9709;1.48311;4.1108;0.174979;0;0;0;0
256.4709;1.48499;4.1187;0.175821;0;0;0;0
256.9709;1.48979;4.109;0.177739;0;0;0;0
257.4709;1.49246;4.1213;0.17806;0;0;0;0
257.9708;1.49962;4.1124;0.179681;0;0;0;0
258.4709;1.49725;4.1058;0.180144;0;0;0;0
258.9708;1.50173;4.1156;0.178843;0;0;0;0
259.4708;1.50534;4.1203;0.180407;0;0;0;0
259.9708;1.50924;4.0995;0.181481;0;0;0;0
260.4708;1.51286;4.126;0.182732;0;0;0;0
260.9708;1.5167;4.1213;0.18226;0;0;0;0
261.4709;1.51988;4.1108;0.182836;0;0;0;0
261.9709;1.52318;4.0966;0.184664;0;0;0;0
262.4707;1.52659;4.115;0.1853;0;0;0;0
262.9707;1.53053;4.1071;0.185699;0;0;0;0
263.4709;1.53228;4.1074;0.185964;0;0;0;0
263.9707;1.53522;4.1074;0.186383;0;0;0;0
264.4707;1.53725;4.1184;0.187825;0;0;0;0
264.9707;1.54338;4.1194;0.188282;0;0;0;0
265.4708;1.54443;4.0815;0.188972;0;0;0;0
265.9708;1.55018;4.1251;0.19019;0;0;0;0
266.4707;1.55299;4.1248;0.191176;0;0;0;0
266.9707;1.55609;4.1014;0.191586;0;0;0;0
267.4707;1.55884;4.1039;0.191335;0;0;0;0
267.9708;1.56413;4.0916;0.191297;0;0;0;0
268.4706;1.56684;4.0985;0.192388;0;0;0;0
268.9707;1.5682;4.1232;0.192566;0;0;0;0
269.4706;1.5752;4.1023;0.192802;0;0;0;0
269.9706;1.57568;4.1064;0.19304;0;0;0;0
270.4706;1.57932;4.1093;0.194939;0;0;0;0
270.9706;1.58114;4.1014;0.196161;0;0;0;0
271.4706;1.5853;4.1184;0.196729;0;0;0;0
271.9707;1.58996;4.1323;0.197193;0;0;0;0
272.4707;1.59286;4.0944;0.197605;0;0;0;0
272.9705;1.59738;4.0843;0.199894;0;0;0;0
273.4707;1.60035;4.0947;0.200127;0;0;0;0
273.9705;1.60448;4.1124;0.200617;0;0;0;0
274.4705;1.60544;4.096;0.199715;0;0;0;0
274.9706;1.61019;4.095;0.201549;0;0;0;0
275.4705;1.61277;4.0818;0.202556;0;0;0;0
275.9705;1.61515;4.1039;0.203521;0;0;0;0
276.4706;1.61926;4.0764;0.204534;0;0;0;0
276.9705;1.62045;4.1134;0.205115;0;0;0;0
277.4704;1.62579;4.1004;0.205094;0;0;0;0
277.9704;1.62854;4.0973;0.207302;0;0;0;0
278.4706;1.63341;4.115;0.206358;0;0;0;0
278.9706;1.6349;4.1146;0.208838;0;0;0;0
279.4704;1.63583;4.1203;0.208969;0;0;0;0
279.9704;1.64168;4.1244;0.209684;0;0;0;0
280.4704;1.64508;4.1232;0.21171;0;0;0;0
280.9704;1.64891;4.1105;0.212495;0;0;0;0
281.4704;1.65065;4.0966;0.213653;0;0;0;0
281.9703;1.65809;4.0909;0.214186;0;0;0;0
282.4703;1.65667;4.1194;0.215838;0;0;0;0
282.9703;1.66205;4.1178;0.218607;0;0;0;0
283.4703;1.66575;4.1121;0.218405;0;0;0;0
283.9703;1.67041;4.0755;0.219192;0;0;0;0
284.4704;1.67202;4.0916;0.219565;0;0;0;0
284.9703;1.67616;4.0988;0.221201;0;0;0;0
285.4703;1.67787;4.1162;0.221247;0;0;0;0
285.9703;1.68345;4.114;0.222713;0;0;0;0
286.4703;1.68571;4.0653;0.224252;0;0;0;0
286.9702;1.69061;4.0954;0.225993;0;0;0;0
287.4702;1.69172;4.0783;0.226759;0;0;0;0
287.9702;1.69273;4.1131;0.226036;0;0;0;0
288.4702;1.69891;4.1055;0.225501;0;0;0;0
288.9702;1.7037;4.0846;0.22773;0;0;0;0
289.4702;1.70672;4.0856;0.229665;0;0;0;0
289.9702;1.70981;4.0862;0.229714;0;0;0;0
290.4702;1.7127;4.0625;0.230203;0;0;0;0
290.9702;1.71681;4.0966;0.2315029;0;0;0;0
291.4702;1.72049;4.0884;0.232531;0;0;0;0
291.9703;1.72197;4.0698;0.233963;0;0;0;0
292.4701;1.7263;4.0941;0.235636;0;0;0;0
292.9701;1.72837;4.0913;0.236267;0;0;0;0
293.4702;1.73029;4.0871;0.238203;0;0;0;0
293.9701;1.73735;4.1052;0.239155;0;0;0;0
294.4702;1.73902;4.0878;0.239728;0;0;0;0
294.9701;1.7425;4.1048;0.241291;0;0;0;0
295.4702;1.7456;4.09;0.242766;0;0;0;0
295.9701;1.75008;4.0786;0.243027;0;0;0;0
296.4702;1.75142;4.102;0.243583;0;0;0;0
296.97;1.75808;4.077;0.244026;0;0;0;0
297.4702;1.75952;4.0736;0.247196;0;0;0;0
297.97;1.76205;4.0802;0.249548;0;0;0;0
298.47;1.76607;4.1007;0.251245;0;0;0;0
298.9701;1.77029;4.0792;0.252145;0;0;0;0
299.47;1.77218;4.0932;0.252666;0;0;0;0
299.97;1.77559;4.0606;0.254154;0;0;0;0
300.47;1.78116;4.1023;0.255974;0;0;0;0
300.9699;1.7821;4.0805;0.256314;0;0;0;0
301.4699;1.78682;4.0789;0.258679;0;0;0;0
301.9699;1.78916;4.0688;0.260212;0;0;0;0
302.4701;1.79241;4.0499;0.260299;0;0;0;0
302.9701;1.79658;4.0732;0.26178;0;0;0;0
303.4699;1.79884;4.06;0.263598;0;0;0;0
303.97;1.8002;4.0821;0.264843;0;0;0;0
304.47;1.80739;4.0612;0.265615;0;0;0;0
304.9699;1.81012;4.0584;0.267783;0;0;0;0
305.4699;1.81352;4.0717;0.267213;0;0;0;0
305.97;1.8173;4.0827;0.269266;0;0;0;0
306.47;1.81865;4.0837;0.26918;0;0;0;0
306.9698;1.82246;4.0593;0.270271;0;0;0;0
307.4698;1.82553;4.0723;0.272411;0;0;0;0
307.9698;1.83084;4.0739;0.273867;0;0;0;0
308.4698;1.83257;4.0439;0.274321;0;0;0;0
308.9698;1.8345;4.0761;0.275988;0;0;0;0
309.4699;1.83969;4.0536;0.278713;0;0;0;0
309.9698;1.84434;4.0429;0.280779;0;0;0;0
310.4699;1.84802;4.0559;0.28321;0;0;0;0
310.9697;1.8479;4.0552;0.284118;0;0;0;0
311.4697;1.85181;4.0356;0.284924;0;0;0;0
311.9697;1.85665;4.0499;0.286849;0;0;0;0
312.4697;1.8604;4.0195;0.287379;0;0;0;0
312.9698;1.865;4.0606;0.289622;0;0;0;0
313.4698;1.86709;4.0495;0.291108;0;0;0;0
313.9698;1.87218;4.0394;0.292299;0;0;0;0
314.4697;1.87699;4.0347;0.295338;0;0;0;0
314.9697;1.87743;4.0423;0.296741;0;0;0;0
315.4698;1.88288;4.0536;0.297496;0;0;0;0
315.9696;1.88392;4.0145;0.298485;0;0;0;0
316.4696;1.88686;4.0192;0.30032;0;0;0;0
316.9696;1.88924;4.053;0.302733;0;0;0;0
317.4696;1.89411;4.0113;0.304323;0;0;0;0
317.9696;1.89654;4.0189;0.305685;0;0;0;0
318.4696;1.90022;4.0413;0.306332;0;0;0;0
318.9696;1.90551;4.0015;0.30895;0;0;0;0
319.4696;1.90715;4.0258;0.31027;0;0;0;0
319.9696;1.91074;4.0239;0.310841;0;0;0;0
320.4696;1.91463;4.0031;0.313074;0;0;0;0
320.9696;1.91958;4.0078;0.313479;0;0;0;0
321.4697;1.92116;4.0167;0.315159;0;0;0;0
321.9695;1.92535;3.9996;0.316232;0;0;0;0
322.4695;1.92763;4.0148;0.318243;0;0;0;0
322.9695;1.93244;3.9876;0.319892;0;0;0;0
323.4695;1.93599;3.9911;0.321299;0;0;0;0
323.9695;1.93571;3.9996;0.323184;0;0;0;0
324.4695;1.94246;3.9844;0.32235;0;0;0;0
324.9695;1.94631;3.9854;0.324854;0;0;0;0
325.4695;1.94951;3.9705;0.327087;0;0;0;0
325.9694;1.95206;3.9857;0.330144;0;0;0;0
326.4694;1.95713;3.9911;0.329855;0;0;0;0
326.9694;1.96151;3.9629;0.331545;0;0;0;0
327.4694;1.96451;3.9746;0.333504;0;0;0;0
327.9694;1.96671;3.98;0.334224;0;0;0;0
328.4694;1.97182;3.9633;0.336509;0;0;0;0
328.9694;1.97366;3.9471;0.337319;0;0;0;0
329.4694;1.97657;3.943;0.339565;0;0;0;0
329.9695;1.98099;3.9449;0.340111;0;0;0;0
330.4694;1.98277;3.9437;0.343185;0;0;0;0
330.9693;1.98725;3.9415;0.344576;0;0;0;0
331.4693;1.99327;3.9456;0.346199;0;0;0;0
331.9693;1.99722;3.9105;0.347824;0;0;0;0
332.4694;1.99674;3.9358;0.348541;0;0;0;0
332.9694;2.00122;3.9288;0.349423;0;0;0;0
333.4694;2.00332;3.9102;0.352141;0;0;0;0
333.9693;2.00968;3.901;0.354537;0;0;0;0
334.4694;2.01071;3.8972;0.356928;0;0;0;0