File: polyN_optimization/results_exp/AA7020-T6/NT6_90_2.csv
Time[s],Displacement[mm],Force[kN],AxStrain_1,AxStrain_2,Thickness[mm],OuterWidth[mm],InnerWidth[mm]
0.6,0,-0.011456,0,0,1.0263,19.975,10.01
1.1,-0.000128,-0.012672,0.00015099,0,0,0,0
1.6,2e-06,-0.013568,0.00014699,0,0,0,0
2.1,3.4e-05,-0.0065601,6.0998e-05,0,0,0,0
2.6,0.000676,0.0077095,0.00024397,0,0,0,0
3.1,0.000463,0.028008,-0.00015401,0,0,0,0
3.6,0.00064,0.049137,0.00012099,0,0,0,0
4.1,0.000848,0.070859,4.0999e-05,0,0,0,0
4.6,0.000946,0.088137,0.00019498,0,0,0,0
5.1,0.00129,0.10515,5.4998e-05,0,0,0,0
5.6,0.001214,0.12056,4.1999e-05,0,0,0,0
6.1,0.001527,0.13572,-4.8001e-05,0,0,0,0
6.6,0.001815,0.14914,-7e-06,0,0,0,0
7.1,0.001714,0.16472,0.00018998,0,0,0,0
7.6,0.002348,0.17914,0.00025897,0,0,0,0
8.1,0.002091,0.19272,0.00019098,0,0,0,0
8.6,0.001954,0.20514,0.00031695,0,0,0,0
9.1,0.003024,0.21886,0.00023097,0,0,0,0
9.6,0.003174,0.23243,0.00010199,0,0,0,0
10.1,0.003272,0.24657,0.00011099,0,0,0,0
10.6,0.003586,0.26014,0.00025297,0,0,0,0
11.1,0.004245,0.27386,-2.4e-05,0,0,0,0
11.6,0.004316,0.28628,0.00023097,0,0,0,0
12.1,0.005159,0.29986,-9.5005e-05,0,0,0,0
12.6,0.005222,0.314,0.00012899,0,0,0,0
13.1,0.005245,0.32915,-6.4002e-05,0,0,0,0
13.6,0.005495,0.34171,0.00014599,0,0,0,0
14.1,0.005769,0.35515,-4.1001e-05,0,0,0,0
14.6,0.00466,0.36814,-1.3e-05,0,0,0,0
15.1,0.005648,0.38229,-2.4e-05,0,0,0,0
15.6,0.0058,0.39557,0.00026397,0,0,0,0
16.1,0.005766,0.40785,3.1e-05,0,0,0,0
16.6,0.006233,0.41986,0.00021698,0,0,0,0
17.1,0.0069,0.43328,0.00012899,0,0,0,0
17.6,0.006345,0.44585,0.00042291,0,0,0,0
18.1,0.006795,0.45786,0.00024997,0,0,0,0
18.6,0.007444,0.47128,0.00030095,0,0,0,0
19.1,0.007942,0.48643,0.00021298,0,0,0,0
19.6,0.008294,0.49942,0.0004429,0,0,0,0
20.1,0.008571,0.51115,0.00031795,0,0,0,0
20.6,0.009326,0.52286,0.00029496,0,0,0,0
21.1,0.009915,0.53614,0.00048088,0,0,0,0
21.6,0.010043,0.54957,0.0004399,0,0,0,0
22.1,0.010128,0.56157,0.00031095,0,0,0,0
22.6,0.010645,0.57458,0.00020298,0,0,0,0
23.1,0.011302,0.588,0.00019598,0,0,0,0
23.6,0.011224,0.60215,0.00010199,0,0,0,0
24.1,0.01137,0.61514,0.00016599,0,0,0,0
24.6,0.012104,0.62857,0.00014899,0,0,0,0
25.1,0.011431,0.64057,0.00010199,0,0,0,0
25.6,0.01116,0.65358,0.00024697,0,0,0,0
26.1,0.011498,0.66728,0.00021698,0,0,0,0
26.6,0.011197,0.68157,0.00023397,0,0,0,0
27.1,0.011725,0.69357,0.00030095,0,0,0,0
27.6,0.012974,0.70658,0.00032795,0,0,0,0
28.1,0.012297,0.71942,0.00040292,0,0,0,0
28.6,0.012943,0.73272,0.00031095,0,0,0,0
29.1,0.012517,0.74543,0.00055784,0,0,0,0
29.6,0.013353,0.76015,0.00058183,0,0,0,0
30.1,0.014171,0.774,0.0006258,0,0,0,0
30.6,0.01452,0.78743,0.00065978,0,0,0,0
31.1,0.01541,0.80014,0.00079169,0,0,0,0
31.6,0.016127,0.81386,0.00058883,0,0,0,0
32.1,0.016807,0.82714,0.00083165,0,0,0,0
32.6,0.017298,0.84086,0.00064979,0,0,0,0
33.1,0.017532,0.85414,0.0006258,0,0,0,0
33.6,0.018591,0.86786,0.00086962,0,0,0,0
34.1,0.018506,0.88028,0.00060182,0,0,0,0
34.6,0.018117,0.89386,0.00051087,0,0,0,0
35.1,0.018191,0.908,0.00058883,0,0,0,0
35.6,0.01851,0.92286,0.00046689,0,0,0,0
36.1,0.019738,0.93528,0.00059882,0,0,0,0
36.6,0.019531,0.94886,0.00076771,0,0,0,0
37.1,0.01921,0.96214,0.00053486,0,0,0,0
37.6,0.019186,0.97572,0.00075072,0,0,0,0
38.1,0.019704,0.98814,0.00080867,0,0,0,0
38.6,0.019423,1.0027,0.00068976,0,0,0,0
39.1,0.020042,1.0164,0.00090359,0,0,0,0
39.6,0.020699,1.0297,0.00080568,0,0,0,0
40.1,0.020645,1.0421,0.00088261,0,0,0,0
40.6,0.020523,1.0559,0.0010355,0,0,0,0
41.1,0.021795,1.0691,0.0010684,0,0,0,0
41.6,0.022398,1.0829,0.0010045,0,0,0,0
42.1,0.023068,1.0961,0.0011463,0,0,0,0
42.6,0.023413,1.1099,0.0010854,0,0,0,0
43.1,0.023897,1.122,0.0012043,0,0,0,0
43.6,0.024986,1.1351,0.0011873,0,0,0,0
44.1,0.024919,1.1487,0.0013321,0,0,0,0
44.6,0.02522,1.1631,0.0011943,0,0,0,0
45.1,0.025575,1.1753,0.00073773,0,0,0,0
45.6,0.025646,1.1886,0.0010215,0,0,0,0
46.1,0.025697,1.2014,0.00081167,0,0,0,0
46.6,0.025944,1.2147,0.0007777,0,0,0,0
47.1,0.026174,1.2271,0.0010654,0,0,0,0
47.6,0.026465,1.2417,0.00091358,0,0,0,0
48.1,0.026543,1.2554,0.0010824,0,0,0,0
48.6,0.026956,1.2687,0.0011463,0,0,0,0
49.1,0.02724,1.2811,0.0010485,0,0,0,0
49.6,0.0279,1.2949,0.0012073,0,0,0,0
50.1,0.028391,1.3081,0.0011364,0,0,0,0
50.6,0.028519,1.3216,0.0010315,0,0,0,0
51.1,0.028979,1.3344,0.001444,0,0,0,0
51.6,0.029511,1.3479,0.0015218,0,0,0,0
52.1,0.029866,1.36,0.0011773,0,0,0,0
52.6,0.030292,1.3729,0.0013051,0,0,0,0
53.1,0.030935,1.3863,0.001447,0,0,0,0
53.6,0.031277,1.4009,0.0012782,0,0,0,0
54.1,0.031281,1.4133,0.0014,0,0,0,0
54.6,0.031487,1.4266,0.0011803,0,0,0,0
55.1,0.031893,1.4394,0.0012173,0,0,0,0
55.6,0.032367,1.4524,0.0010894,0,0,0,0
56.1,0.032563,1.4644,0.0012243,0,0,0,0
56.6,0.033189,1.4787,0.0011563,0,0,0,0
57.1,0.033253,1.4924,0.0010754,0,0,0,0
57.6,0.034076,1.5057,0.0011633,0,0,0,0
58.1,0.034042,1.5179,0.0012682,0,0,0,0
58.6,0.034265,1.5311,0.0011873,0,0,0,0
59.1,0.034864,1.5441,0.0012822,0,0,0,0
59.6,0.035378,1.5579,0.0012512,0,0,0,0
60.1,0.036123,1.5709,0.0012043,0,0,0,0
60.6,0.036059,1.5841,0.0012243,0,0,0,0
61.1,0.036766,1.5963,0.0011833,0,0,0,0
61.6,0.036817,1.6096,0.0014509,0,0,0,0
62.1,0.036823,1.623,0.001444,0,0,0,0
62.6,0.037047,1.6371,0.0015887,0,0,0,0
63.1,0.037101,1.6493,0.001427,0,0,0,0
63.6,0.037345,1.6623,0.0014779,0,0,0,0
64.1,0.038069,1.6747,0.00142,0,0,0,0
64.6,0.038576,1.6877,0.001424,0,0,0,0
65.1,0.038823,1.7001,0.0013591,0,0,0,0
65.6,0.038715,1.7144,0.0011943,0,0,0,0
66.1,0.039466,1.7277,0.0012752,0,0,0,0
66.6,0.039585,1.7407,0.0012582,0,0,0,0
67.1,0.040965,1.7529,0.0012712,0,0,0,0
67.6,0.041104,1.7661,0.001403,0,0,0,0
68.1,0.041568,1.7791,0.001444,0,0,0,0
68.6,0.042146,1.7926,0.0012882,0,0,0,0
69.1,0.042654,1.8054,0.0012782,0,0,0,0
69.6,0.043277,1.8189,0.0012342,0,0,0,0
70.1,0.043351,1.831,0.001407,0,0,0,0
70.6,0.043974,1.8439,0.001434,0,0,0,0
71.1,0.043564,1.8573,0.001427,0,0,0,0
71.6,0.043964,1.8719,0.0015218,0,0,0,0
72.1,0.044035,1.884,0.0015827,0,0,0,0
72.6,0.044231,1.8969,0.0017644,0,0,0,0
73.1,0.044644,1.9094,0.0017475,0,0,0,0
73.6,0.04484,1.9224,0.0015248,0,0,0,0
74.1,0.04485,1.9344,0.0015149,0,0,0,0
74.6,0.045463,1.9484,0.0016397,0,0,0,0
75.1,0.045453,1.9617,0.0015688,0,0,0,0
75.6,0.04638,1.9744,0.0014639,0,0,0,0
76.1,0.046542,1.9864,0.001393,0,0,0,0
76.6,0.047253,1.9999,0.0014879,0,0,0,0
77.1,0.047659,2.0129,0.0016606,0,0,0,0
77.6,0.048282,2.0261,0.001407,0,0,0,0
78.1,0.049087,2.0389,0.0015418,0,0,0,0
78.6,0.049628,2.0521,0.0013701,0,0,0,0
79.1,0.050021,2.064,0.001397,0,0,0,0
79.6,0.050413,2.0769,0.0014539,0,0,0,0
80.1,0.05084,2.09,0.0016976,0,0,0,0
80.6,0.05105,2.1041,0.0015418,0,0,0,0
81.1,0.051452,2.116,0.0016606,0,0,0,0
81.6,0.051561,2.1289,0.0016167,0,0,0,0
82.1,0.051875,2.1414,0.0014639,0,0,0,0
82.6,0.051808,2.1544,0.0018323,0,0,0,0
83.1,0.051977,2.1661,0.0017614,0,0,0,0
83.6,0.05217,2.18,0.0019202,0,0,0,0
84.1,0.0524,2.1931,0.0016836,0,0,0,0
84.6,0.052708,2.2057,0.0020489,0,0,0,0
85.1,0.052928,2.2171,0.0017315,0,0,0,0
85.6,0.053503,2.2299,0.0019401,0,0,0,0
86.1,0.053862,2.2421,0.0019341,0,0,0,0
86.6,0.05444,2.2549,0.0017275,0,0,0,0
87.1,0.055219,2.2671,0.0017006,0,0,0,0
87.6,0.055638,2.2799,0.0016197,0,0,0,0
88.1,0.056075,2.2913,0.0017654,0,0,0,0
88.6,0.056447,2.3036,0.0017385,0,0,0,0
89.1,0.05752,2.3166,0.0017684,0,0,0,0
89.6,0.057716,2.3303,0.0018024,0,0,0,0
90.1,0.058166,2.3419,0.001998,0,0,0,0
90.6,0.058413,2.354,0.0017215,0,0,0,0
91.1,0.05888,2.366,0.0018054,0,0,0,0
91.6,0.059103,2.3784,0.0018693,0,0,0,0
92.1,0.059493,2.3901,0.0018962,0,0,0,0
92.6,0.059696,2.4037,0.0022205,0,0,0,0
93.1,0.060027,2.4167,0.002005,0,0,0,0
93.6,0.060308,2.4294,0.0020958,0,0,0,0
94.1,0.060166,2.4411,0.0019301,0,0,0,0
94.6,0.060701,2.4539,0.0022006,0,0,0,0
95.1,0.060833,2.4661,0.0022515,0,0,0,0
95.6,0.061435,2.4789,0.0023323,0,0,0,0
96.1,0.061824,2.4911,0.0020689,0,0,0,0
96.6,0.062251,2.5039,0.0022006,0,0,0,0
97.1,0.06245,2.5153,0.001988,0,0,0,0
97.6,0.062961,2.5276,0.0018124,0,0,0,0
98.1,0.063147,2.5406,0.001991,0,0,0,0
98.6,0.063797,2.5546,0.0018463,0,0,0,0
99.1,0.064626,2.5663,0.0020998,0,0,0,0
99.6,0.065113,2.5786,0.0020389,0,0,0,0
100.1,0.066,2.5904,0.0018762,0,0,0,0
100.6,0.066081,2.6027,0.0020788,0,0,0,0
101.1,0.065997,2.6144,0.0019441,0,0,0,0
101.6,0.066991,2.6281,0.0021766,0,0,0,0
102.1,0.067414,2.6407,0.0020559,0,0,0,0
102.6,0.068081,2.6527,0.0023732,0,0,0,0
103.1,0.068385,2.6641,0.0022345,0,0,0,0
103.6,0.069032,2.6769,0.0022814,0,0,0,0
104.1,0.069993,2.6891,0.00245,0,0,0,0
104.6,0.07025,2.7019,0.0026156,0,0,0,0
105.1,0.070413,2.7141,0.0023862,0,0,0,0
105.6,0.071194,2.7269,0.0027033,0,0,0,0
106.1,0.070616,2.7383,0.002434,0,0,0,0
106.6,0.071313,2.7506,0.002433,0,0,0,0
107.1,0.072389,2.7633,0.0023662,0,0,0,0
107.6,0.072967,2.7769,0.0025348,0,0,0,0
108.1,0.073665,2.788,0.0025009,0,0,0,0
108.6,0.073573,2.7999,0.0023662,0,0,0,0
109.1,0.073993,2.8117,0.002434,0,0,0,0
109.6,0.074521,2.8239,0.002434,0,0,0,0
110.1,0.074104,2.8347,0.002468,0,0,0,0
110.6,0.075231,2.8474,0.0027373,0,0,0,0
111.1,0.075739,2.8597,0.002467,0,0,0,0
111.6,0.07647,2.8717,0.0025687,0,0,0,0
112.1,0.076927,2.8829,0.002839,0,0,0,0
112.6,0.077898,2.8951,0.0028729,0,0,0,0
113.1,0.078531,2.9069,0.0030743,0,0,0,0
113.6,0.078923,2.9191,0.0029397,0,0,0,0
114.1,0.080043,2.9309,0.0029736,0,0,0,0
114.6,0.081143,2.9429,0.0032437,0,0,0,0
115.1,0.081194,2.9536,0.003176,0,0,0,0
115.6,0.082206,2.9653,0.0033444,0,0,0,0
116.1,0.082608,2.9773,0.0033105,0,0,0,0
116.6,0.083417,2.9899,0.0035806,0,0,0,0
117.1,0.083803,3.0006,0.0033105,0,0,0,0
117.6,0.084168,3.012,0.0033105,0,0,0,0
118.1,0.084355,3.023,0.0032437,0,0,0,0
118.6,0.084666,3.035,0.0033444,0,0,0,0
119.1,0.085613,3.046,0.0032776,0,0,0,0
119.6,0.086121,3.058,0.0034799,0,0,0,0
120.1,0.086358,3.0687,0.0032437,0,0,0,0
120.6,0.087508,3.0797,0.0034122,0,0,0,0
121.1,0.088117,3.0899,0.0032776,0,0,0,0
121.6,0.088997,3.1009,0.0037161,0,0,0,0
122.1,0.089843,3.1114,0.0036822,0,0,0,0
122.6,0.090723,3.1226,0.0039183,0,0,0,0
123.1,0.09184,3.1331,0.0040866,0,0,0,0
123.6,0.093024,3.1439,0.0042888,0,0,0,0
124.1,0.09387,3.1541,0.0044232,0,0,0,0
124.6,0.094716,3.1649,0.0048273,0,0,0,0
125.1,0.095799,3.1751,0.0049617,0,0,0,0
125.6,0.096645,3.1856,0.0052651,0,0,0,0
126.1,0.097356,3.1949,0.0055008,0,0,0,0
126.6,0.098641,3.205,0.0056689,0,0,0,0
127.1,0.099487,3.2147,0.0056351,0,0,0,0
127.6,0.1002,3.2253,0.0055347,0,0,0,0
128.1,0.10121,3.2347,0.005467,0,0,0,0
128.6,0.10253,3.245,0.0055347,0,0,0,0
129.1,0.10382,3.254,0.0054004,0,0,0,0
129.6,0.1048,3.2637,0.005467,0,0,0,0
130.1,0.10595,3.2729,0.0055685,0,0,0,0
130.6,0.10727,3.2829,0.0055347,0,0,0,0
131.1,0.10862,3.2921,0.0056689,0,0,0,0
131.6,0.10978,3.3016,0.0057703,0,0,0,0
132.1,0.11032,3.3107,0.0059721,0,0,0,0
132.6,0.1115,3.3203,0.0060387,0,0,0,0
133.1,0.11302,3.3294,0.0063756,0,0,0,0
133.6,0.11387,3.3386,0.006779,0,0,0,0
134.1,0.11509,3.3474,0.0069806,0,0,0,0
134.6,0.11593,3.3566,0.0074512,0,0,0,0
135.1,0.11719,3.3649,0.0076189,0,0,0,0
135.6,0.11847,3.3734,0.0080217,0,0,0,0
136.1,0.11959,3.3819,0.0083233,0,0,0,0
136.6,0.12064,3.3911,0.0083907,0,0,0,0
137.1,0.1224,3.3996,0.0086594,0,0,0,0
137.6,0.12297,3.4084,0.008592,0,0,0,0
138.1,0.12497,3.4166,0.0088943,0,0,0,0
138.6,0.12683,3.4249,0.0086257,0,0,0,0
139.1,0.12835,3.4327,0.0087268,0,0,0,0
139.6,0.13011,3.4413,0.0083917,0,0,0,0
140.1,0.1315,3.4494,0.0086257,0,0,0,0
140.6,0.13258,3.4576,0.0084918,0,0,0,0
141.1,0.13394,3.4654,0.0087268,0,0,0,0
141.6,0.13532,3.4739,0.0087942,0,0,0,0
142.1,0.13688,3.4819,0.0088269,0,0,0,0
142.6,0.13844,3.4899,0.0091629,0,0,0,0
143.1,0.13989,3.4974,0.0097325,0,0,0,0
143.6,0.14158,3.5056,0.0097325,0,0,0,0
144.1,0.14304,3.5129,0.010369,0,0,0,0
144.6,0.14504,3.5204,0.010771,0,0,0,0
145.1,0.14666,3.5276,0.011306,0,0,0,0
145.6,0.14832,3.5357,0.011607,0,0,0,0
146.1,0.15035,3.543,0.012276,0,0,0,0
146.6,0.15204,3.551,0.012276,0,0,0,0
147.1,0.15333,3.5583,0.012644,0,0,0,0
147.6,0.15509,3.5656,0.01291,0,0,0,0
148.1,0.15651,3.572,0.012944,0,0,0,0
148.6,0.15843,3.5793,0.013078,0,0,0,0
149.1,0.15979,3.5864,0.012744,0,0,0,0
149.6,0.16134,3.5936,0.012911,0,0,0,0
150.1,0.1627,3.6004,0.012711,0,0,0,0
150.6,0.16398,3.6076,0.012677,0,0,0,0
151.1,0.16605,3.6147,0.012711,0,0,0,0
151.6,0.16784,3.622,0.013078,0,0,0,0
152.1,0.16923,3.6287,0.013045,0,0,0,0
152.6,0.17092,3.6356,0.013312,0,0,0,0
153.1,0.17224,3.6419,0.013579,0,0,0,0
153.6,0.17444,3.6487,0.014079,0,0,0,0
154.1,0.17718,3.6553,0.01458,0,0,0,0
154.6,0.17891,3.6624,0.01498,0,0,0,0
155.1,0.18063,3.6686,0.01518,0,0,0,0
155.6,0.18212,3.6754,0.015713,0,0,0,0
156.1,0.18304,3.6816,0.016379,0,0,0,0
156.6,0.185,3.6879,0.016545,0,0,0,0
157.1,0.18673,3.6937,0.016845,0,0,0,0
157.6,0.18828,3.7003,0.017078,0,0,0,0
158.1,0.19106,3.7067,0.017211,0,0,0,0
158.6,0.19343,3.7136,0.017178,0,0,0,0
159.1,0.19535,3.7199,0.017477,0,0,0,0
159.6,0.19725,3.7259,0.017311,0,0,0,0
160.1,0.19918,3.7317,0.017377,0,0,0,0
160.6,0.20077,3.738,0.017178,0,0,0,0
161.1,0.20273,3.744,0.017211,0,0,0,0
161.6,0.20439,3.7503,0.017444,0,0,0,0
162.1,0.20628,3.7561,0.017677,0,0,0,0
162.6,0.20841,3.7619,0.01761,0,0,0,0
163.1,0.21014,3.7671,0.01791,0,0,0,0
163.6,0.21204,3.7731,0.017943,0,0,0,0
164.1,0.21403,3.7791,0.018541,0,0,0,0
164.6,0.21627,3.7856,0.01874,0,0,0,0
165.1,0.21857,3.7911,0.019438,0,0,0,0
165.6,0.22019,3.7969,0.019769,0,0,0,0
166.1,0.22283,3.8024,0.020301,0,0,0,0
166.6,0.22459,3.8083,0.020632,0,0,0,0
167.1,0.22696,3.8137,0.020831,0,0,0,0
167.6,0.22875,3.8199,0.021063,0,0,0,0
168.1,0.23082,3.8259,0.021162,0,0,0,0
168.6,0.23244,3.8316,0.021492,0,0,0,0
169.1,0.23471,3.8367,0.021593,0,0,0,0
169.6,0.23643,3.8423,0.021891,0,0,0,0
170.1,0.23833,3.8477,0.021195,0,0,0,0
170.6,0.24066,3.8533,0.021459,0,0,0,0
171.1,0.24395,3.8584,0.021659,0,0,0,0
171.6,0.24493,3.8639,0.021659,0,0,0,0
172.1,0.24726,3.8691,0.021923,0,0,0,0
172.6,0.24939,3.8749,0.022321,0,0,0,0
173.1,0.25122,3.8804,0.022321,0,0,0,0
173.6,0.254,3.8863,0.022718,0,0,0,0
174.1,0.25549,3.8914,0.022982,0,0,0,0
174.6,0.25789,3.8966,0.02338,0,0,0,0
175.1,0.25968,3.9017,0.023545,0,0,0,0
175.6,0.2611,3.9073,0.024007,0,0,0,0
176.1,0.2632,3.9124,0.024271,0,0,0,0
176.6,0.26554,3.9179,0.024536,0,0,0,0
177.1,0.26726,3.9231,0.0247,0,0,0,0
177.6,0.27,3.9286,0.025196,0,0,0,0
178.1,0.27186,3.9334,0.025559,0,0,0,0
178.6,0.27423,3.9386,0.025525,0,0,0,0
179.1,0.27643,3.9434,0.025954,0,0,0,0
179.6,0.27873,3.9486,0.026119,0,0,0,0
180.1,0.28076,3.9534,0.026285,0,0,0,0
180.6,0.28276,3.9589,0.026383,0,0,0,0
181.1,0.28472,3.9639,0.026547,0,0,0,0
181.6,0.28685,3.9689,0.02681,0,0,0,0
182.1,0.28868,3.9737,0.026878,0,0,0,0
182.6,0.29085,3.9793,0.02714,0,0,0,0
183.1,0.29301,3.9841,0.027239,0,0,0,0
183.6,0.29538,3.9886,0.027602,0,0,0,0
184.1,0.29802,3.993,0.02793,0,0,0,0
184.6,0.30022,3.9983,0.028128,0,0,0,0
185.1,0.30259,4.0034,0.028259,0,0,0,0
185.6,0.30486,4.0083,0.028522,0,0,0,0
186.1,0.30706,4.0127,0.028688,0,0,0,0
186.6,0.30902,4.0176,0.028852,0,0,0,0
187.1,0.31125,4.0224,0.029181,0,0,0,0
187.6,0.31335,4.0273,0.029476,0,0,0,0
188.1,0.31558,4.032,0.029673,0,0,0,0
188.6,0.31755,4.037,0.029804,0,0,0,0
189.1,0.32012,4.0417,0.030231,0,0,0,0
189.6,0.32218,4.0463,0.030527,0,0,0,0
190.1,0.32482,4.0507,0.030494,0,0,0,0
190.6,0.32763,4.0556,0.031052,0,0,0,0
191.1,0.33017,4.0601,0.030987,0,0,0,0
191.6,0.33233,4.0649,0.031183,0,0,0,0
192.1,0.33467,4.0691,0.031511,0,0,0,0
192.6,0.33677,4.0739,0.031774,0,0,0,0
193.1,0.33876,4.0784,0.032036,0,0,0,0
193.6,0.34042,4.0833,0.032101,0,0,0,0
194.1,0.34232,4.0877,0.032494,0,0,0,0
194.6,0.34479,4.0923,0.032527,0,0,0,0
195.1,0.34722,4.0964,0.03279,0,0,0,0
195.6,0.35064,4.1009,0.032887,0,0,0,0
196.1,0.3526,4.1054,0.033084,0,0,0,0
196.6,0.35568,4.1106,0.033214,0,0,0,0
197.1,0.35761,4.1151,0.033542,0,0,0,0
197.6,0.36001,4.1196,0.033706,0,0,0,0
198.1,0.36198,4.1237,0.034066,0,0,0,0
198.6,0.36475,4.128,0.034229,0,0,0,0
199.1,0.36644,4.1323,0.034523,0,0,0,0
199.6,0.36837,4.1367,0.034589,0,0,0,0
200.1,0.37128,4.1413,0.035078,0,0,0,0
200.6,0.37308,4.1457,0.035406,0,0,0,0
201.1,0.37544,4.1503,0.035406,0,0,0,0
201.6,0.37792,4.1544,0.035766,0,0,0,0
202.1,0.38083,4.1583,0.036092,0,0,0,0
202.6,0.38407,4.1623,0.036581,0,0,0,0
203.1,0.38654,4.1664,0.036516,0,0,0,0
203.6,0.38824,4.1706,0.036842,0,0,0,0
204.1,0.39091,4.1744,0.037038,0,0,0,0
204.6,0.39348,4.1789,0.037233,0,0,0,0
205.1,0.3951,4.1831,0.037201,0,0,0,0
205.6,0.39758,4.1876,0.037592,0,0,0,0
206.1,0.39954,4.1914,0.038015,0,0,0,0
206.6,0.40157,4.1956,0.038081,0,0,0,0
207.1,0.40424,4.1994,0.038244,0,0,0,0
207.6,0.40685,4.2039,0.038276,0,0,0,0
208.1,0.40925,4.2079,0.03857,0,0,0,0
208.6,0.41145,4.2121,0.038797,0,0,0,0
209.1,0.41375,4.2164,0.039285,0,0,0,0
209.6,0.41656,4.221,0.039318,0,0,0,0
210.1,0.41917,4.2247,0.039871,0,0,0,0
210.6,0.42116,4.2286,0.039871,0,0,0,0
211.1,0.42357,4.2324,0.040391,0,0,0,0
211.6,0.42583,4.2366,0.040521,0,0,0,0
212.1,0.4284,4.2404,0.040684,0,0,0,0
212.6,0.43047,4.2449,0.040911,0,0,0,0
213.1,0.43287,4.2489,0.0413,0,0,0,0
213.6,0.43551,4.2526,0.041236,0,0,0,0
214.1,0.43791,4.256,0.041691,0,0,0,0
214.6,0.44048,4.2603,0.041723,0,0,0,0
215.1,0.44336,4.2641,0.042047,0,0,0,0
215.6,0.44553,4.2679,0.042437,0,0,0,0
216.1,0.44806,4.2714,0.042761,0,0,0,0
216.6,0.4504,4.2756,0.042793,0,0,0,0
217.1,0.45297,4.2794,0.042988,0,0,0,0
217.6,0.45493,4.2836,0.043506,0,0,0,0
218.1,0.45727,4.2874,0.043733,0,0,0,0
218.6,0.4596,4.2916,0.043894,0,0,0,0
219.1,0.4618,4.2951,0.044283,0,0,0,0
219.6,0.464,4.2989,0.044315,0,0,0,0
220.1,0.46752,4.3027,0.044736,0,0,0,0
220.6,0.47016,4.307,0.045093,0,0,0,0
221.1,0.47297,4.3107,0.045124,0,0,0,0
221.6,0.4752,4.3146,0.045383,0,0,0,0
222.1,0.4772,4.3181,0.045481,0,0,0,0
222.6,0.47997,4.3216,0.045481,0,0,0,0
223.1,0.48221,4.3247,0.0459,0,0,0,0
223.6,0.48447,4.3286,0.04603,0,0,0,0
224.1,0.48684,4.3324,0.04603,0,0,0,0
224.6,0.48908,4.3363,0.046321,0,0,0,0
225.1,0.49158,4.3397,0.046515,0,0,0,0
225.6,0.49419,4.3433,0.047194,0,0,0,0
226.1,0.4973,4.3467,0.047419,0,0,0,0
226.6,0.50018,4.3503,0.047548,0,0,0,0
227.1,0.50255,4.354,0.047741,0,0,0,0
227.6,0.50454,4.358,0.048193,0,0,0,0
228.1,0.50677,4.3614,0.048451,0,0,0,0
228.6,0.50996,4.3649,0.048612,0,0,0,0
229.1,0.51229,4.3684,0.049096,0,0,0,0
229.6,0.51459,4.3723,0.049418,0,0,0,0
230.1,0.51666,4.3754,0.049515,0,0,0,0
230.6,0.5194,4.3789,0.049708,0,0,0,0
231.1,0.52183,4.3824,0.049932,0,0,0,0
231.6,0.52552,4.3863,0.049933,0,0,0,0
232.1,0.52789,4.3897,0.050448,0,0,0,0
232.6,0.53026,4.3933,0.050544,0,0,0,0
233.1,0.53317,4.3967,0.05048,0,0,0,0
233.6,0.53581,4.4003,0.050802,0,0,0,0
234.1,0.53801,4.4037,0.051059,0,0,0,0
234.6,0.54048,4.4073,0.051123,0,0,0,0
235.1,0.54298,4.4104,0.051316,0,0,0,0
235.6,0.54559,4.4136,0.051895,0,0,0,0
236.1,0.54789,4.4167,0.052088,0,0,0,0
236.6,0.5508,4.4197,0.052248,0,0,0,0
237.1,0.55341,4.4229,0.052601,0,0,0,0
237.6,0.55598,4.4261,0.052858,0,0,0,0
238.1,0.55851,4.4299,0.053372,0,0,0,0
238.6,0.56102,4.4331,0.0535,0,0,0,0
239.1,0.56369,4.4366,0.053885,0,0,0,0
239.6,0.56664,4.4394,0.054077,0,0,0,0
240.1,0.569,4.4426,0.054365,0,0,0,0
240.6,0.57147,4.4457,0.054622,0,0,0,0
241.1,0.57374,4.4493,0.05459,0,0,0,0
241.6,0.57652,4.4527,0.055007,0,0,0,0
242.1,0.57912,4.456,0.055167,0,0,0,0
242.6,0.58125,4.4593,0.055455,0,0,0,0
243.1,0.5844,4.4627,0.055583,0,0,0,0
243.6,0.58718,4.466,0.055871,0,0,0,0
244.1,0.58992,4.4693,0.056032,0,0,0,0
244.6,0.59279,4.4724,0.056479,0,0,0,0
245.1,0.59516,4.4756,0.056543,0,0,0,0
245.6,0.59733,4.4784,0.056799,0,0,0,0
246.1,0.6,4.4819,0.057182,0,0,0,0
246.6,0.6024,4.4851,0.057247,0,0,0,0
247.1,0.60457,4.4886,0.057566,0,0,0,0
247.6,0.60806,4.4914,0.057821,0,0,0,0
248.1,0.61015,4.4946,0.05814,0,0,0,0
248.6,0.61283,4.4974,0.058396,0,0,0,0
249.1,0.61499,4.5006,0.058556,0,0,0,0
249.6,0.618,4.5034,0.058651,0,0,0,0
250.1,0.62145,4.5066,0.059289,0,0,0,0
250.6,0.62332,4.5094,0.059512,0,0,0,0
251.1,0.62602,4.5126,0.05964,0,0,0,0
251.6,0.62863,4.5154,0.059959,0,0,0,0
252.1,0.63134,4.5186,0.060213,0,0,0,0
252.6,0.6331,4.5217,0.060532,0,0,0,0
253.1,0.63635,4.5253,0.06085,0,0,0,0
253.6,0.63878,4.5284,0.061169,0,0,0,0
254.1,0.64128,4.5316,0.061074,0,0,0,0
254.6,0.6443,4.5347,0.061678,0,0,0,0
255.1,0.6469,4.538,0.061933,0,0,0,0
255.6,0.65029,4.541,0.062252,0,0,0,0
256.1,0.65276,4.544,0.062441,0,0,0,0
256.6,0.65543,4.5467,0.062537,0,0,0,0
257.1,0.65797,4.5496,0.062792,0,0,0,0
257.6,0.66061,4.5524,0.063141,0,0,0,0
258.1,0.66247,4.5556,0.063045,0,0,0,0
258.6,0.66524,4.5587,0.063522,0,0,0,0
259.1,0.66788,4.562,0.063522,0,0,0,0
259.6,0.67066,4.5647,0.063903,0,0,0,0
260.1,0.67309,4.5673,0.064253,0,0,0,0
260.6,0.67597,4.5697,0.06457,0,0,0,0
261.1,0.67905,4.5726,0.064633,0,0,0,0
261.6,0.68193,4.5754,0.06514,0,0,0,0
262.1,0.68433,4.5786,0.065425,0,0,0,0
262.6,0.6871,4.5814,0.065616,0,0,0,0
263.1,0.68974,4.5843,0.066091,0,0,0,0
263.6,0.69245,4.587,0.065996,0,0,0,0
264.1,0.69461,4.59,0.06663,0,0,0,0
264.6,0.69729,4.593,0.066851,0,0,0,0
265.1,0.70006,4.596,0.06701,0,0,0,0
265.6,0.70294,4.5987,0.067262,0,0,0,0
266.1,0.70558,4.6016,0.067705,0,0,0,0
266.6,0.70846,4.6044,0.0678,0,0,0,0
267.1,0.7112,4.6073,0.068053,0,0,0,0
267.6,0.71421,4.61,0.068274,0,0,0,0
268.1,0.71668,4.613,0.068464,0,0,0,0
268.6,0.71884,4.6157,0.068749,0,0,0,0
269.1,0.72067,4.6183,0.06897,0,0,0,0
269.6,0.72402,4.6207,0.069191,0,0,0,0
270.1,0.72676,4.6236,0.069538,0,0,0,0
270.6,0.72967,4.6264,0.06998,0,0,0,0
271.1,0.73265,4.6293,0.069949,0,0,0,0
271.6,0.73488,4.6317,0.070359,0,0,0,0
272.1,0.7383,4.6343,0.070674,0,0,0,0
272.6,0.74121,4.637,0.070863,0,0,0,0
273.1,0.74355,4.6397,0.07143,0,0,0,0
273.6,0.74652,4.6423,0.071588,0,0,0,0
274.1,0.74923,4.6447,0.071966,0,0,0,0
274.6,0.75197,4.647,0.072187,0,0,0,0
275.1,0.75475,4.6496,0.072595,0,0,0,0
275.6,0.75701,4.6524,0.072848,0,0,0,0
276.1,0.75996,4.6553,0.073131,0,0,0,0
276.6,0.76294,4.6577,0.073446,0,0,0,0
277.1,0.76558,4.6603,0.073351,0,0,0,0
277.6,0.76869,4.663,0.073853,0,0,0,0
278.1,0.7714,4.6657,0.074325,0,0,0,0
278.6,0.77441,4.6683,0.074293,0,0,0,0
279.1,0.77722,4.6713,0.074608,0,0,0,0
279.6,0.77982,4.6741,0.075017,0,0,0,0
280.1,0.78239,4.6766,0.075079,0,0,0,0
280.6,0.78483,4.679,0.075362,0,0,0,0
281.1,0.78781,4.6817,0.075738,0,0,0,0
281.6,0.79045,4.684,0.076176,0,0,0,0
282.1,0.79316,4.686,0.076365,0,0,0,0
282.6,0.79603,4.6883,0.076554,0,0,0,0
283.1,0.79881,4.6907,0.076772,0,0,0,0
283.6,0.80168,4.6933,0.076993,0,0,0,0
284.1,0.80446,4.6957,0.077273,0,0,0,0
284.6,0.8075,4.698,0.077493,0,0,0,0
285.1,0.81024,4.7,0.077775,0,0,0,0
285.6,0.81295,4.7026,0.078244,0,0,0,0
286.1,0.81573,4.7051,0.078588,0,0,0,0
286.6,0.81823,4.7079,0.078869,0,0,0,0
287.1,0.82094,4.7104,0.079057,0,0,0,0
287.6,0.82371,4.7133,0.07937,0,0,0,0
288.1,0.82652,4.7154,0.079745,0,0,0,0
288.6,0.82997,4.7179,0.08012,0,0,0,0
289.1,0.83241,4.7204,0.080245,0,0,0,0
289.6,0.83549,4.7233,0.080651,0,0,0,0
290.1,0.83826,4.7257,0.081026,0,0,0,0
290.6,0.84137,4.7283,0.081212,0,0,0,0
291.1,0.84361,4.7304,0.081462,0,0,0,0
291.6,0.84645,4.7326,0.081806,0,0,0,0
292.1,0.84916,4.7347,0.08218,0,0,0,0
292.6,0.85197,4.7373,0.082242,0,0,0,0
293.1,0.85471,4.7394,0.082615,0,0,0,0
293.6,0.85782,4.7419,0.082647,0,0,0,0
294.1,0.86087,4.7441,0.082896,0,0,0,0
294.6,0.86388,4.7466,0.083332,0,0,0,0
295.1,0.86692,4.7487,0.083612,0,0,0,0
295.6,0.8696,4.751,0.08386,0,0,0,0
296.1,0.87234,4.753,0.084297,0,0,0,0
296.6,0.87508,4.755,0.084545,0,0,0,0
297.1,0.87758,4.757,0.084733,0,0,0,0
297.6,0.88002,4.759,0.08523,0,0,0,0
298.1,0.88303,4.7613,0.085386,0,0,0,0
298.6,0.88591,4.7637,0.085851,0,0,0,0
299.1,0.88892,4.7663,0.086038,0,0,0,0
299.6,0.89183,4.7687,0.086535,0,0,0,0
300.1,0.89477,4.771,0.086844,0,0,0,0
300.6,0.89806,4.773,0.087186,0,0,0,0
301.1,0.9009,4.7753,0.087248,0,0,0,0
301.6,0.9034,4.7774,0.087776,0,0,0,0
302.1,0.90614,4.7796,0.088054,0,0,0,0
302.6,0.90895,4.7817,0.088301,0,0,0,0
303.1,0.91159,4.7843,0.088549,0,0,0,0
303.6,0.91437,4.7867,0.088828,0,0,0,0
304.1,0.91738,4.789,0.089385,0,0,0,0
304.6,0.92029,4.7907,0.08954,0,0,0,0
305.1,0.92323,4.7923,0.089849,0,0,0,0
305.6,0.92638,4.794,0.090406,0,0,0,0
306.1,0.92956,4.796,0.090746,0,0,0,0
306.6,0.93247,4.798,0.091025,0,0,0,0
307.1,0.93497,4.8003,0.091395,0,0,0,0
307.6,0.93761,4.8024,0.091767,0,0,0,0
308.1,0.94049,4.8043,0.092136,0,0,0,0
308.6,0.9431,4.806,0.092353,0,0,0,0
309.1,0.94577,4.8083,0.092661,0,0,0,0
309.6,0.94864,4.8104,0.092877,0,0,0,0
310.1,0.95156,4.8126,0.093401,0,0,0,0
310.6,0.95453,4.8144,0.093556,0,0,0,0
311.1,0.95761,4.8163,0.093832,0,0,0,0
311.6,0.96022,4.8183,0.094388,0,0,0,0
312.1,0.96205,4.8204,0.094325,0,0,0,0
312.6,0.96553,4.8226,0.094849,0,0,0,0
313.1,0.96827,4.8247,0.095248,0,0,0,0
313.6,0.97142,4.827,0.095617,0,0,0,0
314.1,0.97409,4.829,0.096111,0,0,0,0
314.6,0.97687,4.831,0.09611,0,0,0,0
315.1,0.97964,4.833,0.096726,0,0,0,0
315.6,0.98269,4.835,0.097093,0,0,0,0
316.1,0.98597,4.837,0.097462,0,0,0,0
316.6,0.98905,4.839,0.098046,0,0,0,0
317.1,0.99203,4.841,0.098444,0,0,0,0
317.6,0.99504,4.843,0.098537,0,0,0,0
318.1,0.99754,4.8447,0.099364,0,0,0,0
318.6,1.0001,4.8463,0.099548,0,0,0,0
319.1,1.0029,4.848,0.09964,0,0,0,0
319.6,1.0056,4.85,0.10013,0,0,0,0
320.1,1.0085,4.8517,0.10053,0,0,0,0
320.6,1.0112,4.8533,0.10086,0,0,0,0
321.1,1.0141,4.855,0.10083,0,0,0,0
321.6,1.0177,4.857,0.10157,0,0,0,0
322.1,1.0207,4.8587,0.10172,0,0,0,0
322.6,1.0236,4.8606,0.10209,0,0,0,0
323.1,1.0266,4.8627,0.10245,0,0,0,0
323.6,1.0291,4.8647,0.10264,0,0,0,0
324.1,1.0326,4.8663,0.1031,0,0,0,0
324.6,1.0347,4.868,0.10331,0,0,0,0
325.1,1.0379,4.87,0.10383,0,0,0,0
325.6,1.0406,4.8717,0.10459,0,0,0,0
326.1,1.0434,4.8736,0.10493,0,0,0,0
326.6,1.0461,4.8754,0.10529,0,0,0,0
327.1,1.0497,4.8773,0.10575,0,0,0,0
327.6,1.0527,4.8787,0.1062,0,0,0,0
328.1,1.0559,4.8803,0.10663,0,0,0,0
328.6,1.0585,4.882,0.10693,0,0,0,0
329.1,1.0615,4.884,0.10727,0,0,0,0
329.6,1.0641,4.8857,0.10751,0,0,0,0
330.1,1.0668,4.887,0.108,0,0,0,0
330.6,1.0693,4.8886,0.10836,0,0,0,0
331.1,1.0727,4.8904,0.10882,0,0,0,0
331.6,1.0754,4.8923,0.10915,0,0,0,0
332.1,1.0787,4.894,0.1097,0,0,0,0
332.6,1.0817,4.896,0.10982,0,0,0,0
333.1,1.0845,4.8977,0.11021,0,0,0,0
333.6,1.0872,4.8993,0.11045,0,0,0,0
334.1,1.0905,4.901,0.11094,0,0,0,0
334.6,1.0935,4.9027,0.11106,0,0,0,0
335.1,1.0965,4.904,0.11155,0,0,0,0
335.6,1.0992,4.905,0.11179,0,0,0,0
336.1,1.1017,4.9066,0.11242,0,0,0,0
336.6,1.1049,4.9084,0.11273,0,0,0,0
337.1,1.1079,4.9103,0.11363,0,0,0,0
337.6,1.1118,4.9117,0.11391,0,0,0,0
338.1,1.115,4.9133,0.11433,0,0,0,0
338.6,1.118,4.915,0.11469,0,0,0,0
339.1,1.1212,4.9167,0.11532,0,0,0,0
339.6,1.1238,4.9183,0.11577,0,0,0,0
340.1,1.1266,4.9197,0.1162,0,0,0,0
340.6,1.1291,4.9213,0.11662,0,0,0,0
341.1,1.1318,4.9227,0.11686,0,0,0,0
341.6,1.1348,4.924,0.11743,0,0,0,0
342.1,1.1382,4.9253,0.11761,0,0,0,0
342.6,1.1411,4.9267,0.11809,0,0,0,0
343.1,1.1443,4.9283,0.11839,0,0,0,0
343.6,1.1476,4.9297,0.11869,0,0,0,0
344.1,1.1507,4.9313,0.11929,0,0,0,0
344.6,1.1533,4.9327,0.11926,0,0,0,0
345.1,1.1566,4.9343,0.11993,0,0,0,0
345.6,1.1595,4.9357,0.12065,0,0,0,0
346.1,1.1622,4.9373,0.12092,0,0,0,0
346.6,1.165,4.9387,0.12149,0,0,0,0
347.1,1.1678,4.9403,0.12176,0,0,0,0
347.6,1.1709,4.9417,0.12238,0,0,0,0
348.1,1.1741,4.943,0.12289,0,0,0,0
348.6,1.1776,4.9443,0.12319,0,0,0,0
349.1,1.1806,4.9457,0.12364,0,0,0,0
349.6,1.1835,4.9473,0.12424,0,0,0,0
350.1,1.1863,4.9487,0.12463,0,0,0,0
350.6,1.1896,4.95,0.12502,0,0,0,0
351.1,1.1924,4.951,0.12543,0,0,0,0
351.6,1.1951,4.9523,0.12597,0,0,0,0
352.1,1.1978,4.9537,0.12645,0,0,0,0
352.6,1.201,4.955,0.12696,0,0,0,0
353.1,1.204,4.956,0.12728,0,0,0,0
353.6,1.2072,4.957,0.12773,0,0,0,0
354.1,1.2103,4.9583,0.12815,0,0,0,0
354.6,1.2133,4.9597,0.12874,0,0,0,0
355.1,1.2167,4.9613,0.12916,0,0,0,0
355.6,1.2197,4.9627,0.12972,0,0,0,0
356.1,1.222,4.9643,0.1302,0,0,0,0
356.6,1.2248,4.9657,0.13055,0,0,0,0
357.1,1.2276,4.967,0.13118,0,0,0,0
357.6,1.2306,4.968,0.13154,0,0,0,0
358.1,1.2341,4.969,0.1321,0,0,0,0
358.6,1.2372,4.97,0.13251,0,0,0,0
359.1,1.2404,4.971,0.13308,0,0,0,0
359.6,1.244,4.972,0.13355,0,0,0,0
360.1,1.2469,4.973,0.13402,0,0,0,0
360.6,1.2497,4.9743,0.13456,0,0,0,0
361.1,1.2529,4.9757,0.13506,0,0,0,0
361.6,1.2558,4.977,0.13547,0,0,0,0
362.1,1.2584,4.978,0.13598,0,0,0,0
362.6,1.2614,4.979,0.13663,0,0,0,0
363.1,1.2642,4.98,0.13719,0,0,0,0
363.6,1.2675,4.9813,0.1376,0,0,0,0
364.1,1.2704,4.9827,0.13831,0,0,0,0
364.6,1.2741,4.9837,0.13884,0,0,0,0
365.1,1.2774,4.9846,0.13928,0,0,0,0
365.6,1.2805,4.9857,0.13975,0,0,0,0
366.1,1.2833,4.9873,0.14031,0,0,0,0
366.6,1.2864,4.9887,0.14063,0,0,0,0
367.1,1.2893,4.9897,0.14143,0,0,0,0
367.6,1.292,4.9903,0.14196,0,0,0,0
368.1,1.2949,4.991,0.14248,0,0,0,0
368.6,1.2982,4.992,0.14272,0,0,0,0
369.1,1.3014,4.993,0.14342,0,0,0,0
369.6,1.3038,4.994,0.14392,0,0,0,0
370.1,1.3075,4.995,0.14454,0,0,0,0
370.6,1.3109,4.9957,0.14495,0,0,0,0
371.1,1.3142,4.9963,0.14559,0,0,0,0
371.6,1.3172,4.9973,0.14638,0,0,0,0
372.1,1.3205,4.9987,0.14685,0,0,0,0
372.6,1.323,4.9997,0.14734,0,0,0,0
373.1,1.3261,5.0003,0.14799,0,0,0,0
373.6,1.3294,5.001,0.14854,0,0,0,0
374.1,1.3325,5.002,0.14915,0,0,0,0
374.6,1.3356,5.003,0.14974,0,0,0,0
375.1,1.3393,5.0037,0.15038,0,0,0,0
375.6,1.3426,5.0043,0.15093,0,0,0,0
376.1,1.3457,5.005,0.15172,0,0,0,0
376.6,1.3488,5.006,0.15238,0,0,0,0
377.1,1.3518,5.007,0.15293,0,0,0,0
377.6,1.3547,5.008,0.15378,0,0,0,0
378.1,1.3578,5.0087,0.1543,0,0,0,0
378.6,1.3608,5.0093,0.15494,0,0,0,0
379.1,1.364,5.01,0.15554,0,0,0,0
379.6,1.3671,5.0107,0.15627,0,0,0,0
380.1,1.3704,5.0113,0.15702,0,0,0,0
380.6,1.374,5.012,0.15766,0,0,0,0
381.1,1.3772,5.0127,0.15812,0,0,0,0
381.6,1.3805,5.0133,0.15901,0,0,0,0
382.1,1.3836,5.014,0.15956,0,0,0,0
382.6,1.3865,5.015,0.15991,0,0,0,0
383.1,1.3894,5.0157,0.16095,0,0,0,0
383.6,1.3922,5.0163,0.16175,0,0,0,0
384.1,1.3955,5.0167,0.16241,0,0,0,0
384.6,1.3988,5.0173,0.16313,0,0,0,0
385.1,1.4018,5.018,0.16382,0,0,0,0
385.6,1.4054,5.0187,0.16477,0,0,0,0
386.1,1.4088,5.019,0.1654,0,0,0,0
386.6,1.4119,5.0193,0.16614,0,0,0,0
387.1,1.4152,5.0197,0.16663,0,0,0,0
387.6,1.4182,5.0203,0.16749,0,0,0,0
388.1,1.4212,5.021,0.16792,0,0,0,0
388.6,1.4241,5.0217,0.16892,0,0,0,0
389.1,1.4271,5.0223,0.16961,0,0,0,0
389.6,1.4301,5.0227,0.17009,0,0,0,0
390.1,1.4337,5.0233,0.17075,0,0,0,0
390.6,1.437,5.0237,0.17158,0,0,0,0
391.1,1.4405,5.024,0.17246,0,0,0,0
391.6,1.4438,5.024,0.17334,0,0,0,0
392.1,1.4472,5.024,0.17405,0,0,0,0
392.6,1.4502,5.0243,0.17499,0,0,0,0
393.1,1.4529,5.025,0.1757,0,0,0,0
393.6,1.4562,5.0257,0.17667,0,0,0,0
394.1,1.4592,5.026,0.17738,0,0,0,0
394.6,1.4623,5.026,0.17831,0,0,0,0
395.1,1.4656,5.026,0.17916,0,0,0,0
395.6,1.4688,5.0263,0.17984,0,0,0,0
396.1,1.4725,5.0267,0.18083,0,0,0,0
396.6,1.476,5.027,0.18173,0,0,0,0
397.1,1.4792,5.027,0.18275,0,0,0,0
397.6,1.4825,5.027,0.18348,0,0,0,0
398.1,1.4854,5.027,0.18438,0,0,0,0
398.6,1.4882,5.027,0.18553,0,0,0,0
399.1,1.4914,5.027,0.18638,0,0,0,0
399.6,1.4945,5.027,0.18705,0,0,0,0
400.1,1.4979,5.027,0.18797,0,0,0,0
400.6,1.5005,5.027,0.18896,0,0,0,0
401.1,1.5048,5.027,0.18991,0,0,0,0
401.6,1.5081,5.027,0.19089,0,0,0,0
402.1,1.5116,5.0267,0.19186,0,0,0,0
402.6,1.5152,5.0263,0.19287,0,0,0,0
403.1,1.5178,5.026,0.19404,0,0,0,0
403.6,1.5209,5.026,0.19482,0,0,0,0
404.1,1.5245,5.026,0.19602,0,0,0,0
404.6,1.5279,5.0257,0.19688,0,0,0,0
405.1,1.5306,5.0253,0.19827,0,0,0,0
405.6,1.5344,5.025,0.19918,0,0,0,0
406.1,1.5376,5.0247,0.20004,0,0,0,0
406.6,1.5412,5.0243,0.2011,0,0,0,0
407.1,1.5451,5.0237,0.20193,0,0,0,0
407.6,1.5482,5.0233,0.20309,0,0,0,0
408.1,1.5515,5.0227,0.20414,0,0,0,0
408.6,1.5544,5.0223,0.20518,0,0,0,0
409.1,1.5574,5.0217,0.20637,0,0,0,0
409.6,1.561,5.021,0.20772,0,0,0,0
410.1,1.5642,5.02,0.20909,0,0,0,0
410.6,1.5674,5.019,0.21036,0,0,0,0
411.1,1.5712,5.018,0.21151,0,0,0,0
411.6,1.5748,5.0173,0.21282,0,0,0,0
412.1,1.5783,5.0164,0.21367,0,0,0,0
412.6,1.5815,5.0153,0.21493,0,0,0,0
413.1,1.585,5.014,0.21624,0,0,0,0
413.6,1.5882,5.013,0.21754,0,0,0,0
414.1,1.5914,5.012,0.21855,0,0,0,0
414.6,1.5945,5.011,0.21999,0,0,0,0
415.1,1.5982,5.0097,0.22184,0,0,0,0
415.6,1.6015,5.0083,0.22319,0,0,0,0
416.1,1.6049,5.0067,0.22511,0,0,0,0
416.6,1.6089,5.005,0.22663,0,0,0,0
417.1,1.6125,5.003,0.22822,0,0,0,0
417.6,1.6159,5.0013,0.22972,0,0,0,0
418.1,1.6193,4.9994,0.23153,0,0,0,0
418.6,1.6227,4.9976,0.23308,0,0,0,0
419.1,1.6259,4.9954,0.23469,0,0,0,0
419.6,1.6292,4.9933,0.23638,0,0,0,0
420.1,1.6329,4.9907,0.23798,0,0,0,0
420.6,1.6365,4.988,0.2396,0,0,0,0
421.1,1.6403,4.985,0.24146,0,0,0,0
421.6,1.6443,4.9823,0.24348,0,0,0,0
422.1,1.6479,4.9797,0.24557,0,0,0,0
422.6,1.6516,4.977,0.24727,0,0,0,0
423.1,1.6551,4.9734,0.24896,0,0,0,0
423.6,1.6584,4.9696,0.25096,0,0,0,0
424.1,1.6619,4.9657,0.25244,0,0,0,0
424.6,1.6657,4.962,0.25443,0,0,0,0
425.1,1.6693,4.9577,0.2559,0,0,0,0
425.6,1.6731,4.9533,0.25753,0,0,0,0
426.1,1.6772,4.9481,0.25967,0,0,0,0
426.6,1.6812,4.9429,0.26171,0,0,0,0
427.1,1.6853,4.9371,0.2641,0,0,0,0
427.6,1.6889,4.9319,0.26636,0,0,0,0
428.1,1.6928,4.9256,0.26872,0,0,0,0
428.6,1.6966,4.9186,0.27043,0,0,0,0
429.1,1.7007,4.9101,0.27255,0,0,0,0