File: LAB_DATA/DP780_results/DATA/CH_00_3.csv
Time[s],Displacement[mm],Force[kN],AxStrain_1,AxStrain_2,Thickness[mm],OuterWidth[mm],Diameter[mm]
0,0,-0.031695,0,0,1.5001,19.955,5
1,0.000541,0.034123,-1.20E-05,-1.20E-05,0,0,0
2,0.00047,0.10575,2.60E-05,2.60E-05,0,0,0
3,0.00043,0.1623,0.00011499,0.00011499,0,0,0
4,0.000551,0.20899,0.00021298,0.00021298,0,0,0
5,0.000397,0.25526,8.80E-05,8.80E-05,0,0,0
6,0.000522,0.2992,0.00013899,0.00013899,0,0,0
7,0.001015,0.3425,0.00035294,0.00035294,0,0,0
8,0.000871,0.38612,0.00022497,0.00022497,0,0,0
9,0.001076,0.43137,8.80E-05,8.80E-05,0,0,0
10,0.001028,0.47535,9.50E-05,9.50E-05,0,0,0
11,0.001209,0.51716,-4.50E-05,-4.50E-05,0,0,0
12,0.001308,0.55669,5.10E-05,5.10E-05,0,0,0
13,0.00123,0.59873,0.00011499,0.00011499,0,0,0
14,0.000947,0.64195,5.10E-05,5.10E-05,0,0,0
15,0.001261,0.68169,0.00017898,0.00017898,0,0,0
16,0.001065,0.71938,4.00E-06,4.00E-06,0,0,0
17,0.001028,0.76268,0.00036193,0.00036193,0,0,0
18,0.001332,0.80357,0.00012499,0.00012499,0,0,0
19,0.00143,0.84435,0.00030395,0.00030395,0,0,0
20,0.001721,0.88469,0.00025697,0.00025697,0,0,0
21,0.001917,0.92477,0.00025397,0.00025397,0,0,0
22,0.002302,0.96296,0.00026696,0.00026696,0,0,0
23,0.002252,1.0011,0.00058083,0.00058083,0,0,0
24,0.002367,1.0382,0.00035794,0.00035794,0,0,0
25,0.002232,1.0754,0.00038193,0.00038193,0,0,0
26,0.002215,1.1132,0.00033095,0.00033095,0,0,0
27,0.002127,1.1512,0.00050687,0.00050687,0,0,0
28,0.002222,1.1884,0.00050687,0.00050687,0,0,0
29,0.002104,1.2218,0.00034194,0.00034194,0,0,0
30,0.002615,1.2593,0.00010199,0.00010199,0,0,0
31,0.002929,1.292,0.00026696,0.00026696,0,0,0
32,0.003078,1.3275,0.00037493,0.00037493,0,0,0
33,0.003244,1.3625,0.00036893,0.00036893,0,0,0
34,0.003599,1.3972,0.00031495,0.00031495,0,0,0
35,0.003583,1.4308,0.0004429,0.0004429,0,0,0
36,0.00316,1.466,0.00048988,0.00048988,0,0,0
37,0.003181,1.4989,0.00031095,0.00031095,0,0,0
38,0.003455,1.5302,0.00021998,0.00021998,0,0,0
39,0.003702,1.5646,0.00027696,0.00027696,0,0,0
40,0.003679,1.5992,0.00027696,0.00027696,0,0,0
41,0.003818,1.6328,0.00030495,0.00030495,0,0,0
42,0.004488,1.664,0.00039892,0.00039892,0,0,0
43,0.004461,1.6977,0.00025397,0.00025397,0,0,0
44,0.004989,1.7283,0.00031095,0.00031095,0,0,0
45,0.004753,1.76,0.0004529,0.0004529,0,0,0
46,0.004263,1.7913,0.0004499,0.0004499,0,0,0
47,0.004571,1.8216,0.00047988,0.00047988,0,0,0
48,0.004382,1.8564,0.00054485,0.00054485,0,0,0
49,0.00464,1.8891,0.00040292,0.00040292,0,0,0
50,0.004739,1.9209,0.00054785,0.00054785,0,0,0
51,0.00504,1.952,0.00029796,0.00029796,0,0,0
52,0.005379,1.9829,0.00032495,0.00032495,0,0,0
53,0.005812,2.0135,0.00048688,0.00048688,0,0,0
54,0.006252,2.0449,0.00034194,0.00034194,0,0,0
55,0.006155,2.0776,0.00038892,0.00038892,0,0,0
56,0.00592,2.1056,0.00059482,0.00059482,0,0,0
57,0.005873,2.1371,0.00047389,0.00047389,0,0,0
58,0.005604,2.1699,0.00059882,0.00059882,0,0,0
59,0.005814,2.1985,0.00059582,0.00059582,0,0,0
60,0.006045,2.2295,0.00074073,0.00074073,0,0,0
61,0.00611,2.2571,0.00065978,0.00065978,0,0,0
62,0.006771,2.2886,0.00052486,0.00052486,0,0,0
63,0.007312,2.3192,0.00054185,0.00054185,0,0,0
64,0.007581,2.348,0.00051387,0.00051387,0,0,0
65,0.007315,2.3795,0.00071375,0.00071375,0,0,0
66,0.007448,2.4114,0.0008926,0.0008926,0,0,0
67,0.007131,2.44,0.00087961,0.00087961,0,0,0
68,0.006794,2.4714,0.0006298,0.0006298,0,0,0
69,0.006806,2.5008,0.0007747,0.0007747,0,0,0
70,0.006766,2.5284,0.00075072,0.00075072,0,0,0
71,0.007163,2.565,0.0008936,0.0008936,0,0,0
72,0.00734,2.5898,0.00068676,0.00068676,0,0,0
73,0.007838,2.6193,0.00093356,0.00093356,0,0,0
74,0.008492,2.6475,0.00074172,0.00074172,0,0,0
75,0.00897,2.679,0.0010045,0.0010045,0,0,0
76,0.008782,2.7075,0.00070375,0.00070375,0,0,0
77,0.008557,2.7369,0.00086263,0.00086263,0,0,0
78,0.008142,2.7653,0.00073473,0.00073473,0,0,0
79,0.008096,2.7936,0.00071774,0.00071774,0,0,0
80,0.008169,2.8238,0.00072474,0.00072474,0,0,0
81,0.008299,2.8525,0.0010155,0.0010155,0,0,0
82,0.008577,2.8804,0.0011473,0.0011473,0,0,0
83,0.008778,2.9097,0.00090759,0.00090759,0,0,0
84,0.009483,2.9418,0.0008936,0.0008936,0,0,0
85,0.010093,2.9716,0.00098152,0.00098152,0,0,0
86,0.010405,2.999,0.0011374,0.0011374,0,0,0
87,0.009991,3.0267,0.00090059,0.00090059,0,0,0
88,0.009912,3.0547,0.00090059,0.00090059,0,0,0
89,0.00942,3.0851,0.0010295,0.0010295,0,0,0
90,0.009598,3.1124,0.00084364,0.00084364,0,0,0
91,0.009372,3.1423,0.0011993,0.0011993,0,0,0
92,0.009858,3.1689,0.0010674,0.0010674,0,0,0
93,0.009927,3.1967,0.0010974,0.0010974,0,0,0
94,0.010561,3.2256,0.00088861,0.00088861,0,0,0
95,0.010949,3.2524,0.00086463,0.00086463,0,0,0
96,0.01142,3.2823,0.00096853,0.00096853,0,0,0
97,0.01183,3.3124,0.0010095,0.0010095,0,0,0
98,0.011826,3.3419,0.0010944,0.0010944,0,0,0
99,0.011308,3.3702,0.0011384,0.0011384,0,0,0
100,0.011277,3.3997,0.0013351,0.0013351,0,0,0
101,0.010978,3.4266,0.0011923,0.0011923,0,0,0
102,0.011108,3.4568,0.0010714,0.0010714,0,0,0
103,0.011313,3.4855,0.0011833,0.0011833,0,0,0
104,0.011573,3.5127,0.0013151,0.0013151,0,0,0
105,0.012275,3.5403,0.0011354,0.0011354,0,0,0
106,0.012594,3.5698,0.0011863,0.0011863,0,0,0
107,0.013387,3.5987,0.0012402,0.0012402,0,0,0
108,0.013244,3.629,0.0010514,0.0010514,0,0,0
109,0.013259,3.6568,0.0012262,0.0012262,0,0,0
110,0.013012,3.6848,0.0012163,0.0012163,0,0,0
111,0.012675,3.7131,0.0015568,0.0015568,0,0,0
112,0.012339,3.7417,0.0013551,0.0013551,0,0,0
113,0.012714,3.7685,0.0011523,0.0011523,0,0,0
114,0.012749,3.7981,0.001389,0.001389,0,0,0
115,0.012718,3.8254,0.001389,0.001389,0,0,0
116,0.013632,3.8547,0.0012203,0.0012203,0,0,0
117,0.014412,3.8824,0.0011863,0.0011863,0,0,0
118,0.014719,3.9104,0.0012203,0.0012203,0,0,0
119,0.01489,3.9375,0.0013551,0.0013551,0,0,0
120,0.014858,3.9666,0.001389,0.001389,0,0,0
121,0.014522,3.995,0.0014899,0.0014899,0,0,0
122,0.014017,4.024,0.0013551,0.0013551,0,0,0
123,0.013816,4.0526,0.0015238,0.0015238,0,0,0
124,0.013819,4.0776,0.0014899,0.0014899,0,0,0
125,0.014261,4.1055,0.0014909,0.0014909,0,0,0
126,0.014398,4.1356,0.0013221,0.0013221,0,0,0
127,0.015212,4.1626,0.0015258,0.0015258,0,0,0
128,0.015856,4.1906,0.001424,0.001424,0,0,0
129,0.016332,4.2147,0.0014569,0.0014569,0,0,0
130,0.016335,4.2439,0.0013551,0.0013551,0,0,0
131,0.016236,4.2721,0.0011873,0.0011873,0,0,0
132,0.015934,4.3004,0.0013221,0.0013221,0,0,0
133,0.015735,4.3291,0.001389,0.001389,0,0,0
134,0.015331,4.3549,0.00139,0.00139,0,0,0
135,0.015369,4.383,0.0017604,0.0017604,0,0,0
136,0.01517,4.412,0.0012213,0.0012213,0,0,0
137,0.015949,4.4371,0.0010874,0.0010874,0,0,0
138,0.016595,4.4645,0.0013571,0.0013571,0,0,0
139,0.017004,4.4926,0.0015258,0.0015258,0,0,0
140,0.017614,4.5198,0.0012892,0.0012892,0,0,0
141,0.017718,4.5482,0.0013571,0.0013571,0,0,0
142,0.017789,4.5752,0.0015268,0.0015268,0,0,0
143,0.01769,4.605,0.0014579,0.0014579,0,0,0
144,0.017254,4.6321,0.0016936,0.0016936,0,0,0
145,0.016614,4.6613,0.0018303,0.0018303,0,0,0
146,0.016652,4.6875,0.0017624,0.0017624,0,0,0
147,0.016755,4.7162,0.0016956,0.0016956,0,0,0
148,0.0173,4.7452,0.0016616,0.0016616,0,0,0
149,0.018147,4.7707,0.0014589,0.0014589,0,0,0
150,0.018454,4.7964,0.0017644,0.0017644,0,0,0
151,0.018997,4.8274,0.0019671,0.0019671,0,0,0
152,0.01944,4.856,0.001426,0.001426,0,0,0
153,0.019037,4.8804,0.0016966,0.0016966,0,0,0
154,0.019141,4.9074,0.0017295,0.0017295,0,0,0
155,0.018636,4.9347,0.0019661,0.0019661,0,0,0
156,0.01864,4.9632,0.0023033,0.0023033,0,0,0
157,0.018372,4.9924,0.0021018,0.0021018,0,0,0
158,0.01834,5.0179,0.0018323,0.0018323,0,0,0
159,0.01858,5.044,0.0020359,0.0020359,0,0,0
160,0.018989,5.0701,0.0019341,0.0019341,0,0,0
161,0.019769,5.0968,0.0017664,0.0017664,0,0,0
162,0.020313,5.1232,0.0019351,0.0019351,0,0,0
163,0.020518,5.1502,0.0019701,0.0019701,0,0,0
164,0.021096,5.1784,0.0019351,0.0019351,0,0,0
165,0.02076,5.2052,0.0020359,0.0020359,0,0,0
166,0.020696,5.2351,0.0022375,0.0022375,0,0,0
167,0.020091,5.2622,0.0021377,0.0021377,0,0,0
168,0.020262,5.2895,0.0021028,0.0021028,0,0,0
169,0.019758,5.3185,0.0022056,0.0022056,0,0,0
170,0.019864,5.3453,0.002441,0.002441,0,0,0
171,0.02068,5.374,0.0020389,0.0020389,0,0,0
172,0.021122,5.4009,0.0021048,0.0021048,0,0,0
173,0.022004,5.427,0.0022395,0.0022395,0,0,0
174,0.022379,5.454,0.0018683,0.0018683,0,0,0
175,0.022384,5.4831,0.0019361,0.0019361,0,0,0
176,0.022454,5.5118,0.0019002,0.0019002,0,0,0
177,0.022323,5.5377,0.002001,0.002001,0,0,0
178,0.022293,5.5636,0.0020349,0.0020349,0,0,0
179,0.021923,5.5934,0.0023393,0.0023393,0,0,0
180,0.021692,5.6213,0.0023053,0.0023053,0,0,0
181,0.021932,5.649,0.0023732,0.0023732,0,0,0
182,0.021935,5.6762,0.0023393,0.0023393,0,0,0
183,0.023019,5.706,0.0022724,0.0022724,0,0,0
184,0.023361,5.7306,0.0024071,0.0024071,0,0,0
185,0.023736,5.7609,0.0022385,0.0022385,0,0,0
186,0.024246,5.7882,0.0023732,0.0023732,0,0,0
187,0.023945,5.8135,0.0020689,0.0020689,0,0,0
188,0.024287,5.8427,0.0022724,0.0022724,0,0,0
189,0.024019,5.87,0.0023732,0.0023732,0,0,0
190,0.023989,5.8966,0.002441,0.002441,0,0,0
191,0.023756,5.9257,0.0022724,0.0022724,0,0,0
192,0.023725,5.9558,0.0026086,0.0026086,0,0,0
193,0.023897,5.9821,0.0028459,0.0028459,0,0,0
194,0.024577,6.0065,0.0025089,0.0025089,0,0,0
195,0.024952,6.0327,0.0025757,0.0025757,0,0,0
196,0.025361,6.0585,0.0024759,0.0024759,0,0,0
197,0.02577,6.084,0.0024071,0.0024071,0,0,0
198,0.026178,6.1143,0.0023413,0.0023413,0,0,0
199,0.026418,6.14,0.0025428,0.0025428,0,0,0
200,0.026625,6.1649,0.0022724,0.0022724,0,0,0
201,0.026088,6.1962,0.0025418,0.0025418,0,0,0
202,0.025991,6.2249,0.0025089,0.0025089,0,0,0
203,0.025892,6.2502,0.0028459,0.0028459,0,0,0
204,0.025895,6.2777,0.0028459,0.0028459,0,0,0
205,0.026168,6.3047,0.0028798,0.0028798,0,0,0
206,0.02651,6.3321,0.0028479,0.0028479,0,0,0
207,0.027191,6.3623,0.0025787,0.0025787,0,0,0
208,0.027701,6.3896,0.002444,0.002444,0,0,0
209,0.027638,6.4143,0.0025787,0.0025787,0,0,0
210,0.027943,6.4439,0.0026126,0.0026126,0,0,0
211,0.02815,6.4728,0.0023762,0.0023762,0,0,0
212,0.028291,6.4979,0.0026445,0.0026445,0,0,0
213,0.028294,6.5243,0.0029138,0.0029138,0,0,0
214,0.028231,6.5522,0.0027123,0.0027123,0,0,0
215,0.027998,6.5797,0.0028469,0.0028469,0,0,0
216,0.028104,6.6049,0.0030832,0.0030832,0,0,0
217,0.028548,6.6322,0.002815,0.002815,0,0,0
218,0.029059,6.6624,0.0028479,0.0028479,0,0,0
219,0.029163,6.6915,0.0026465,0.0026465,0,0,0
220,0.02954,6.7181,0.0029845,0.0029845,0,0,0
221,0.029849,6.7465,0.0027482,0.0027482,0,0,0
222,0.030056,6.7737,0.0027502,0.0027502,0,0,0
223,0.030162,6.8017,0.0025797,0.0025797,0,0,0
224,0.030198,6.8266,0.0029177,0.0029177,0,0,0
225,0.030135,6.8561,0.0028828,0.0028828,0,0,0
226,0.030243,6.8819,0.0026814,0.0026814,0,0,0
227,0.030044,6.9099,0.0032547,0.0032547,0,0,0
228,0.030216,6.9396,0.0032547,0.0032547,0,0,0
229,0.030727,6.9668,0.003154,0.003154,0,0,0
230,0.031069,6.994,0.0033902,0.0033902,0,0,0
231,0.031614,7.0212,0.0033255,0.0033255,0,0,0
232,0.031551,7.0482,0.0031221,0.0031221,0,0,0
233,0.032094,7.0778,0.0031211,0.0031211,0,0,0
234,0.031964,7.1034,0.0031899,0.0031899,0,0,0
235,0.032172,7.1291,0.0031221,0.0031221,0,0,0
236,0.032546,7.1589,0.0033902,0.0033902,0,0,0
237,0.032618,7.1875,0.0033584,0.0033584,0,0,0
238,0.032688,7.2147,0.0034241,0.0034241,0,0,0
239,0.032861,7.2436,0.0036264,0.0036264,0,0,0
240,0.033103,7.275,0.0039303,0.0039303,0,0,0
241,0.033445,7.3035,0.003729,0.003729,0,0,0
242,0.033517,7.3301,0.0036294,0.0036294,0,0,0
243,0.034163,7.3554,0.0036972,0.0036972,0,0,0
244,0.0342,7.3862,0.0035278,0.0035278,0,0,0
245,0.03427,7.4134,0.0034949,0.0034949,0,0,0
246,0.034545,7.4415,0.0034959,0.0034959,0,0,0
247,0.035057,7.4694,0.0036304,0.0036304,0,0,0
248,0.035093,7.4976,0.0038665,0.0038665,0,0,0
249,0.035335,7.5279,0.0038994,0.0038994,0,0,0
250,0.035541,7.5539,0.0039681,0.0039681,0,0,0
251,0.03568,7.5827,0.0043704,0.0043704,0,0,0
252,0.03609,7.6114,0.0044053,0.0044053,0,0,0
253,0.035924,7.6386,0.0041374,0.0041374,0,0,0
254,0.036165,7.6695,0.004239,0.004239,0,0,0
255,0.036507,7.6994,0.0039372,0.0039372,0,0,0
256,0.036812,7.7282,0.0038018,0.0038018,0,0,0
257,0.03719,7.7572,0.0039024,0.0039024,0,0,0
258,0.037397,7.7865,0.0041733,0.0041733,0,0,0
259,0.037975,7.8139,0.0040368,0.0040368,0,0,0
260,0.038283,7.839,0.0041384,0.0041384,0,0,0
261,0.038255,7.8686,0.0044421,0.0044421,0,0,0
262,0.038698,7.8997,0.0047427,0.0047427,0,0,0
263,0.039073,7.9274,0.0047099,0.0047099,0,0,0
264,0.038806,7.9586,0.0046761,0.0046761,0,0,0
265,0.039317,7.9861,0.0044431,0.0044431,0,0,0
266,0.039422,8.0132,0.0046123,0.0046123,0,0,0
267,0.039426,8.0411,0.0042101,0.0042101,0,0,0
268,0.039701,8.0681,0.0043744,0.0043744,0,0,0
269,0.040044,8.0938,0.0042071,0.0042071,0,0,0
270,0.040552,8.1263,0.0043426,0.0043426,0,0,0
271,0.041471,8.1567,0.0043067,0.0043067,0,0,0
272,0.041372,8.185,0.0048452,0.0048452,0,0,0
273,0.042223,8.2144,0.0048781,0.0048781,0,0,0
274,0.042192,8.244,0.0051816,0.0051816,0,0,0
275,0.04213,8.2709,0.0052164,0.0052164,0,0,0
276,0.042031,8.2971,0.0050462,0.0050462,0,0,0
277,0.041901,8.327,0.0050154,0.0050154,0,0,0
278,0.042243,8.3574,0.0049487,0.0049487,0,0,0
279,0.042618,8.3828,0.0048791,0.0048791,0,0,0
280,0.042859,8.4117,0.0048821,0.0048821,0,0,0
281,0.043608,8.4458,0.0048462,0.0048462,0,0,0
282,0.044086,8.4695,0.0049806,0.0049806,0,0,0
283,0.044833,8.4989,0.005281,0.005281,0,0,0
284,0.045176,8.5317,0.0054839,0.0054839,0,0,0
285,0.045685,8.5589,0.0056858,0.0056858,0,0,0
286,0.045757,8.5871,0.0060218,0.0060218,0,0,0
287,0.045658,8.6188,0.0057862,0.0057862,0,0,0
288,0.045494,8.6455,0.0057882,0.0057882,0,0,0
289,0.045396,8.6754,0.0056202,0.0056202,0,0,0
290,0.045737,8.7023,0.0052512,0.0052512,0,0,0
291,0.046182,8.734,0.0053178,0.0053178,0,0,0
292,0.046796,8.7644,0.0052164,0.0052164,0,0,0
293,0.047409,8.793,0.0057206,0.0057206,0,0,0
294,0.048257,8.8206,0.005821,0.005821,0,0,0
295,0.049003,8.852,0.0059532,0.0059532,0,0,0
296,0.049207,8.8825,0.0064253,0.0064253,0,0,0
297,0.049181,8.912,0.0064929,0.0064929,0,0,0
298,0.049079,8.9412,0.0066598,0.0066598,0,0,0
299,0.049049,8.971,0.0064581,0.0064581,0,0,0
300,0.048953,9.0005,0.0061908,0.0061908,0,0,0
301,0.049565,9.027,0.0060904,0.0060904,0,0,0
302,0.049937,9.0549,0.0061908,0.0061908,0,0,0
303,0.050654,9.0845,0.0061232,0.0061232,0,0,0
304,0.051739,9.1165,0.0062564,0.0062564,0,0,0
305,0.052553,9.1504,0.0062236,0.0062236,0,0,0
306,0.053028,9.1752,0.0067263,0.0067263,0,0,0
307,0.053405,9.2061,0.0072288,0.0072288,0,0,0
308,0.05334,9.2358,0.007196,0.007196,0,0,0
309,0.053175,9.2628,0.0072973,0.0072973,0,0,0
310,0.053146,9.2924,0.0069299,0.0069299,0,0,0
311,0.052677,9.3228,0.0068296,0.0068296,0,0,0
312,0.053726,9.3516,0.0069299,0.0069299,0,0,0
313,0.054033,9.3805,0.0067283,0.0067283,0,0,0
314,0.055085,9.4121,0.0068624,0.0068624,0,0,0
315,0.055967,9.4411,0.0069289,0.0069289,0,0,0
316,0.056815,9.4693,0.0072318,0.0072318,0,0,0
317,0.057223,9.497,0.0074651,0.0074651,0,0,0
318,0.057667,9.5269,0.0076993,0.0076993,0,0,0
319,0.058075,9.5598,0.0080356,0.0080356,0,0,0
320,0.057776,9.5883,0.0080009,0.0080009,0,0,0
321,0.05771,9.6189,0.0079057,0.0079057,0,0,0
322,0.058186,9.648,0.0078035,0.0078035,0,0,0
323,0.058663,9.6772,0.0077707,0.0077707,0,0,0
324,0.059274,9.7052,0.0076368,0.0076368,0,0,0
325,0.060325,9.7344,0.0076348,0.0076348,0,0,0
326,0.061139,9.7633,0.007736,0.007736,0,0,0
327,0.061379,9.7947,0.0080039,0.0080039,0,0,0
328,0.062193,9.8243,0.0083728,0.0083728,0,0,0
329,0.062399,9.8534,0.0085741,0.0085741,0,0,0
330,0.063045,9.8835,0.0092441,0.0092441,0,0,0
331,0.063453,9.9121,0.0093789,0.0093789,0,0,0
332,0.063726,9.94,0.0088775,0.0088775,0,0,0
333,0.063965,9.9718,0.0089786,0.0089786,0,0,0
334,0.064512,10.001,0.0086782,0.0086782,0,0,0
335,0.064986,10.027,0.009045,0.009045,0,0,0
336,0.0658,10.056,0.0087456,0.0087456,0,0,0
337,0.066749,10.085,0.0088448,0.0088448,0,0,0
338,0.067022,10.115,0.0090797,0.0090797,0,0,0
339,0.067534,10.144,0.0095136,0.0095136,0,0,0
340,0.068008,10.171,0.009882,0.009882,0,0,0
341,0.068651,10.203,0.010119,0.010119,0,0,0
342,0.069399,10.232,0.010355,0.010355,0,0,0
343,0.069707,10.262,0.010387,0.010387,0,0,0
344,0.070689,10.291,0.010119,0.010119,0,0,0
345,0.071099,10.327,0.010053,0.010053,0,0,0
346,0.071876,10.352,0.010089,0.010089,0,0,0
347,0.07235,10.378,0.0098186,0.0098186,0,0,0
348,0.072658,10.405,0.010019,0.010019,0,0,0
349,0.073099,10.433,0.010321,0.010321,0,0,0
350,0.073949,10.462,0.010588,0.010588,0,0,0
351,0.07439,10.491,0.011323,0.011323,0,0,0
352,0.075474,10.521,0.011591,0.011591,0,0,0
353,0.076356,10.552,0.011591,0.011591,0,0,0
354,0.077509,10.58,0.011692,0.011692,0,0,0
355,0.078151,10.611,0.011461,0.011461,0,0,0
356,0.078424,10.639,0.011392,0.011392,0,0,0
357,0.079,10.667,0.011259,0.011259,0,0,0
358,0.079105,10.695,0.011224,0.011224,0,0,0
359,0.079615,10.726,0.011422,0.011422,0,0,0
360,0.079989,10.75,0.011959,0.011959,0,0,0
361,0.080902,10.779,0.01219,0.01219,0,0,0
362,0.081817,10.807,0.012825,0.012825,0,0,0
363,0.082936,10.839,0.013025,0.013025,0,0,0
364,0.084054,10.867,0.013092,0.013092,0,0,0
365,0.085339,10.895,0.012992,0.012992,0,0,0
366,0.086221,10.924,0.012893,0.012893,0,0,0
367,0.086831,10.952,0.012758,0.012758,0,0,0
368,0.087307,10.98,0.012758,0.012758,0,0,0
369,0.087445,11.008,0.012725,0.012725,0,0,0
370,0.087718,11.04,0.012855,0.012855,0,0,0
371,0.088462,11.066,0.013587,0.013587,0,0,0
372,0.089107,11.096,0.013754,0.013754,0,0,0
373,0.090834,11.123,0.014121,0.014121,0,0,0
374,0.091613,11.152,0.014422,0.014422,0,0,0
375,0.093102,11.182,0.01452,0.01452,0,0,0
376,0.094256,11.208,0.014454,0.014454,0,0,0
377,0.094762,11.238,0.014354,0.014354,0,0,0
378,0.09507,11.267,0.014188,0.014188,0,0,0
379,0.095917,11.297,0.014121,0.014121,0,0,0
380,0.09646,11.324,0.014587,0.014587,0,0,0
381,0.097409,11.352,0.014852,0.014852,0,0,0
382,0.097986,11.38,0.015051,0.015051,0,0,0
383,0.099476,11.406,0.015483,0.015483,0,0,0
384,0.10015,11.434,0.015915,0.015915,0,0,0
385,0.10103,11.462,0.016214,0.016214,0,0,0
386,0.10201,11.491,0.016114,0.016114,0,0,0
387,0.10296,11.515,0.016249,0.016249,0,0,0
388,0.10371,11.545,0.01605,0.01605,0,0,0
389,0.10469,11.572,0.016182,0.016182,0,0,0
390,0.10574,11.599,0.016215,0.016215,0,0,0
391,0.10706,11.626,0.016679,0.016679,0,0,0
392,0.10848,11.656,0.016646,0.016646,0,0,0
393,0.10933,11.684,0.017178,0.017178,0,0,0
394,0.11024,11.711,0.017343,0.017343,0,0,0
395,0.11102,11.735,0.017874,0.017874,0,0,0
396,0.11143,11.766,0.018075,0.018075,0,0,0
397,0.11213,11.794,0.018141,0.018141,0,0,0
398,0.11275,11.82,0.018107,0.018107,0,0,0
399,0.11427,11.845,0.018175,0.018175,0,0,0
400,0.11579,11.872,0.018174,0.018174,0,0,0
401,0.11721,11.9,0.018173,0.018173,0,0,0
402,0.11897,11.93,0.018538,0.018538,0,0,0
403,0.11988,11.954,0.018837,0.018837,0,0,0
404,0.1211,11.977,0.019202,0.019202,0,0,0
405,0.12178,12.006,0.019664,0.019664,0,0,0
406,0.12262,12.034,0.019931,0.019931,0,0,0
407,0.12323,12.061,0.020164,0.020164,0,0,0
408,0.12408,12.086,0.020199,0.020199,0,0,0
409,0.1253,12.112,0.020397,0.020397,0,0,0
410,0.12668,12.141,0.02053,0.02053,0,0,0
411,0.12841,12.166,0.020661,0.020661,0,0,0
412,0.12959,12.192,0.020829,0.020829,0,0,0
413,0.13098,12.22,0.020992,0.020992,0,0,0
414,0.13182,12.246,0.021355,0.021355,0,0,0
415,0.13317,12.273,0.021686,0.021686,0,0,0
416,0.13419,12.296,0.022185,0.022185,0,0,0
417,0.13568,12.322,0.022449,0.022449,0,0,0
418,0.13663,12.347,0.022482,0.022482,0,0,0
419,0.13815,12.375,0.022582,0.022582,0,0,0
420,0.13954,12.401,0.022714,0.022714,0,0,0
421,0.14052,12.426,0.023111,0.023111,0,0,0
422,0.14126,12.45,0.023141,0.023141,0,0,0
423,0.14221,12.477,0.023408,0.023408,0,0,0
424,0.1437,12.505,0.023637,0.023637,0,0,0
425,0.14458,12.529,0.024001,0.024001,0,0,0
426,0.14661,12.557,0.02407,0.02407,0,0,0
427,0.14827,12.583,0.024433,0.024433,0,0,0
428,0.14989,12.607,0.024697,0.024697,0,0,0
429,0.15155,12.631,0.024929,0.024929,0,0,0
430,0.1528,12.656,0.025422,0.025422,0,0,0
431,0.15388,12.683,0.025654,0.025654,0,0,0
432,0.15446,12.709,0.025552,0.025552,0,0,0
433,0.15551,12.734,0.02608,0.02608,0,0,0
434,0.15686,12.761,0.026311,0.026311,0,0,0
435,0.15811,12.785,0.02644,0.02644,0,0,0
436,0.15974,12.81,0.026576,0.026576,0,0,0
437,0.16167,12.835,0.027066,0.027066,0,0,0
438,0.16336,12.861,0.027299,0.027299,0,0,0
439,0.16471,12.884,0.027726,0.027726,0,0,0
440,0.16633,12.91,0.028054,0.028054,0,0,0
441,0.16755,12.935,0.028086,0.028086,0,0,0
442,0.16914,12.96,0.028875,0.028875,0,0,0
443,0.17076,12.986,0.028973,0.028973,0,0,0
444,0.17202,13.01,0.029236,0.029236,0,0,0
445,0.17421,13.035,0.029302,0.029302,0,0,0
446,0.17516,13.058,0.029501,0.029501,0,0,0
447,0.17658,13.085,0.029894,0.029894,0,0,0
448,0.17763,13.109,0.030287,0.030287,0,0,0
449,0.17929,13.134,0.03042,0.03042,0,0,0
450,0.18044,13.157,0.030909,0.030909,0,0,0
451,0.18206,13.18,0.031335,0.031335,0,0,0
452,0.18385,13.204,0.031597,0.031597,0,0,0
453,0.18635,13.231,0.03199,0.03199,0,0,0
454,0.18818,13.254,0.03235,0.03235,0,0,0
455,0.18987,13.281,0.032577,0.032577,0,0,0
456,0.19119,13.305,0.032808,0.032808,0,0,0
457,0.19281,13.328,0.032905,0.032905,0,0,0
458,0.19406,13.351,0.033297,0.033297,0,0,0
459,0.19531,13.376,0.033265,0.033265,0,0,0
460,0.1968,13.399,0.03382,0.03382,0,0,0
461,0.19859,13.421,0.034245,0.034245,0,0,0
462,0.20052,13.444,0.034603,0.034603,0,0,0
463,0.2021,13.468,0.034896,0.034896,0,0,0
464,0.20393,13.495,0.035385,0.035385,0,0,0
465,0.20542,13.519,0.035418,0.035418,0,0,0
466,0.20677,13.539,0.035712,0.035712,0,0,0
467,0.20866,13.564,0.035907,0.035907,0,0,0
468,0.21038,13.585,0.036266,0.036266,0,0,0
469,0.21241,13.607,0.036527,0.036527,0,0,0
470,0.21461,13.631,0.03682,0.03682,0,0,0
471,0.21627,13.654,0.03734,0.03734,0,0,0
472,0.21802,13.676,0.037763,0.037763,0,0,0
473,0.21947,13.699,0.038056,0.038056,0,0,0
474,0.22082,13.722,0.038284,0.038284,0,0,0
475,0.22204,13.746,0.038673,0.038673,0,0,0
476,0.22363,13.768,0.039097,0.039097,0,0,0
477,0.22586,13.791,0.039128,0.039128,0,0,0
478,0.22819,13.813,0.040005,0.040005,0,0,0
479,0.23015,13.835,0.039973,0.039973,0,0,0
480,0.23208,13.859,0.04072,0.04072,0,0,0
481,0.234,13.881,0.040624,0.040624,0,0,0
482,0.23576,13.901,0.041109,0.041109,0,0,0
483,0.23745,13.923,0.041563,0.041563,0,0,0
484,0.23955,13.945,0.041822,0.041822,0,0,0
485,0.24161,13.968,0.042016,0.042016,0,0,0
486,0.2439,13.992,0.042763,0.042763,0,0,0
487,0.24556,14.012,0.043084,0.043084,0,0,0
488,0.24776,14.033,0.043408,0.043408,0,0,0
489,0.24887,14.055,0.044088,0.044088,0,0,0
490,0.25012,14.078,0.044379,0.044379,0,0,0
491,0.25195,14.099,0.0448,0.0448,0,0,0
492,0.25377,14.123,0.044799,0.044799,0,0,0
493,0.25641,14.143,0.045155,0.045155,0,0,0
494,0.2586,14.164,0.045477,0.045477,0,0,0
495,0.26104,14.186,0.045897,0.045897,0,0,0
496,0.26299,14.208,0.046252,0.046252,0,0,0
497,0.26502,14.229,0.046672,0.046672,0,0,0
498,0.26668,14.249,0.047253,0.047253,0,0,0
499,0.26871,14.271,0.047638,0.047638,0,0,0
500,0.27043,14.29,0.048186,0.048186,0,0,0
501,0.27246,14.31,0.048413,0.048413,0,0,0
502,0.27489,14.332,0.048992,0.048992,0,0,0
503,0.27685,14.353,0.048994,0.048994,0,0,0
504,0.27861,14.375,0.049732,0.049732,0,0,0
505,0.28026,14.393,0.049989,0.049989,0,0,0
506,0.28202,14.414,0.050408,0.050408,0,0,0
507,0.28405,14.436,0.050825,0.050825,0,0,0
508,0.28631,14.457,0.051338,0.051338,0,0,0
509,0.28868,14.477,0.051917,0.051917,0,0,0
510,0.29121,14.495,0.052141,0.052141,0,0,0
511,0.29385,14.515,0.052684,0.052684,0,0,0
512,0.29588,14.535,0.052976,0.052976,0,0,0
513,0.2979,14.556,0.053392,0.053392,0,0,0
514,0.29942,14.578,0.053617,0.053617,0,0,0
515,0.30159,14.596,0.053999,0.053999,0,0,0
516,0.30385,14.614,0.054737,0.054737,0,0,0
517,0.30591,14.634,0.054896,0.054896,0,0,0
518,0.30841,14.654,0.055377,0.055377,0,0,0
519,0.31054,14.672,0.056049,0.056049,0,0,0
520,0.3122,14.693,0.056431,0.056431,0,0,0
521,0.31416,14.713,0.056848,0.056848,0,0,0
522,0.31612,14.734,0.057264,0.057264,0,0,0
523,0.31852,14.751,0.057741,0.057741,0,0,0
524,0.32126,14.771,0.058092,0.058092,0,0,0
525,0.32433,14.79,0.058539,0.058539,0,0,0
526,0.32649,14.809,0.059176,0.059176,0,0,0
527,0.32886,14.828,0.059462,0.059462,0,0,0
528,0.33072,14.845,0.059908,0.059908,0,0,0
529,0.33298,14.864,0.06045,0.06045,0,0,0
530,0.33508,14.884,0.060926,0.060926,0,0,0
531,0.33697,14.903,0.061467,0.061467,0,0,0
532,0.33923,14.92,0.061848,0.061848,0,0,0
533,0.34231,14.939,0.062357,0.062357,0,0,0
534,0.34457,14.96,0.062769,0.062769,0,0,0
535,0.34626,14.978,0.063181,0.063181,0,0,0
536,0.34836,14.995,0.063815,0.063815,0,0,0
537,0.34995,15.012,0.064008,0.064008,0,0,0
538,0.35258,15.033,0.064926,0.064926,0,0,0
539,0.35539,15.052,0.065402,0.065402,0,0,0
540,0.35792,15.071,0.065748,0.065748,0,0,0
541,0.36066,15.089,0.066193,0.066193,0,0,0
542,0.36326,15.106,0.066603,0.066603,0,0,0
543,0.36545,15.124,0.0673,0.0673,0,0,0
544,0.36782,15.14,0.067646,0.067646,0,0,0
545,0.36978,15.159,0.06812,0.06812,0,0,0
546,0.37224,15.177,0.068656,0.068656,0,0,0
547,0.37495,15.197,0.069004,0.069004,0,0,0
548,0.37776,15.215,0.069667,0.069667,0,0,0
549,0.37995,15.231,0.070329,0.070329,0,0,0
550,0.38198,15.249,0.071085,0.071085,0,0,0
551,0.38404,15.265,0.071337,0.071337,0,0,0
552,0.38621,15.282,0.072123,0.072123,0,0,0
553,0.38854,15.301,0.072784,0.072784,0,0,0
554,0.391,15.318,0.073098,0.073098,0,0,0
555,0.39428,15.335,0.073538,0.073538,0,0,0
556,0.39705,15.352,0.073852,0.073852,0,0,0
557,0.39992,15.37,0.074323,0.074323,0,0,0
558,0.40212,15.387,0.07476,0.07476,0,0,0
559,0.40435,15.404,0.075578,0.075578,0,0,0
560,0.40715,15.42,0.07633,0.07633,0,0,0
561,0.40945,15.439,0.077205,0.077205,0,0,0
562,0.41236,15.458,0.077924,0.077924,0,0,0
563,0.41547,15.475,0.078238,0.078238,0,0,0
564,0.41801,15.492,0.078926,0.078926,0,0,0
565,0.42037,15.508,0.079301,0.079301,0,0,0
566,0.42223,15.522,0.079706,0.079706,0,0,0
567,0.42462,15.541,0.080205,0.080205,0,0,0
568,0.42696,15.556,0.080767,0.080767,0,0,0
569,0.42949,15.575,0.081452,0.081452,0,0,0
570,0.4327,15.59,0.08195,0.08195,0,0,0
571,0.43574,15.605,0.082542,0.082542,0,0,0
572,0.43845,15.622,0.083225,0.083225,0,0,0
573,0.44115,15.639,0.083971,0.083971,0,0,0
574,0.44321,15.652,0.084439,0.084439,0,0,0
575,0.44598,15.669,0.084686,0.084686,0,0,0
576,0.44862,15.685,0.085307,0.085307,0,0,0
577,0.45189,15.7,0.085742,0.085742,0,0,0
578,0.455,15.719,0.086609,0.086609,0,0,0
579,0.4575,15.732,0.087197,0.087197,0,0,0
580,0.45997,15.749,0.087693,0.087693,0,0,0
581,0.4622,15.767,0.088374,0.088374,0,0,0
582,0.4646,15.783,0.088963,0.088963,0,0,0
583,0.46727,15.798,0.089457,0.089457,0,0,0
584,0.47014,15.811,0.089982,0.089982,0,0,0
585,0.47309,15.826,0.090321,0.090321,0,0,0
586,0.47609,15.842,0.091092,0.091092,0,0,0
587,0.47883,15.856,0.092111,0.092111,0,0,0
588,0.48096,15.875,0.09285,0.09285,0,0,0
589,0.48349,15.887,0.093467,0.093467,0,0,0
590,0.4867,15.903,0.094144,0.094144,0,0,0
591,0.48977,15.917,0.094513,0.094513,0,0,0
592,0.49315,15.935,0.095127,0.095127,0,0,0
593,0.4962,15.947,0.095589,0.095589,0,0,0
594,0.49886,15.965,0.096325,0.096325,0,0,0
595,0.5016,15.977,0.096785,0.096785,0,0,0
596,0.50427,15.994,0.097919,0.097919,0,0,0
597,0.50667,16.01,0.098654,0.098654,0,0,0
598,0.51012,16.025,0.09942,0.09942,0,0,0
599,0.51309,16.04,0.099969,0.099969,0,0,0
600,0.5161,16.055,0.10031,0.10031,0,0,0
601,0.51843,16.07,0.10135,0.10135,0,0,0
602,0.52107,16.084,0.10177,0.10177,0,0,0
603,0.52417,16.097,0.10217,0.10217,0,0,0
604,0.52634,16.11,0.10287,0.10287,0,0,0
605,0.52955,16.124,0.10333,0.10333,0,0,0
606,0.53282,16.139,0.10421,0.10421,0,0,0
607,0.53607,16.155,0.10503,0.10503,0,0,0
608,0.53894,16.168,0.10561,0.10561,0,0,0
609,0.54171,16.183,0.10634,0.10634,0,0,0
610,0.54465,16.2,0.10698,0.10698,0,0,0
611,0.54739,16.213,0.10774,0.10774,0,0,0
612,0.5506,16.228,0.1085,0.1085,0,0,0
613,0.55424,16.242,0.10904,0.10904,0,0,0
614,0.55756,16.253,0.1098,0.1098,0,0,0
615,0.56057,16.268,0.1105,0.1105,0,0,0
616,0.56296,16.281,0.11092,0.11092,0,0,0
617,0.56573,16.296,0.11155,0.11155,0,0,0
618,0.56858,16.308,0.11213,0.11213,0,0,0
619,0.57131,16.319,0.11273,0.11273,0,0,0
620,0.57466,16.336,0.11364,0.11364,0,0,0
621,0.57813,16.35,0.11469,0.11469,0,0,0
622,0.58097,16.364,0.11536,0.11536,0,0,0
623,0.58364,16.377,0.11629,0.11629,0,0,0
624,0.58655,16.389,0.11716,0.11716,0,0,0
625,0.58963,16.404,0.11755,0.11755,0,0,0
626,0.59301,16.419,0.11794,0.11794,0,0,0
627,0.59635,16.43,0.11827,0.11827,0,0,0
628,0.59983,16.443,0.11899,0.11899,0,0,0
629,0.60304,16.457,0.11977,0.11977,0,0,0
630,0.60635,16.47,0.12058,0.12058,0,0,0
631,0.60892,16.483,0.12124,0.12124,0,0,0
632,0.61223,16.496,0.12229,0.12229,0,0,0
633,0.61598,16.511,0.12342,0.12342,0,0,0
634,0.61943,16.523,0.12375,0.12375,0,0,0
635,0.62298,16.536,0.12459,0.12459,0,0,0
636,0.62585,16.551,0.12536,0.12536,0,0,0
637,0.62875,16.563,0.12608,0.12608,0,0,0
638,0.63139,16.571,0.12682,0.12682,0,0,0
639,0.63453,16.587,0.12739,0.12739,0,0,0
640,0.63825,16.601,0.12849,0.12849,0,0,0
641,0.64166,16.612,0.12941,0.12941,0,0,0
642,0.64477,16.624,0.12979,0.12979,0,0,0
643,0.64798,16.634,0.1306,0.1306,0,0,0
644,0.65106,16.651,0.13143,0.13143,0,0,0
645,0.65407,16.666,0.13232,0.13232,0,0,0
646,0.65758,16.673,0.13338,0.13338,0,0,0
647,0.66079,16.684,0.13433,0.13433,0,0,0
648,0.66471,16.695,0.13509,0.13509,0,0,0
649,0.66829,16.707,0.13577,0.13577,0,0,0
650,0.67154,16.719,0.13636,0.13636,0,0,0
651,0.67461,16.73,0.13742,0.13742,0,0,0
652,0.67765,16.745,0.13825,0.13825,0,0,0
653,0.68093,16.757,0.13931,0.13931,0,0,0
654,0.68495,16.767,0.14025,0.14025,0,0,0
655,0.68853,16.781,0.14136,0.14136,0,0,0
656,0.69188,16.792,0.14198,0.14198,0,0,0
657,0.69458,16.803,0.14315,0.14315,0,0,0
658,0.69769,16.815,0.1438,0.1438,0,0,0
659,0.7008,16.825,0.14473,0.14473,0,0,0
660,0.70415,16.837,0.14541,0.14541,0,0,0
661,0.70806,16.85,0.14669,0.14669,0,0,0
662,0.71168,16.861,0.14768,0.14768,0,0,0
663,0.71526,16.875,0.14897,0.14897,0,0,0
664,0.71813,16.887,0.14969,0.14969,0,0,0
665,0.72141,16.897,0.15071,0.15071,0,0,0
666,0.72499,16.907,0.1515,0.1515,0,0,0
667,0.72871,16.919,0.15234,0.15234,0,0,0
668,0.73253,16.928,0.15318,0.15318,0,0,0
669,0.73648,16.94,0.15408,0.15408,0,0,0
670,0.73966,16.951,0.15501,0.15501,0,0,0
671,0.74321,16.964,0.15561,0.15561,0,0,0
672,0.74645,16.976,0.15677,0.15677,0,0,0
673,0.75007,16.986,0.15749,0.15749,0,0,0
674,0.75375,16.996,0.15827,0.15827,0,0,0
675,0.75791,17.007,0.15925,0.15925,0,0,0
676,0.7618,17.018,0.16017,0.16017,0,0,0
677,0.76484,17.029,0.16115,0.16115,0,0,0
678,0.76804,17.04,0.16242,0.16242,0,0,0
679,0.77143,17.05,0.16371,0.16371,0,0,0
680,0.77504,17.061,0.16448,0.16448,0,0,0
681,0.77913,17.07,0.16546,0.16546,0,0,0
682,0.78285,17.079,0.16606,0.16606,0,0,0
683,0.78639,17.091,0.16712,0.16712,0,0,0
684,0.78987,17.102,0.16803,0.16803,0,0,0
685,0.79315,17.114,0.16883,0.16883,0,0,0
686,0.79663,17.123,0.16983,0.16983,0,0,0
687,0.80086,17.132,0.17097,0.17097,0,0,0
688,0.80515,17.144,0.17163,0.17163,0,0,0
689,0.80877,17.153,0.17257,0.17257,0,0,0
690,0.81231,17.164,0.1735,0.1735,0,0,0
691,0.81579,17.172,0.17504,0.17504,0,0,0
692,0.81961,17.182,0.17603,0.17603,0,0,0
693,0.8236,17.192,0.1773,0.1773,0,0,0
694,0.82789,17.204,0.17838,0.17838,0,0,0
695,0.83195,17.213,0.17923,0.17923,0,0,0
696,0.8355,17.223,0.18033,0.18033,0,0,0
697,0.83918,17.234,0.18146,0.18146,0,0,0
698,0.84246,17.241,0.18281,0.18281,0,0,0
699,0.84641,17.251,0.1836,0.1836,0,0,0
700,0.8505,17.26,0.18447,0.18447,0,0,0
701,0.85486,17.269,0.18537,0.18537,0,0,0
702,0.85888,17.279,0.18697,0.18697,0,0,0
703,0.86236,17.29,0.18817,0.18817,0,0,0
704,0.86594,17.298,0.18921,0.18921,0,0,0
705,0.86953,17.307,0.19044,0.19044,0,0,0
706,0.87358,17.314,0.19192,0.19192,0,0,0
707,0.87774,17.324,0.19301,0.19301,0,0,0
708,0.88206,17.334,0.19412,0.19412,0,0,0
709,0.88588,17.343,0.19548,0.19548,0,0,0
710,0.88946,17.353,0.19671,0.19671,0,0,0
711,0.89305,17.363,0.19809,0.19809,0,0,0
712,0.89771,17.372,0.19953,0.19953,0,0,0
713,0.90193,17.381,0.20127,0.20127,0,0,0
714,0.90629,17.389,0.20227,0.20227,0,0,0
715,0.91045,17.397,0.20354,0.20354,0,0,0
716,0.91397,17.405,0.20489,0.20489,0,0,0
717,0.91829,17.414,0.20624,0.20624,0,0,0
718,0.92252,17.425,0.20783,0.20783,0,0,0
719,0.9267,17.432,0.20904,0.20904,0,0,0
720,0.93147,17.44,0.21019,0.21019,0,0,0
721,0.9359,17.449,0.2118,0.2118,0,0,0
722,0.93965,17.456,0.21281,0.21281,0,0,0
723,0.94336,17.462,0.21401,0.21401,0,0,0
724,0.94749,17.471,0.21557,0.21557,0,0,0
725,0.95164,17.481,0.21682,0.21682,0,0,0
726,0.95638,17.488,0.21843,0.21843,0,0,0
727,0.96057,17.496,0.21946,0.21946,0,0,0
728,0.96405,17.502,0.22073,0.22073,0,0,0
729,0.96773,17.513,0.22187,0.22187,0,0,0
730,0.97209,17.521,0.22311,0.22311,0,0,0
731,0.97635,17.529,0.2253,0.2253,0,0,0
732,0.98088,17.537,0.22641,0.22641,0,0,0
733,0.98534,17.543,0.22781,0.22781,0,0,0
734,0.98956,17.549,0.22878,0.22878,0,0,0
735,0.99335,17.557,0.23052,0.23052,0,0,0
736,0.99774,17.565,0.23205,0.23205,0,0,0
737,1.0022,17.575,0.23374,0.23374,0,0,0
738,1.0069,17.581,0.23529,0.23529,0,0,0
739,1.0117,17.588,0.23753,0.23753,0,0,0
740,1.0158,17.597,0.2391,0.2391,0,0,0
741,1.0198,17.603,0.24046,0.24046,0,0,0
742,1.024,17.611,0.24184,0.24184,0,0,0
743,1.0287,17.616,0.24359,0.24359,0,0,0
744,1.0334,17.624,0.24523,0.24523,0,0,0
745,1.0387,17.63,0.24652,0.24652,0,0,0
746,1.0433,17.638,0.24861,0.24861,0,0,0
747,1.0476,17.645,0.2504,0.2504,0,0,0
748,1.052,17.651,0.25229,0.25229,0,0,0
749,1.0564,17.657,0.25363,0.25363,0,0,0
750,1.0618,17.664,0.25565,0.25565,0,0,0
751,1.0668,17.669,0.25698,0.25698,0,0,0
752,1.0711,17.675,0.25876,0.25876,0,0,0
753,1.0756,17.679,0.26092,0.26092,0,0,0
754,1.0804,17.686,0.26261,0.26261,0,0,0
755,1.0853,17.691,0.26443,0.26443,0,0,0
756,1.0905,17.695,0.26617,0.26617,0,0,0
757,1.0952,17.702,0.26806,0.26806,0,0,0
758,1.0997,17.707,0.27028,0.27028,0,0,0
759,1.1041,17.715,0.272,0.272,0,0,0
760,1.1087,17.719,0.27316,0.27316,0,0,0
761,1.1135,17.724,0.27555,0.27555,0,0,0
762,1.119,17.73,0.27737,0.27737,0,0,0
763,1.1243,17.734,0.27919,0.27919,0,0,0
764,1.1287,17.736,0.28156,0.28156,0,0,0
765,1.1333,17.743,0.28444,0.28444,0,0,0
766,1.1382,17.747,0.28652,0.28652,0,0,0
767,1.1433,17.751,0.28939,0.28939,0,0,0
768,1.149,17.75,0.29081,0.29081,0,0,0
769,1.1539,17.754,0.2926,0.2926,0,0,0
770,1.1588,17.758,0.29461,0.29461,0,0,0
771,1.1635,17.762,0.2967,0.2967,0,0,0
772,1.1692,17.763,0.29949,0.29949,0,0,0
773,1.1746,17.763,0.30199,0.30199,0,0,0
774,1.1807,17.764,0.30421,0.30421,0,0,0
775,1.1859,17.761,0.307,0.307,0,0,0
776,1.1915,17.756,0.30931,0.30931,0,0,0
777,1.1974,17.751,0.31226,0.31226,0,0,0
778,1.2046,17.737,0.31643,0.31643,0,0,0
779,1.213,17.704,0.32051,0.32051,0,0,0