File: lab_data/DP780_results/DATA/CH_90_3.csv
Time[s],Displacement[mm],Force[kN],AxStrain_1,AxStrain_2,Thickness[mm],OuterWidth[mm],Diameter[mm]
0,0,-0.042986,0,0,1.4956,19.97,5
1,0.00064,0.027635,6.80E-05,6.80E-05,0,0,0
2,0.001012,0.098297,7.90E-05,7.90E-05,0,0,0
3,0.001286,0.15295,0.00030695,0.00030695,0,0,0
4,0.001275,0.20021,0.00014399,0.00014399,0,0,0
5,0.001722,0.24466,7.60E-05,7.60E-05,0,0,0
6,0.001613,0.28922,0.00013399,0.00013399,0,0,0
7,0.001402,0.33374,0.00015799,0.00015799,0,0,0
8,0.001659,0.37726,0.00017898,0.00017898,0,0,0
9,0.001779,0.41688,5.50E-05,5.50E-05,0,0,0
10,0.001899,0.45895,0.00019498,0.00019498,0,0,0
11,0.002008,0.4994,0.00020498,0.00020498,0,0,0
12,0.001658,0.53893,0.00030495,0.00030495,0,0,0
13,0.002438,0.57742,0.00017299,0.00017299,0,0,0
14,0.002801,0.6164,0.00052286,0.00052286,0,0,0
15,0.002732,0.65958,0.00024097,0.00024097,0,0,0
16,0.002762,0.69946,0.00028196,0.00028196,0,0,0
17,0.003187,0.7392,0.00019598,0.00019598,0,0,0
18,0.002837,0.77895,0.00027496,0.00027496,0,0,0
19,0.002811,0.82009,0.00012399,0.00012399,0,0,0
20,0.002875,0.8628,0.00012399,0.00012399,0,0,0
21,0.002721,0.89915,0.00021798,0.00021798,0,0,0
22,0.003169,0.93777,-1.10E-05,-1.10E-05,0,0,0
23,0.003278,0.97844,0.00015399,0.00015399,0,0,0
24,0.003166,1.017,5.30E-05,5.30E-05,0,0,0
25,0.003264,1.0555,8.00E-06,8.00E-06,0,0,0
26,0.004066,1.0931,0.00041791,0.00041791,0,0,0
27,0.004382,1.1329,0.00039092,0.00039092,0,0,0
28,0.004379,1.172,0.00036093,0.00036093,0,0,0
29,0.005019,1.212,0.00040292,0.00040292,0,0,0
30,0.004786,1.2491,0.00040692,0.00040692,0,0,0
31,0.004827,1.2851,0.00042491,0.00042491,0,0,0
32,0.004595,1.3213,0.00031195,0.00031195,0,0,0
33,0.0042,1.3566,0.00022198,0.00022198,0,0,0
34,0.004223,1.3915,0.00018798,0.00018798,0,0,0
35,0.005265,1.4272,0.00036893,0.00036893,0,0,0
36,0.00516,1.4606,0.00035794,0.00035794,0,0,0
37,0.006082,1.4984,0.00059482,0.00059482,0,0,0
38,0.006357,1.5322,0.00064679,0.00064679,0,0,0
39,0.006986,1.5653,0.00053786,0.00053786,0,0,0
40,0.006505,1.5968,0.00072973,0.00072973,0,0,0
41,0.006242,1.6286,0.00059782,0.00059782,0,0,0
42,0.006464,1.6645,0.00057184,0.00057184,0,0,0
43,0.006175,1.6964,0.00048888,0.00048888,0,0,0
44,0.00551,1.7286,0.00042491,0.00042491,0,0,0
45,0.006244,1.7599,0.00036493,0.00036493,0,0,0
46,0.006768,1.791,0.00042491,0.00042491,0,0,0
47,0.006983,1.8224,0.00046289,0.00046289,0,0,0
48,0.007154,1.8561,0.00049288,0.00049288,0,0,0
49,0.008212,1.8839,0.00047489,0.00047489,0,0,0
50,0.007957,1.9157,0.00058383,0.00058383,0,0,0
51,0.008418,1.9474,0.00056484,0.00056484,0,0,0
52,0.008223,1.9778,0.00059083,0.00059083,0,0,0
53,0.007867,2.0088,0.00050487,0.00050487,0,0,0
54,0.007383,2.0389,0.00053885,0.00053885,0,0,0
55,0.007873,2.0686,0.0006368,0.0006368,0,0,0
56,0.007829,2.0997,0.00051287,0.00051287,0,0,0
57,0.007785,2.1299,0.00022997,0.00022997,0,0,0
58,0.008331,2.1585,0.00033594,0.00033594,0,0,0
59,0.00918,2.1905,0.00051587,0.00051587,0,0,0
60,0.009407,2.2181,0.0004559,0.0004559,0,0,0
61,0.00957,2.2483,0.00073173,0.00073173,0,0,0
62,0.009639,2.2764,0.00083665,0.00083665,0,0,0
63,0.009095,2.3069,0.00086263,0.00086263,0,0,0
64,0.008852,2.337,0.00074572,0.00074572,0,0,0
65,0.00868,2.3655,0.00065578,0.00065578,0,0,0
66,0.008724,2.3973,0.00067077,0.00067077,0,0,0
67,0.008309,2.4273,0.00057284,0.00057284,0,0,0
68,0.008927,2.4555,0.00058783,0.00058783,0,0,0
69,0.009613,2.4864,0.00064479,0.00064479,0,0,0
70,0.010037,2.5145,0.00054985,0.00054985,0,0,0
71,0.010804,2.5418,0.00076071,0.00076071,0,0,0
72,0.01104,2.572,0.00086263,0.00086263,0,0,0
73,0.011164,2.599,0.00097552,0.00097552,0,0,0
74,0.010854,2.6276,0.0011334,0.0011334,0,0,0
75,0.010559,2.6536,0.00084764,0.00084764,0,0,0
76,0.010103,2.6809,0.00086662,0.00086662,0,0,0
77,0.010135,2.7105,0.00082166,0.00082166,0,0,0
78,0.009975,2.7374,0.00072774,0.00072774,0,0,0
79,0.010259,2.7678,0.00072774,0.00072774,0,0,0
80,0.01069,2.7961,0.0006258,0.0006258,0,0,0
81,0.011331,2.8236,0.00066378,0.00066378,0,0,0
82,0.011945,2.8525,0.00070575,0.00070575,0,0,0
83,0.011476,2.8793,0.00059282,0.00059282,0,0,0
84,0.011595,2.9058,0.00081067,0.00081067,0,0,0
85,0.012508,2.9324,0.00098452,0.00098452,0,0,0
86,0.012295,2.9609,0.00084864,0.00084864,0,0,0
87,0.011817,2.9897,0.0010824,0.0010824,0,0,0
88,0.011628,3.017,0.00070675,0.00070675,0,0,0
89,0.011356,3.0437,0.00071474,0.00071474,0,0,0
90,0.011717,3.0708,0.00065778,0.00065778,0,0,0
91,0.012933,3.0998,0.00060582,0.00060582,0,0,0
92,0.012688,3.1254,0.00060582,0.00060582,0,0,0
93,0.013553,3.1526,0.0006368,0.0006368,0,0,0
94,0.014129,3.1795,0.00073073,0.00073073,0,0,0
95,0.014253,3.2083,0.00083165,0.00083165,0,0,0
96,0.014415,3.2339,0.0010684,0.0010684,0,0,0
97,0.013954,3.2603,0.0010684,0.0010684,0,0,0
98,0.013397,3.2861,0.0012083,0.0012083,0,0,0
99,0.013393,3.3144,0.0010504,0.0010504,0,0,0
100,0.013355,3.3421,0.0012223,0.0012223,0,0,0
101,0.013026,3.3698,0.00098252,0.00098252,0,0,0
102,0.013423,3.4001,0.00093356,0.00093356,0,0,0
103,0.014288,3.4269,0.00083465,0.00083465,0,0,0
104,0.01498,3.4562,0.00095155,0.00095155,0,0,0
105,0.015447,3.4817,0.0008996,0.0008996,0,0,0
106,0.016233,3.5111,0.0010604,0.0010604,0,0,0
107,0.016229,3.5371,0.0010385,0.0010385,0,0,0
108,0.015868,3.5657,0.0013241,0.0013241,0,0,0
109,0.01509,3.5928,0.0012942,0.0012942,0,0,0
110,0.014659,3.6199,0.0011663,0.0011663,0,0,0
111,0.01468,3.649,0.0011443,0.0011443,0,0,0
112,0.014587,3.6746,0.0011713,0.0011713,0,0,0
113,0.014935,3.7032,0.0010475,0.0010475,0,0,0
114,0.015313,3.7285,0.00088561,0.00088561,0,0,0
115,0.016145,3.7563,0.00084864,0.00084864,0,0,0
116,0.016493,3.7836,0.00078469,0.00078469,0,0,0
117,0.017061,3.8119,0.00090559,0.00090559,0,0,0
118,0.017675,3.8381,0.00097053,0.00097053,0,0,0
119,0.016675,3.8637,0.00090659,0.00090659,0,0,0
120,0.016915,3.8916,0.0012003,0.0012003,0,0,0
121,0.016061,3.9189,0.00099051,0.00099051,0,0,0
122,0.015802,3.9455,0.0012882,0.0012882,0,0,0
123,0.015429,3.9713,0.0012133,0.0012133,0,0,0
124,0.014946,4.002,0.0011004,0.0011004,0,0,0
125,0.015401,4.0278,0.0011014,0.0011014,0,0,0
126,0.016948,4.054,0.0010255,0.0010255,0,0,0
127,0.017368,4.0803,0.00098751,0.00098751,0,0,0
128,0.018051,4.108,0.00094955,0.00094955,0,0,0
129,0.018359,4.1367,0.00094955,0.00094955,0,0,0
130,0.01874,4.1625,0.0011753,0.0011753,0,0,0
131,0.017807,4.1894,0.0010994,0.0010994,0,0,0
132,0.01834,4.2139,0.001438,0.001438,0,0,0
133,0.017632,4.2417,0.0013621,0.0013621,0,0,0
134,0.017264,4.2679,0.0015877,0.0015877,0,0,0
135,0.017309,4.2933,0.0014749,0.0014749,0,0,0
136,0.01769,4.3218,0.0012123,0.0012123,0,0,0
137,0.01841,4.3519,0.0012123,0.0012123,0,0,0
138,0.018905,4.377,0.0012502,0.0012502,0,0,0
139,0.019776,4.4037,0.0012123,0.0012123,0,0,0
140,0.020121,4.4287,0.0012882,0.0012882,0,0,0
141,0.020653,4.4577,0.0012133,0.0012133,0,0,0
142,0.020469,4.4861,0.0012882,0.0012882,0,0,0
143,0.020098,4.5135,0.001401,0.001401,0,0,0
144,0.019913,4.5393,0.001439,0.001439,0,0,0
145,0.019733,4.5662,0.0015897,0.0015897,0,0,0
146,0.01906,4.5909,0.0018154,0.0018154,0,0,0
147,0.018841,4.6204,0.0015917,0.0015917,0,0,0
148,0.018886,4.645,0.0014789,0.0014789,0,0,0
149,0.019306,4.6722,0.0012173,0.0012173,0,0,0
150,0.021194,4.7041,0.0012922,0.0012922,0,0,0
151,0.020938,4.7243,0.0011803,0.0011803,0,0,0
152,0.021887,4.7505,0.0012562,0.0012562,0,0,0
153,0.022272,4.7785,0.0012572,0.0012572,0,0,0
154,0.021903,4.8041,0.0012942,0.0012942,0,0,0
155,0.020858,4.8298,0.001409,0.001409,0,0,0
156,0.020297,4.8614,0.0015218,0.0015218,0,0,0
157,0.021507,4.8836,0.0017465,0.0017465,0,0,0
158,0.020949,4.9102,0.00201,0.00201,0,0,0
159,0.020356,4.9355,0.0018982,0.0018982,0,0,0
160,0.020321,4.9633,0.0016337,0.0016337,0,0,0
161,0.021271,4.9885,0.0016337,0.0016337,0,0,0
162,0.022104,5.0131,0.001445,0.001445,0,0,0
163,0.022859,5.0384,0.0013311,0.0013311,0,0,0
164,0.023279,5.0655,0.0013691,0.0013691,0,0,0
165,0.023624,5.0911,0.001445,0.001445,0,0,0
166,0.023629,5.1167,0.001406,0.001406,0,0,0
167,0.023185,5.143,0.0016317,0.0016317,0,0,0
168,0.022477,5.1688,0.0018563,0.0018563,0,0,0
169,0.022334,5.1941,0.0018942,0.0018942,0,0,0
170,0.022418,5.2218,0.0019701,0.0019701,0,0,0
171,0.022691,5.247,0.0017824,0.0017824,0,0,0
172,0.023227,5.274,0.0017824,0.0017824,0,0,0
173,0.023837,5.3019,0.0017445,0.0017445,0,0,0
174,0.024712,5.3273,0.0015957,0.0015957,0,0,0
175,0.025249,5.3542,0.0015208,0.0015208,0,0,0
176,0.025482,5.38,0.001447,0.001447,0,0,0
177,0.025151,5.4046,0.0014839,0.0014839,0,0,0
178,0.025197,5.4299,0.0015228,0.0015228,0,0,0
179,0.024716,5.4584,0.0015228,0.0015228,0,0,0
180,0.024498,5.4837,0.0015997,0.0015997,0,0,0
181,0.024203,5.5089,0.001976,0.001976,0,0,0
182,0.024022,5.5351,0.0020519,0.0020519,0,0,0
183,0.02471,5.5639,0.0021287,0.0021287,0,0,0
184,0.025318,5.5904,0.0018663,0.0018663,0,0,0
185,0.025777,5.617,0.0018683,0.0018683,0,0,0
186,0.026575,5.6421,0.0015688,0.0015688,0,0,0
187,0.026733,5.6686,0.0016077,0.0016077,0,0,0
188,0.026666,5.6948,0.0014949,0.0014949,0,0,0
189,0.026562,5.7207,0.0017195,0.0017195,0,0,0
190,0.026046,5.7476,0.0016826,0.0016826,0,0,0
191,0.025531,5.7715,0.0017185,0.0017185,0,0,0
192,0.02509,5.7991,0.001981,0.001981,0,0,0
193,0.025364,5.8253,0.002019,0.002019,0,0,0
194,0.024999,5.8493,0.0022435,0.0022435,0,0,0
195,0.025913,5.877,0.0023173,0.0023173,0,0,0
196,0.027237,5.9,0.0023193,0.0023193,0,0,0
197,0.027852,5.9241,0.0020908,0.0020908,0,0,0
198,0.028348,5.9525,0.001978,0.001978,0,0,0
199,0.028771,5.9785,0.001979,0.001979,0,0,0
200,0.028593,6.0039,0.0018273,0.0018273,0,0,0
201,0.02864,6.0303,0.002016,0.002016,0,0,0
202,0.028086,6.0532,0.0019401,0.0019401,0,0,0
203,0.027154,6.0829,0.001978,0.001978,0,0,0
204,0.027389,6.1092,0.0020529,0.0020529,0,0,0
205,0.027132,6.1347,0.0023911,0.0023911,0,0,0
206,0.027405,6.1579,0.00243,0.00243,0,0,0
207,0.028429,6.1811,0.0026176,0.0026176,0,0,0
208,0.029266,6.2086,0.0026186,0.0026186,0,0,0
209,0.029915,6.2368,0.0022445,0.0022445,0,0,0
210,0.030113,6.2625,0.0023572,0.0023572,0,0,0
211,0.030383,6.2874,0.002021,0.002021,0,0,0
212,0.030545,6.3142,0.0020579,0.0020579,0,0,0
213,0.029917,6.3392,0.0017994,0.0017994,0,0,0
214,0.030382,6.3661,0.0020998,0.0020998,0,0,0
215,0.02942,6.3895,0.0020998,0.0020998,0,0,0
216,0.028985,6.4147,0.0022894,0.0022894,0,0,0
217,0.02929,6.4413,0.0022894,0.0022894,0,0,0
218,0.02942,6.4676,0.0027801,0.0027801,0,0,0
219,0.030477,6.4922,0.00282,0.00282,0,0,0
220,0.031279,6.5176,0.0027083,0.0027083,0,0,0
221,0.031814,6.543,0.0025208,0.0025208,0,0,0
222,0.032088,6.5676,0.0025218,0.0025218,0,0,0
223,0.032284,6.5937,0.0022604,0.0022604,0,0,0
224,0.032181,6.6159,0.0022974,0.0022974,0,0,0
225,0.032261,6.6407,0.0022594,0.0022594,0,0,0
226,0.031557,6.6683,0.0022575,0.0022575,0,0,0
227,0.03119,6.6936,0.0023323,0.0023323,0,0,0
228,0.031463,6.7205,0.0025188,0.0025188,0,0,0
229,0.031245,6.7437,0.0027073,0.0027073,0,0,0
230,0.032347,6.7721,0.0027422,0.0027422,0,0,0
231,0.032846,6.7971,0.0030045,0.0030045,0,0,0
232,0.033234,6.8247,0.002816,0.002816,0,0,0
233,0.033692,6.8478,0.0025527,0.0025527,0,0,0
234,0.033895,6.8716,0.0027412,0.0027412,0,0,0
235,0.033868,6.898,0.0025527,0.0025527,0,0,0
236,0.033279,6.9224,0.0022894,0.0022894,0,0,0
237,0.032915,6.9481,0.0025128,0.0025128,0,0,0
238,0.033643,6.9741,0.0023632,0.0023632,0,0,0
239,0.033765,6.9997,0.0025527,0.0025527,0,0,0
240,0.03378,7.0265,0.002814,0.002814,0,0,0
241,0.033941,7.0503,0.0027023,0.0027023,0,0,0
242,0.034666,7.0721,0.0031151,0.0031151,0,0,0
243,0.034981,7.0987,0.0032657,0.0032657,0,0,0
244,0.035628,7.1213,0.0032308,0.0032308,0,0,0
245,0.035864,7.1487,0.0029307,0.0029307,0,0,0
246,0.035945,7.1762,0.0029696,0.0029696,0,0,0
247,0.035957,7.2041,0.0025567,0.0025567,0,0,0
248,0.036041,7.2296,0.0025577,0.0025577,0,0,0
249,0.035901,7.2551,0.0026724,0.0026724,0,0,0
250,0.035795,7.2812,0.0025607,0.0025607,0,0,0
251,0.035769,7.3056,0.0026355,0.0026355,0,0,0
252,0.036308,7.3294,0.0027891,0.0027891,0,0,0
253,0.036543,7.3564,0.0030912,0.0030912,0,0,0
254,0.036972,7.3839,0.0032049,0.0032049,0,0,0
255,0.03698,7.4087,0.0033225,0.0033225,0,0,0
256,0.037708,7.4334,0.0033584,0.0033584,0,0,0
257,0.037837,7.46,0.003172,0.003172,0,0,0
258,0.037886,7.4832,0.0031002,0.0031002,0,0,0
259,0.037826,7.5123,0.0028749,0.0028749,0,0,0
260,0.037917,7.5394,0.0028011,0.0028011,0,0,0
261,0.038342,7.5629,0.0026894,0.0026894,0,0,0
262,0.038393,7.5871,0.0028749,0.0028749,0,0,0
263,0.03863,7.6128,0.0029506,0.0029506,0,0,0
264,0.039021,7.6388,0.0032138,0.0032138,0,0,0
265,0.039372,7.6647,0.0034012,0.0034012,0,0,0
266,0.039797,7.6922,0.0037769,0.0037769,0,0,0
267,0.03996,7.7174,0.0039243,0.0039243,0,0,0
268,0.040047,7.742,0.0036991,0.0036991,0,0,0
269,0.040132,7.7692,0.0035846,0.0035846,0,0,0
270,0.040482,7.7932,0.0034361,0.0034361,0,0,0
271,0.040418,7.8213,0.0032078,0.0032078,0,0,0
272,0.040726,7.8437,0.0029447,0.0029447,0,0,0
273,0.041002,7.875,0.0030164,0.0030164,0,0,0
274,0.041465,7.8981,0.0032437,0.0032437,0,0,0
275,0.041627,7.9243,0.0033175,0.0033175,0,0,0
276,0.041825,7.9493,0.0036553,0.0036553,0,0,0
277,0.042028,7.9749,0.0038426,0.0038426,0,0,0
278,0.041925,7.9993,0.0039542,0.0039542,0,0,0
279,0.042085,8.0251,0.0042918,0.0042918,0,0,0
280,0.041982,8.0511,0.0040289,0.0040289,0,0,0
281,0.042219,8.0748,0.0039173,0.0039173,0,0,0
282,0.042574,8.1017,0.003729,0.003729,0,0,0
283,0.042546,8.1271,0.0036543,0.0036543,0,0,0
284,0.043053,8.1529,0.0034311,0.0034311,0,0,0
285,0.043525,8.1777,0.0033165,0.0033165,0,0,0
286,0.043984,8.2035,0.0035058,0.0035058,0,0,0
287,0.044487,8.2292,0.003731,0.003731,0,0,0
288,0.04469,8.2525,0.0041066,0.0041066,0,0,0
289,0.04429,8.2806,0.0042549,0.0042549,0,0,0
290,0.044383,8.3074,0.0045188,0.0045188,0,0,0
291,0.044618,8.3309,0.0045954,0.0045954,0,0,0
292,0.044933,8.3566,0.0045208,0.0045208,0,0,0
293,0.044796,8.3839,0.0042241,0.0042241,0,0,0
294,0.04511,8.4109,0.0041842,0.0041842,0,0,0
295,0.045536,8.4374,0.0038854,0.0038854,0,0,0
296,0.046187,8.4619,0.0038516,0.0038516,0,0,0
297,0.047365,8.4853,0.0038137,0.0038137,0,0,0
298,0.047677,8.5109,0.0038904,0.0038904,0,0,0
299,0.047161,8.5406,0.004228,0.004228,0,0,0
300,0.047512,8.5624,0.0043037,0.0043037,0,0,0
301,0.047488,8.5878,0.0047149,0.0047149,0,0,0
302,0.047159,8.6174,0.0049816,0.0049816,0,0,0
303,0.047284,8.6439,0.0048323,0.0048323,0,0,0
304,0.047632,8.6704,0.0046482,0.0046482,0,0,0
305,0.048017,8.695,0.0044989,0.0044989,0,0,0
306,0.048555,8.7213,0.0043127,0.0043127,0,0,0
307,0.049358,8.7477,0.0041623,0.0041623,0,0,0
308,0.049782,8.7739,0.0041992,0.0041992,0,0,0
309,0.050696,8.7977,0.0041673,0.0041673,0,0,0
310,0.050065,8.8209,0.0044302,0.0044302,0,0,0
311,0.050603,8.847,0.0045407,0.0045407,0,0,0
312,0.050544,8.874,0.0052552,0.0052552,0,0,0
313,0.050256,8.8997,0.005481,0.005481,0,0,0
314,0.050456,8.9239,0.0054461,0.0054461,0,0,0
315,0.050771,8.9535,0.0051865,0.0051865,0,0,0
316,0.05146,8.978,0.0049607,0.0049607,0,0,0
317,0.052225,9.0029,0.0048114,0.0048114,0,0,0
318,0.053066,9.0293,0.0045516,0.0045516,0,0,0
319,0.053908,9.0514,0.0045148,0.0045148,0,0,0
320,0.05407,9.0794,0.0047029,0.0047029,0,0,0
321,0.053859,9.1042,0.0048154,0.0048154,0,0,0
322,0.053798,9.1321,0.0050771,0.0050771,0,0,0
323,0.053061,9.1567,0.0055277,0.0055277,0,0,0
324,0.053225,9.1822,0.0059771,0.0059771,0,0,0
325,0.053312,9.2084,0.0060149,0.0060149,0,0,0
326,0.053927,9.2363,0.0056769,0.0056769,0,0,0
327,0.054691,9.2629,0.0056013,0.0056013,0,0,0
328,0.055571,9.2861,0.0052283,0.0052283,0,0,0
329,0.05641,9.312,0.0050393,0.0050393,0,0,0
330,0.057098,9.3392,0.0051159,0.0051159,0,0,0
331,0.057485,9.3629,0.0051905,0.0051905,0,0,0
332,0.057346,9.3895,0.0051895,0.0051895,0,0,0
333,0.056977,9.4167,0.0054869,0.0054869,0,0,0
334,0.056805,9.4418,0.0060497,0.0060497,0,0,0
335,0.056588,9.4688,0.0064194,0.0064194,0,0,0
336,0.0569,9.4943,0.0067214,0.0067214,0,0,0
337,0.057698,9.5183,0.0064203,0.0064203,0,0,0
338,0.058766,9.5427,0.006157,0.006157,0,0,0
339,0.059603,9.569,0.0058966,0.0058966,0,0,0
340,0.060402,9.5956,0.0057862,0.0057862,0,0,0
341,0.061015,9.6215,0.0055615,0.0055615,0,0,0
342,0.061438,9.6462,0.0057455,0.0057455,0,0,0
343,0.061147,9.6703,0.0058548,0.0058548,0,0,0
344,0.060892,9.6966,0.0063399,0.0063399,0,0,0
345,0.060602,9.7233,0.0065267,0.0065267,0,0,0
346,0.060726,9.7506,0.0070868,0.0070868,0,0,0
347,0.061151,9.7747,0.0074224,0.0074224,0,0,0
348,0.061655,9.8019,0.0073092,0.0073092,0,0,0
349,0.06298,9.8298,0.0070104,0.0070104,0,0,0
350,0.064045,9.8533,0.0065992,0.0065992,0,0,0
351,0.064844,9.8785,0.0065644,0.0065644,0,0,0
352,0.065232,9.9038,0.0063379,0.0063379,0,0,0
353,0.06539,9.9295,0.0063379,0.0063379,0,0,0
354,0.065213,9.9539,0.0065644,0.0065644,0,0,0
355,0.065228,9.9797,0.0070848,0.0070848,0,0,0
356,0.065089,10.008,0.0073072,0.0073072,0,0,0
357,0.065326,10.028,0.0079811,0.0079811,0,0,0
358,0.065828,10.057,0.0082409,0.0082409,0,0,0
359,0.066667,10.084,0.0080912,0.0080912,0,0,0
360,0.067964,10.109,0.007867,0.007867,0,0,0
361,0.068727,10.134,0.0074939,0.0074939,0,0,0
362,0.069454,10.16,0.007196,0.007196,0,0,0
363,0.069914,10.188,0.007197,0.007197,0,0,0
364,0.070076,10.213,0.0071226,0.0071226,0,0,0
365,0.069823,10.24,0.0072328,0.0072328,0,0,0
366,0.070249,10.265,0.0076447,0.0076447,0,0,0
367,0.070301,10.289,0.0079454,0.0079454,0,0,0
368,0.070457,10.315,0.0084641,0.0084641,0,0,0
369,0.071261,10.341,0.0089132,0.0089132,0,0,0
370,0.07232,10.365,0.0090271,0.0090271,0,0,0
371,0.073195,10.393,0.0086544,0.0086544,0,0,0
372,0.073621,10.417,0.008355,0.008355,0,0,0
373,0.074155,10.443,0.0078749,0.0078749,0,0,0
374,0.074615,10.471,0.0080207,0.0080207,0,0,0
375,0.074852,10.494,0.0079116,0.0079116,0,0,0
376,0.074971,10.519,0.0080624,0.0080624,0,0,0
377,0.075691,10.547,0.0085107,0.0085107,0,0,0
378,0.075628,10.573,0.0090688,0.0090688,0,0,0
379,0.076089,10.598,0.0095542,0.0095542,0,0,0
380,0.077341,10.624,0.0098909,0.0098909,0,0,0
381,0.078026,10.65,0.010115,0.010115,0,0,0
382,0.078183,10.675,0.0095968,0.0095968,0,0,0
383,0.079128,10.699,0.0092253,0.0092253,0,0,0
384,0.079663,10.725,0.0090024,0.0090024,0,0,0
385,0.079375,10.749,0.008817,0.008817,0,0,0
386,0.079831,10.774,0.008818,0.008818,0,0,0
387,0.080927,10.798,0.0090787,0.0090787,0,0,0
388,0.081798,10.825,0.0097563,0.0097563,0,0,0
389,0.082823,10.852,0.010349,0.010349,0,0,0
390,0.083134,10.876,0.010797,0.010797,0,0,0
391,0.083595,10.904,0.011173,0.011173,0,0,0
392,0.083795,10.927,0.011098,0.011098,0,0,0
393,0.084444,10.95,0.010839,0.010839,0,0,0
394,0.084486,10.975,0.010429,0.010429,0,0,0
395,0.08502,10.997,0.010024,0.010024,0,0,0
396,0.085596,11.023,0.009879,0.009879,0,0,0
397,0.086471,11.049,0.0099899,0.0099899,0,0,0
398,0.087678,11.073,0.010402,0.010402,0,0,0
399,0.088709,11.1,0.010883,0.010883,0,0,0
400,0.089917,11.124,0.011516,0.011516,0,0,0
401,0.090152,11.149,0.012145,0.012145,0,0,0
402,0.090576,11.175,0.01244,0.01244,0,0,0
403,0.090512,11.198,0.012107,0.012107,0,0,0
404,0.090747,11.222,0.011962,0.011962,0,0,0
405,0.091054,11.248,0.01159,0.01159,0,0,0
406,0.091515,11.273,0.011333,0.011333,0,0,0
407,0.09239,11.298,0.01107,0.01107,0,0,0
408,0.093712,11.322,0.011219,0.011219,0,0,0
409,0.094775,11.349,0.01148,0.01148,0,0,0
410,0.096139,11.372,0.012332,0.012332,0,0,0
411,0.09731,11.401,0.012814,0.012814,0,0,0
412,0.097503,11.423,0.013406,0.013406,0,0,0
413,0.098148,11.447,0.013626,0.013626,0,0,0
414,0.09834,11.471,0.013626,0.013626,0,0,0
415,0.098196,11.495,0.012993,0.012993,0,0,0
416,0.098352,11.521,0.012771,0.012771,0,0,0
417,0.099224,11.544,0.012362,0.012362,0,0,0
418,0.10047,11.572,0.012363,0.012363,0,0,0
419,0.10198,11.594,0.012552,0.012552,0,0,0
420,0.10326,11.617,0.013178,0.013178,0,0,0
421,0.10451,11.642,0.01362,0.01362,0,0,0
422,0.10504,11.666,0.014248,0.014248,0,0,0
423,0.10564,11.69,0.014802,0.014802,0,0,0
424,0.10614,11.714,0.014984,0.014984,0,0,0
425,0.10648,11.739,0.015023,0.015023,0,0,0
426,0.10689,11.763,0.014616,0.014616,0,0,0
427,0.10724,11.787,0.014205,0.014205,0,0,0
428,0.10878,11.814,0.013912,0.013912,0,0,0
429,0.11018,11.837,0.013945,0.013945,0,0,0
430,0.11161,11.863,0.014168,0.014168,0,0,0
431,0.1118,11.891,0.014353,0.014353,0,0,0
432,0.1129,11.912,0.015352,0.015352,0,0,0
433,0.11369,11.934,0.015647,0.015647,0,0,0
434,0.11406,11.96,0.016236,0.016236,0,0,0
435,0.11486,11.982,0.016532,0.016532,0,0,0
436,0.11569,12.009,0.016681,0.016681,0,0,0
437,0.11671,12.032,0.016459,0.016459,0,0,0
438,0.11754,12.056,0.015866,0.015866,0,0,0
439,0.11837,12.079,0.01572,0.01572,0,0,0
440,0.11935,12.106,0.01561,0.01561,0,0,0
441,0.1203,12.13,0.015907,0.015907,0,0,0
442,0.12113,12.154,0.016349,0.016349,0,0,0
443,0.12173,12.18,0.017048,0.017048,0,0,0
444,0.1226,12.203,0.017712,0.017712,0,0,0
445,0.12377,12.228,0.01812,0.01812,0,0,0
446,0.1249,12.252,0.018415,0.018415,0,0,0
447,0.12645,12.274,0.018157,0.018157,0,0,0
448,0.12819,12.302,0.017934,0.017934,0,0,0
449,0.12917,12.324,0.017789,0.017789,0,0,0
450,0.12985,12.348,0.01768,0.01768,0,0,0
451,0.1302,12.375,0.017827,0.017827,0,0,0
452,0.13061,12.396,0.018012,0.018012,0,0,0
453,0.13122,12.42,0.018602,0.018602,0,0,0
454,0.13182,12.443,0.019302,0.019302,0,0,0
455,0.13326,12.467,0.019818,0.019818,0,0,0
456,0.13458,12.493,0.02015,0.02015,0,0,0
457,0.1365,12.518,0.020297,0.020297,0,0,0
458,0.13816,12.538,0.020153,0.020153,0,0,0
459,0.13952,12.564,0.020043,0.020043,0,0,0
460,0.14024,12.587,0.01975,0.01975,0,0,0
461,0.1411,12.609,0.019641,0.019641,0,0,0
462,0.14167,12.633,0.019787,0.019787,0,0,0
463,0.1422,12.655,0.020265,0.020265,0,0,0
464,0.14311,12.678,0.020634,0.020634,0,0,0
465,0.14405,12.702,0.021446,0.021446,0,0,0
466,0.14533,12.729,0.021994,0.021994,0,0,0
467,0.14725,12.75,0.022034,0.022034,0,0,0
468,0.14853,12.771,0.022329,0.022329,0,0,0
469,0.14981,12.795,0.022404,0.022404,0,0,0
470,0.15087,12.819,0.022147,0.022147,0,0,0
471,0.15173,12.841,0.022075,0.022075,0,0,0
472,0.15267,12.863,0.022001,0.022001,0,0,0
473,0.1538,12.884,0.022149,0.022149,0,0,0
474,0.15486,12.909,0.022631,0.022631,0,0,0
475,0.15647,12.933,0.022996,0.022996,0,0,0
476,0.15791,12.955,0.023547,0.023547,0,0,0
477,0.15915,12.979,0.023839,0.023839,0,0,0
478,0.16024,13.005,0.024207,0.024207,0,0,0
479,0.16118,13.024,0.024394,0.024394,0,0,0
480,0.16186,13.048,0.024284,0.024284,0,0,0
481,0.16284,13.067,0.024285,0.024285,0,0,0
482,0.16374,13.093,0.024323,0.024323,0,0,0
483,0.16517,13.116,0.024212,0.024212,0,0,0
484,0.16735,13.137,0.024577,0.024577,0,0,0
485,0.16953,13.159,0.024946,0.024946,0,0,0
486,0.17145,13.18,0.025456,0.025456,0,0,0
487,0.17265,13.206,0.025565,0.025565,0,0,0
488,0.17359,13.23,0.026229,0.026229,0,0,0
489,0.17408,13.253,0.026301,0.026301,0,0,0
490,0.17449,13.274,0.026557,0.026557,0,0,0
491,0.17584,13.296,0.026521,0.026521,0,0,0
492,0.17697,13.319,0.02674,0.02674,0,0,0
493,0.17858,13.342,0.026741,0.026741,0,0,0
494,0.18076,13.362,0.02685,0.02685,0,0,0
495,0.18245,13.385,0.027324,0.027324,0,0,0
496,0.18388,13.406,0.027581,0.027581,0,0,0
497,0.18542,13.429,0.027765,0.027765,0,0,0
498,0.18655,13.451,0.02813,0.02813,0,0,0
499,0.18801,13.473,0.028457,0.028457,0,0,0
500,0.18895,13.496,0.028714,0.028714,0,0,0
501,0.1903,13.521,0.028788,0.028788,0,0,0
502,0.19199,13.541,0.028967,0.028967,0,0,0
503,0.19372,13.562,0.02897,0.02897,0,0,0
504,0.19515,13.584,0.029189,0.029189,0,0,0
505,0.19661,13.607,0.029515,0.029515,0,0,0
506,0.1977,13.63,0.029879,0.029879,0,0,0
507,0.19898,13.655,0.030133,0.030133,0,0,0
508,0.1998,13.67,0.030611,0.030611,0,0,0
509,0.20153,13.693,0.030753,0.030753,0,0,0
510,0.20303,13.716,0.031154,0.031154,0,0,0
511,0.20517,13.738,0.031227,0.031227,0,0,0
512,0.20758,13.76,0.031372,0.031372,0,0,0
513,0.20949,13.778,0.031733,0.031733,0,0,0
514,0.21096,13.799,0.031882,0.031882,0,0,0
515,0.21224,13.822,0.032209,0.032209,0,0,0
516,0.21321,13.844,0.032499,0.032499,0,0,0
517,0.21408,13.865,0.03279,0.03279,0,0,0
518,0.21498,13.885,0.033189,0.033189,0,0,0
519,0.21667,13.905,0.033552,0.033552,0,0,0
520,0.21866,13.927,0.033588,0.033588,0,0,0
521,0.22088,13.952,0.034096,0.034096,0,0,0
522,0.22284,13.968,0.034168,0.034168,0,0,0
523,0.22422,13.991,0.034423,0.034423,0,0,0
524,0.22591,14.011,0.03493,0.03493,0,0,0
525,0.22745,14.03,0.035072,0.035072,0,0,0
526,0.22865,14.053,0.0354,0.0354,0,0,0
527,0.23039,14.077,0.035831,0.035831,0,0,0
528,0.23215,14.097,0.036123,0.036123,0,0,0
529,0.23414,14.118,0.036413,0.036413,0,0,0
530,0.23606,14.138,0.036779,0.036779,0,0,0
531,0.2376,14.155,0.036922,0.036922,0,0,0
532,0.23922,14.177,0.037212,0.037212,0,0,0
533,0.24008,14.197,0.037609,0.037609,0,0,0
534,0.24162,14.218,0.037755,0.037755,0,0,0
535,0.24282,14.239,0.037826,0.037826,0,0,0
536,0.24447,14.258,0.038331,0.038331,0,0,0
537,0.2465,14.277,0.038727,0.038727,0,0,0
538,0.24906,14.299,0.038982,0.038982,0,0,0
539,0.25101,14.32,0.039524,0.039524,0,0,0
540,0.253,14.34,0.039632,0.039632,0,0,0
541,0.2548,14.358,0.040138,0.040138,0,0,0
542,0.25619,14.379,0.040138,0.040138,0,0,0
543,0.25735,14.399,0.040463,0.040463,0,0,0
544,0.25866,14.418,0.040825,0.040825,0,0,0
545,0.26005,14.438,0.040895,0.040895,0,0,0
546,0.26219,14.459,0.041183,0.041183,0,0,0
547,0.2643,14.48,0.041654,0.041654,0,0,0
548,0.26633,14.497,0.042122,0.042122,0,0,0
549,0.26809,14.518,0.042301,0.042301,0,0,0
550,0.26974,14.538,0.042877,0.042877,0,0,0
551,0.2712,14.559,0.043273,0.043273,0,0,0
552,0.27297,14.579,0.043635,0.043635,0,0,0
553,0.2748,14.596,0.043814,0.043814,0,0,0
554,0.27672,14.617,0.044209,0.044209,0,0,0
555,0.27935,14.638,0.044498,0.044498,0,0,0
556,0.28186,14.656,0.044568,0.044568,0,0,0
557,0.28407,14.676,0.044891,0.044891,0,0,0
558,0.28591,14.695,0.045286,0.045286,0,0,0
559,0.28704,14.716,0.045466,0.045466,0,0,0
560,0.28876,14.739,0.046112,0.046112,0,0,0
561,0.29026,14.758,0.046614,0.046614,0,0,0
562,0.29176,14.778,0.047045,0.047045,0,0,0
563,0.29424,14.798,0.047546,0.047546,0,0,0
564,0.29682,14.816,0.047905,0.047905,0,0,0
565,0.29896,14.834,0.048119,0.048119,0,0,0
566,0.30136,14.853,0.048227,0.048227,0,0,0
567,0.30309,14.87,0.048549,0.048549,0,0,0
568,0.30492,14.89,0.049016,0.049016,0,0,0
569,0.3069,14.911,0.049336,0.049336,0,0,0
570,0.30863,14.931,0.049588,0.049588,0,0,0
571,0.31107,14.949,0.050052,0.050052,0,0,0
572,0.3137,14.969,0.050516,0.050516,0,0,0
573,0.31629,14.986,0.050874,0.050874,0,0,0
574,0.31876,15.008,0.051338,0.051338,0,0,0
575,0.32044,15.026,0.051874,0.051874,0,0,0
576,0.32172,15.043,0.051838,0.051838,0,0,0
577,0.32318,15.059,0.052338,0.052338,0,0,0
578,0.32487,15.08,0.052802,0.052802,0,0,0
579,0.32685,15.099,0.053301,0.053301,0,0,0
580,0.32929,15.117,0.053586,0.053586,0,0,0
581,0.33244,15.136,0.054156,0.054156,0,0,0
582,0.33458,15.157,0.0543,0.0543,0,0,0
583,0.33706,15.176,0.054975,0.054975,0,0,0
584,0.33901,15.192,0.055366,0.055366,0,0,0
585,0.3407,15.21,0.055721,0.055721,0,0,0
586,0.3425,15.23,0.056148,0.056148,0,0,0
587,0.34478,15.247,0.056326,0.056326,0,0,0
588,0.34737,15.266,0.056859,0.056859,0,0,0
589,0.35019,15.284,0.057426,0.057426,0,0,0
590,0.35233,15.299,0.057816,0.057816,0,0,0
591,0.35443,15.318,0.058315,0.058315,0,0,0
592,0.35612,15.339,0.058845,0.058845,0,0,0
593,0.35792,15.353,0.059164,0.059164,0,0,0
594,0.35938,15.372,0.059626,0.059626,0,0,0
595,0.36122,15.388,0.059945,0.059945,0,0,0
596,0.36377,15.41,0.060404,0.060404,0,0,0
597,0.36678,15.426,0.06076,0.06076,0,0,0
598,0.36944,15.442,0.061361,0.061361,0,0,0
599,0.37222,15.458,0.061961,0.061961,0,0,0
600,0.37409,15.477,0.062527,0.062527,0,0,0
601,0.37627,15.493,0.063022,0.063022,0,0,0
602,0.37829,15.51,0.063586,0.063586,0,0,0
603,0.38028,15.536,0.063974,0.063974,0,0,0
604,0.38242,15.544,0.064291,0.064291,0,0,0
605,0.38535,15.562,0.06461,0.06461,0,0,0
606,0.38809,15.579,0.065067,0.065067,0,0,0
607,0.39069,15.596,0.065243,0.065243,0,0,0
608,0.39248,15.612,0.065878,0.065878,0,0,0
609,0.39428,15.63,0.066334,0.066334,0,0,0
610,0.39615,15.646,0.066932,0.066932,0,0,0
611,0.39799,15.662,0.067566,0.067566,0,0,0
612,0.39983,15.679,0.068129,0.068129,0,0,0
613,0.4028,15.693,0.06841,0.06841,0,0,0
614,0.40584,15.71,0.068902,0.068902,0,0,0
615,0.40884,15.727,0.069356,0.069356,0,0,0
616,0.4112,15.744,0.069603,0.069603,0,0,0
617,0.41319,15.759,0.069779,0.069779,0,0,0
618,0.41567,15.775,0.07048,0.07048,0,0,0
619,0.41766,15.791,0.071005,0.071005,0,0,0
620,0.42009,15.808,0.071671,0.071671,0,0,0
621,0.42261,15.823,0.072231,0.072231,0,0,0
622,0.42584,15.838,0.072827,0.072827,0,0,0
623,0.4282,15.855,0.073105,0.073105,0,0,0
624,0.43056,15.871,0.073733,0.073733,0,0,0
625,0.43248,15.886,0.074256,0.074256,0,0,0
626,0.43439,15.901,0.074642,0.074642,0,0,0
627,0.43524,15.918,0.075132,0.075132,0,0,0
628,0.43847,15.936,0.075549,0.075549,0,0,0
629,0.44125,15.952,0.076211,0.076211,0,0,0
630,0.44433,15.968,0.076805,0.076805,0,0,0
631,0.44704,15.984,0.077255,0.077255,0,0,0
632,0.4503,16.001,0.077811,0.077811,0,0,0
633,0.45232,16.017,0.078195,0.078195,0,0,0
634,0.45469,16.03,0.078681,0.078681,0,0,0
635,0.45712,16.047,0.079099,0.079099,0,0,0
636,0.45964,16.062,0.07969,0.07969,0,0,0
637,0.46245,16.078,0.08014,0.08014,0,0,0
638,0.46594,16.094,0.08073,0.08073,0,0,0
639,0.4686,16.111,0.081389,0.081389,0,0,0
640,0.47127,16.125,0.082256,0.082256,0,0,0
641,0.47356,16.138,0.082704,0.082704,0,0,0
642,0.47558,16.153,0.083085,0.083085,0,0,0
643,0.47741,16.17,0.083639,0.083639,0,0,0
644,0.47989,16.189,0.084018,0.084018,0,0,0
645,0.48251,16.2,0.084398,0.084398,0,0,0
646,0.48586,16.212,0.084987,0.084987,0,0,0
647,0.48863,16.228,0.085436,0.085436,0,0,0
648,0.49126,16.244,0.085953,0.085953,0,0,0
649,0.49392,16.259,0.086816,0.086816,0,0,0
650,0.49618,16.273,0.08747,0.08747,0,0,0
651,0.49884,16.29,0.088022,0.088022,0,0,0
652,0.50131,16.302,0.088848,0.088848,0,0,0
653,0.50462,16.315,0.089191,0.089191,0,0,0
654,0.50747,16.328,0.089811,0.089811,0,0,0
655,0.51063,16.343,0.090086,0.090086,0,0,0
656,0.51367,16.359,0.090876,0.090876,0,0,0
657,0.51607,16.375,0.091357,0.091357,0,0,0
658,0.51825,16.389,0.091665,0.091665,0,0,0
659,0.5205,16.402,0.092594,0.092594,0,0,0
660,0.52312,16.417,0.093037,0.093037,0,0,0
661,0.52557,16.43,0.093791,0.093791,0,0,0
662,0.52895,16.446,0.094098,0.094098,0,0,0
663,0.5321,16.459,0.094646,0.094646,0,0,0
664,0.53461,16.475,0.095227,0.095227,0,0,0
665,0.53679,16.489,0.095945,0.095945,0,0,0
666,0.53938,16.502,0.096425,0.096425,0,0,0
667,0.54204,16.517,0.097278,0.097278,0,0,0
668,0.5449,16.53,0.097721,0.097721,0,0,0
669,0.54817,16.542,0.098198,0.098198,0,0,0
670,0.55151,16.559,0.098641,0.098641,0,0,0
671,0.55474,16.574,0.099253,0.099253,0,0,0
672,0.55774,16.587,0.099798,0.099798,0,0,0
673,0.56,16.6,0.10034,0.10034,0,0,0
674,0.56293,16.612,0.10106,0.10106,0,0,0
675,0.56525,16.624,0.1018,0.1018,0,0,0
676,0.56814,16.637,0.10272,0.10272,0,0,0
677,0.57183,16.653,0.10333,0.10333,0,0,0
678,0.57468,16.669,0.10425,0.10425,0,0,0
679,0.57813,16.681,0.10472,0.10472,0,0,0
680,0.58016,16.693,0.10526,0.10526,0,0,0
681,0.58267,16.707,0.10604,0.10604,0,0,0
682,0.58508,16.723,0.10652,0.10652,0,0,0
683,0.58782,16.734,0.10712,0.10712,0,0,0
684,0.59082,16.747,0.10783,0.10783,0,0,0
685,0.59413,16.758,0.10844,0.10844,0,0,0
686,0.59781,16.771,0.10935,0.10935,0,0,0
687,0.60108,16.785,0.10992,0.10992,0,0,0
688,0.60371,16.795,0.1107,0.1107,0,0,0
689,0.60645,16.807,0.11167,0.11167,0,0,0
690,0.6093,16.82,0.11238,0.11238,0,0,0
691,0.61216,16.834,0.11325,0.11325,0,0,0
692,0.61565,16.849,0.11389,0.11389,0,0,0
693,0.61925,16.858,0.11493,0.11493,0,0,0
694,0.62267,16.871,0.11507,0.11507,0,0,0
695,0.62575,16.887,0.1159,0.1159,0,0,0
696,0.62842,16.899,0.11661,0.11661,0,0,0
697,0.63078,16.911,0.11744,0.11744,0,0,0
698,0.63375,16.925,0.11831,0.11831,0,0,0
699,0.63693,16.935,0.11905,0.11905,0,0,0
700,0.64005,16.947,0.11978,0.11978,0,0,0
701,0.64344,16.96,0.12068,0.12068,0,0,0
702,0.64667,16.971,0.12132,0.12132,0,0,0
703,0.64963,16.985,0.12221,0.12221,0,0,0
704,0.65211,16.998,0.12285,0.12285,0,0,0
705,0.65493,17.006,0.12385,0.12385,0,0,0
706,0.65785,17.02,0.12444,0.12444,0,0,0
707,0.66127,17.033,0.12537,0.12537,0,0,0
708,0.66491,17.046,0.12614,0.12614,0,0,0
709,0.66886,17.057,0.1268,0.1268,0,0,0
710,0.67217,17.065,0.12763,0.12763,0,0,0
711,0.67514,17.079,0.12849,0.12849,0,0,0
712,0.67794,17.089,0.12895,0.12895,0,0,0
713,0.68102,17.104,0.12991,0.12991,0,0,0
714,0.68444,17.116,0.13054,0.13054,0,0,0
715,0.68763,17.126,0.13163,0.13163,0,0,0
716,0.69169,17.135,0.13222,0.13222,0,0,0
717,0.69496,17.147,0.13327,0.13327,0,0,0
718,0.69766,17.16,0.13423,0.13423,0,0,0
719,0.70048,17.172,0.13482,0.13482,0,0,0
720,0.70314,17.18,0.13561,0.13561,0,0,0
721,0.70626,17.189,0.1361,0.1361,0,0,0
722,0.7096,17.202,0.13715,0.13715,0,0,0
723,0.71329,17.213,0.13784,0.13784,0,0,0
724,0.7164,17.225,0.1385,0.1385,0,0,0
725,0.71903,17.233,0.13938,0.13938,0,0,0
726,0.72252,17.248,0.14053,0.14053,0,0,0
727,0.72564,17.257,0.14131,0.14131,0,0,0
728,0.7283,17.268,0.14222,0.14222,0,0,0
729,0.73183,17.279,0.14287,0.14287,0,0,0
730,0.73545,17.288,0.14375,0.14375,0,0,0
731,0.7395,17.299,0.1447,0.1447,0,0,0
732,0.74322,17.309,0.14548,0.14548,0,0,0
733,0.74656,17.32,0.14636,0.14636,0,0,0
734,0.74919,17.331,0.1473,0.1473,0,0,0
735,0.75261,17.342,0.14827,0.14827,0,0,0
736,0.75573,17.354,0.14905,0.14905,0,0,0
737,0.75933,17.364,0.15019,0.15019,0,0,0
738,0.76294,17.374,0.1509,0.1509,0,0,0
739,0.76719,17.383,0.1518,0.1518,0,0,0
740,0.7706,17.397,0.15274,0.15274,0,0,0
741,0.77354,17.407,0.15332,0.15332,0,0,0
742,0.77643,17.416,0.15432,0.15432,0,0,0
743,0.77985,17.428,0.15519,0.15519,0,0,0
744,0.78285,17.438,0.15625,0.15625,0,0,0
745,0.78683,17.45,0.15738,0.15738,0,0,0
746,0.79101,17.46,0.15812,0.15812,0,0,0
747,0.79476,17.469,0.15921,0.15921,0,0,0
748,0.79747,17.481,0.16011,0.16011,0,0,0
749,0.801,17.49,0.16139,0.16139,0,0,0
750,0.80454,17.503,0.16235,0.16235,0,0,0
751,0.80822,17.513,0.16299,0.16299,0,0,0
752,0.81239,17.521,0.16404,0.16404,0,0,0
753,0.8166,17.531,0.16506,0.16506,0,0,0
754,0.821,17.539,0.16605,0.16605,0,0,0
755,0.8246,17.55,0.16688,0.16688,0,0,0
756,0.82813,17.559,0.1679,0.1679,0,0,0
757,0.83144,17.57,0.16914,0.16914,0,0,0
758,0.83497,17.581,0.17031,0.17031,0,0,0
759,0.83926,17.591,0.1713,0.1713,0,0,0
760,0.84351,17.601,0.17215,0.17215,0,0,0
761,0.84801,17.609,0.17323,0.17323,0,0,0
762,0.85155,17.62,0.17421,0.17421,0,0,0
763,0.85519,17.628,0.17525,0.17525,0,0,0
764,0.85827,17.636,0.1762,0.1762,0,0,0
765,0.86203,17.646,0.17727,0.17727,0,0,0
766,0.86628,17.655,0.17824,0.17824,0,0,0
767,0.87045,17.664,0.17947,0.17947,0,0,0
768,0.87443,17.673,0.18051,0.18051,0,0,0
769,0.87827,17.684,0.18142,0.18142,0,0,0
770,0.88176,17.692,0.1828,0.1828,0,0,0
771,0.88518,17.699,0.18411,0.18411,0,0,0
772,0.88894,17.71,0.18518,0.18518,0,0,0
773,0.89323,17.719,0.1864,0.1864,0,0,0
774,0.89758,17.726,0.18768,0.18768,0,0,0
775,0.90187,17.735,0.18902,0.18902,0,0,0
776,0.90574,17.745,0.19004,0.19004,0,0,0
777,0.90961,17.751,0.1911,0.1911,0,0,0
778,0.9133,17.762,0.19247,0.19247,0,0,0
779,0.91736,17.768,0.19362,0.19362,0,0,0
780,0.92213,17.776,0.19473,0.19473,0,0,0
781,0.92649,17.784,0.19575,0.19575,0,0,0
782,0.93111,17.794,0.19724,0.19724,0,0,0
783,0.93506,17.803,0.19841,0.19841,0,0,0
784,0.93885,17.812,0.19955,0.19955,0,0,0
785,0.94287,17.82,0.20112,0.20112,0,0,0
786,0.94712,17.827,0.20226,0.20226,0,0,0
787,0.95159,17.836,0.20339,0.20339,0,0,0
788,0.95637,17.845,0.20487,0.20487,0,0,0
789,0.96058,17.848,0.20615,0.20615,0,0,0
790,0.96467,17.858,0.20768,0.20768,0,0,0
791,0.96869,17.867,0.20897,0.20897,0,0,0
792,0.97222,17.874,0.21058,0.21058,0,0,0
793,0.97647,17.882,0.21244,0.21244,0,0,0
794,0.98094,17.891,0.21384,0.21384,0,0,0
795,0.98651,17.901,0.21514,0.21514,0,0,0
796,0.99068,17.904,0.21675,0.21675,0,0,0
797,0.99467,17.912,0.21848,0.21848,0,0,0
798,0.99854,17.917,0.21984,0.21984,0,0,0
799,1.0027,17.922,0.22135,0.22135,0,0,0
800,1.0078,17.932,0.22273,0.22273,0,0,0
801,1.0126,17.937,0.22475,0.22475,0,0,0
802,1.0174,17.942,0.22631,0.22631,0,0,0
803,1.0217,17.95,0.22799,0.22799,0,0,0
804,1.0261,17.957,0.22966,0.22966,0,0,0
805,1.0302,17.961,0.23167,0.23167,0,0,0
806,1.0346,17.966,0.2334,0.2334,0,0,0
807,1.04,17.975,0.23527,0.23527,0,0,0
808,1.0453,17.978,0.237,0.237,0,0,0
809,1.0501,17.983,0.23886,0.23886,0,0,0
810,1.0543,17.989,0.24067,0.24067,0,0,0
811,1.059,17.993,0.24262,0.24262,0,0,0
812,1.0636,17.997,0.24477,0.24477,0,0,0
813,1.0686,18,0.24683,0.24683,0,0,0
814,1.0746,18.002,0.24954,0.24954,0,0,0
815,1.0802,18,0.25235,0.25235,0,0,0
816,1.0854,17.997,0.25559,0.25559,0,0,0
817,1.0913,17.983,0.25905,0.25905,0,0,0
818,1.0981,17.962,0.26388,0.26388,0,0,0
819,1.1067,17.922,0.2702,0.2702,0,0,0