File: LAB_DATA/DP780_results/DATA/CH_90_2.csv
Time[s],Displacement[mm],Force[kN],AxStrain_1,AxStrain_2,Thickness[mm],OuterWidth[mm],Diameter[mm]
0,0,-0.033657,0,0,1.4951,19.976,5
1,7.30E-05,0.023071,-0.00011901,-0.00011901,0,0,0
2,0.00044,0.097722,-0.00018302,-0.00018302,0,0,0
3,0.000439,0.15239,-0.00021702,-0.00021702,0,0,0
4,0.000643,0.19912,-4.70E-05,-4.70E-05,0,0,0
5,0.000831,0.24649,-0.00024803,-0.00024803,0,0,0
6,0.000995,0.28979,-0.00022603,-0.00022603,0,0,0
7,0.001132,0.33262,-0.00012301,-0.00012301,0,0,0
8,0.001452,0.37557,-0.00020302,-0.00020302,0,0,0
9,0.001504,0.41791,-0.00031005,-0.00031005,0,0,0
10,0.001539,0.4585,-0.0004561,-0.0004561,0,0,0
11,0.001685,0.49848,-0.00021002,-0.00021002,0,0,0
12,0.001538,0.53858,2.60E-05,2.60E-05,0,0,0
13,0.001888,0.57742,5.60E-05,5.60E-05,0,0,0
14,0.002177,0.61697,0.00017698,0.00017698,0,0,0
15,0.002273,0.65536,0.00014299,0.00014299,0,0,0
16,0.002138,0.69454,-3.00E-05,-3.00E-05,0,0,0
17,0.002224,0.73405,0.00015099,0.00015099,0,0,0
18,0.002251,0.77201,4.50E-05,4.50E-05,0,0,0
19,0.00227,0.81143,-9.40E-05,-9.40E-05,0,0,0
20,0.002277,0.85427,-4.90E-05,-4.90E-05,0,0,0
21,0.002398,0.89333,-3.00E-05,-3.00E-05,0,0,0
22,0.002601,0.93026,-0.00017301,-0.00017301,0,0,0
23,0.002661,0.97173,-0.00015801,-0.00015801,0,0,0
24,0.003256,1.0107,0.00014299,0.00014299,0,0,0
25,0.003298,1.05,-7.00E-06,-7.00E-06,0,0,0
26,0.003825,1.0886,0.00010899,0.00010899,0,0,0
27,0.003818,1.125,0.00029796,0.00029796,0,0,0
28,0.00372,1.1618,0.00022597,0.00022597,0,0,0
29,0.003679,1.1983,0.00033894,0.00033894,0,0,0
30,0.003751,1.2351,6.80E-05,6.80E-05,0,0,0
31,0.003586,1.2714,0.00016999,0.00016999,0,0,0
32,0.003666,1.3073,-8.20E-05,-8.20E-05,0,0,0
33,0.003805,1.3464,0.00013599,0.00013599,0,0,0
34,0.004167,1.3811,2.30E-05,2.30E-05,0,0,0
35,0.004536,1.4123,0.00013999,0.00013999,0,0,0
36,0.00526,1.4463,0.00013599,0.00013599,0,0,0
37,0.005298,1.4805,0.00023397,0.00023397,0,0,0
38,0.005543,1.5156,0.00020398,0.00020398,0,0,0
39,0.005378,1.5461,0.00028596,0.00028596,0,0,0
40,0.005179,1.5797,0.00019598,0.00019598,0,0,0
41,0.004981,1.6115,0.00030495,0.00030495,0,0,0
42,0.004793,1.6431,0.00027196,0.00027196,0,0,0
43,0.004824,1.6781,7.20E-05,7.20E-05,0,0,0
44,0.005032,1.7072,1.60E-05,1.60E-05,0,0,0
45,0.005491,1.7375,6.40E-05,6.40E-05,0,0,0
46,0.005966,1.7678,4.90E-05,4.90E-05,0,0,0
47,0.006238,1.8011,0.00012099,0.00012099,0,0,0
48,0.006611,1.8316,0.00021498,0.00021498,0,0,0
49,0.007173,1.8617,0.00020698,0.00020698,0,0,0
50,0.00699,1.8947,0.0004409,0.0004409,0,0,0
51,0.006701,1.9255,0.00039992,0.00039992,0,0,0
52,0.00651,1.9563,0.00028296,0.00028296,0,0,0
53,0.006192,1.9848,0.00018198,0.00018198,0,0,0
54,0.006046,2.0139,0.00020798,0.00020798,0,0,0
55,0.006116,2.0432,0.00038493,0.00038493,0,0,0
56,0.006437,2.074,4.20E-05,4.20E-05,0,0,0
57,0.007026,2.106,0.00030595,0.00030595,0,0,0
58,0.007743,2.1349,0.00011799,0.00011799,0,0,0
59,0.008215,2.1637,0.00033194,0.00033194,0,0,0
60,0.008228,2.1945,0.00060682,0.00060682,0,0,0
61,0.008045,2.2233,0.00057284,0.00057284,0,0,0
62,0.008047,2.2495,0.0006368,0.0006368,0,0,0
63,0.007736,2.278,0.00053885,0.00053885,0,0,0
64,0.007527,2.3106,0.00055485,0.00055485,0,0,0
65,0.007672,2.3389,0.0004459,0.0004459,0,0,0
66,0.007652,2.367,0.00041591,0.00041591,0,0,0
67,0.00812,2.3961,0.00022098,0.00022098,0,0,0
68,0.008735,2.4263,0.00046489,0.00046489,0,0,0
69,0.009177,2.4569,0.00054785,0.00054785,0,0,0
70,0.009856,2.4832,0.00038193,0.00038193,0,0,0
71,0.009734,2.5098,0.00068776,0.00068776,0,0,0
72,0.009491,2.5378,0.00067577,0.00067577,0,0,0
73,0.009527,2.5658,0.00070275,0.00070275,0,0,0
74,0.009044,2.5952,0.00073373,0.00073373,0,0,0
75,0.008956,2.6251,0.00080068,0.00080068,0,0,0
76,0.008977,2.6541,0.00060981,0.00060981,0,0,0
77,0.008923,2.6792,0.00058383,0.00058383,0,0,0
78,0.009333,2.7082,0.00046689,0.00046689,0,0,0
79,0.010069,2.7338,0.00039992,0.00039992,0,0,0
80,0.010675,2.7609,0.00041391,0.00041391,0,0,0
81,0.011255,2.7884,0.00045989,0.00045989,0,0,0
82,0.011445,2.8186,0.00048988,0.00048988,0,0,0
83,0.011558,2.8456,0.00056784,0.00056784,0,0,0
84,0.011166,2.8691,0.00073373,0.00073373,0,0,0
85,0.010816,2.8959,0.00073373,0.00073373,0,0,0
86,0.01065,2.9227,0.0006358,0.0006358,0,0,0
87,0.010378,2.9516,0.00065479,0.00065479,0,0,0
88,0.010548,2.9762,0.00064279,0.00064279,0,0,0
89,0.010637,3.0029,0.00059083,0.00059083,0,0,0
90,0.011144,3.0321,0.00043291,0.00043291,0,0,0
91,0.011863,3.0586,0.00054185,0.00054185,0,0,0
92,0.012535,3.085,0.00041791,0.00041791,0,0,0
93,0.012896,3.1095,0.00028596,0.00028596,0,0,0
94,0.013088,3.1379,0.00075272,0.00075272,0,0,0
95,0.012745,3.1641,0.00071874,0.00071874,0,0,0
96,0.012464,3.1885,0.0008996,0.0008996,0,0,0
97,0.01176,3.2165,0.00086263,0.00086263,0,0,0
98,0.011538,3.2409,0.00082866,0.00082866,0,0,0
99,0.011407,3.2693,0.00081767,0.00081767,0,0,0
100,0.011731,3.2945,0.00067177,0.00067177,0,0,0
101,0.012094,3.322,0.00076571,0.00076571,0,0,0
102,0.012728,3.3501,0.00066778,0.00066778,0,0,0
103,0.013605,3.3776,0.00068377,0.00068377,0,0,0
104,0.014228,3.4073,0.00064979,0.00064979,0,0,0
105,0.014383,3.4324,0.00072074,0.00072074,0,0,0
106,0.014185,3.4594,0.00092957,0.00092957,0,0,0
107,0.013592,3.4838,0.0011214,0.0011214,0,0,0
108,0.013387,3.5108,0.0013171,0.0013171,0,0,0
109,0.013207,3.5372,0.001404,0.001404,0,0,0
110,0.013144,3.5666,0.0012852,0.0012852,0,0,0
111,0.013168,3.5928,0.0010594,0.0010594,0,0,0
112,0.013508,3.615,0.00092158,0.00092158,0,0,0
113,0.014098,3.6431,0.00075272,0.00075272,0,0,0
114,0.014776,3.6701,0.00072674,0.00072674,0,0,0
115,0.015308,3.6962,0.00068976,0.00068976,0,0,0
116,0.01599,3.7232,0.00078669,0.00078669,0,0,0
117,0.01577,3.749,0.00074372,0.00074372,0,0,0
118,0.015181,3.7766,0.00087062,0.00087062,0,0,0
119,0.01484,3.8033,0.0011104,0.0011104,0,0,0
120,0.014094,3.8292,0.0012093,0.0012093,0,0,0
121,0.014062,3.8555,0.0012153,0.0012153,0,0,0
122,0.013917,3.8826,0.00099051,0.00099051,0,0,0
123,0.014638,3.91,0.00091558,0.00091558,0,0,0
124,0.014872,3.9352,0.00098951,0.00098951,0,0,0
125,0.016121,3.9607,0.00068876,0.00068876,0,0,0
126,0.016805,3.9863,0.00061381,0.00061381,0,0,0
127,0.017112,4.0127,0.00065079,0.00065079,0,0,0
128,0.01727,4.037,0.00083765,0.00083765,0,0,0
129,0.017051,4.0655,0.00098851,0.00098851,0,0,0
130,0.016606,4.0895,0.0011014,0.0011014,0,0,0
131,0.016161,4.1186,0.0013641,0.0013641,0,0,0
132,0.015791,4.1452,0.001439,0.001439,0,0,0
133,0.015496,4.1702,0.0013641,0.0013641,0,0,0
134,0.015953,4.195,0.0013651,0.0013651,0,0,0
135,0.016487,4.2175,0.0012143,0.0012143,0,0,0
136,0.017095,4.2455,0.0011024,0.0011024,0,0,0
137,0.017738,4.2726,0.00099051,0.00099051,0,0,0
138,0.018687,4.2982,0.00099051,0.00099051,0,0,0
139,0.018692,4.3217,0.0011044,0.0011044,0,0,0
140,0.018512,4.3494,0.0011793,0.0011793,0,0,0
141,0.018179,4.3742,0.0011803,0.0011803,0,0,0
142,0.017586,4.4007,0.001407,0.001407,0,0,0
143,0.01718,4.4261,0.0015568,0.0015568,0,0,0
144,0.017037,4.4524,0.0014839,0.0014839,0,0,0
145,0.016932,4.4806,0.0017475,0.0017475,0,0,0
146,0.017505,4.5042,0.0016736,0.0016736,0,0,0
147,0.018118,4.5302,0.0013371,0.0013371,0,0,0
148,0.019254,4.5553,0.0013751,0.0013751,0,0,0
149,0.019564,4.5804,0.0013022,0.0013022,0,0,0
150,0.020136,4.6077,0.0011144,0.0011144,0,0,0
151,0.020144,4.6332,0.0011174,0.0011174,0,0,0
152,0.019851,4.6549,0.0012282,0.0012282,0,0,0
153,0.019408,4.6825,0.0014549,0.0014549,0,0,0
154,0.019152,4.7065,0.0016816,0.0016816,0,0,0
155,0.01867,4.732,0.0016047,0.0016047,0,0,0
156,0.018414,4.7578,0.0016816,0.0016816,0,0,0
157,0.018647,4.7809,0.0016786,0.0016786,0,0,0
158,0.019105,4.8036,0.0016417,0.0016417,0,0,0
159,0.019903,4.8308,0.001414,0.001414,0,0,0
160,0.020663,4.8574,0.001412,0.001412,0,0,0
161,0.021084,4.8814,0.0013371,0.0013371,0,0,0
162,0.021507,4.9052,0.0011863,0.0011863,0,0,0
163,0.021704,4.9291,0.0011493,0.0011493,0,0,0
164,0.021374,4.9558,0.0011863,0.0011863,0,0,0
165,0.020783,4.9773,0.0013361,0.0013361,0,0,0
166,0.020304,5.0025,0.0013731,0.0013731,0,0,0
167,0.019901,5.0271,0.0017874,0.0017874,0,0,0
168,0.020099,5.0523,0.0017495,0.0017495,0,0,0
169,0.020298,5.078,0.0019371,0.0019371,0,0,0
170,0.020948,5.1008,0.0019002,0.0019002,0,0,0
171,0.021671,5.1243,0.0016756,0.0016756,0,0,0
172,0.022433,5.1507,0.0016766,0.0016766,0,0,0
173,0.022891,5.1757,0.0015268,0.0015268,0,0,0
174,0.023125,5.2006,0.0014529,0.0014529,0,0,0
175,0.02321,5.2271,0.0014539,0.0014539,0,0,0
176,0.022994,5.2505,0.001418,0.001418,0,0,0
177,0.022589,5.2755,0.0015308,0.0015308,0,0,0
178,0.022182,5.3011,0.0017215,0.0017215,0,0,0
179,0.021774,5.3249,0.0018353,0.0018353,0,0,0
180,0.021444,5.3515,0.0021387,0.0021387,0,0,0
181,0.021569,5.3763,0.0020259,0.0020259,0,0,0
182,0.022554,5.401,0.001992,0.001992,0,0,0
183,0.022827,5.4268,0.0022185,0.0022185,0,0,0
184,0.024006,5.4496,0.0018453,0.0018453,0,0,0
185,0.024507,5.4778,0.0015827,0.0015827,0,0,0
186,0.024667,5.5029,0.0015458,0.0015458,0,0,0
187,0.024755,5.5285,0.0013211,0.0013211,0,0,0
188,0.024618,5.5529,0.0012822,0.0012822,0,0,0
189,0.023763,5.5775,0.0012812,0.0012812,0,0,0
190,0.023401,5.5997,0.001431,0.001431,0,0,0
191,0.023524,5.6241,0.0018054,0.0018054,0,0,0
192,0.023197,5.6492,0.0019541,0.0019541,0,0,0
193,0.023547,5.6748,0.001991,0.001991,0,0,0
194,0.024382,5.6984,0.0023642,0.0023642,0,0,0
195,0.024957,5.7244,0.0017255,0.0017255,0,0,0
196,0.025643,5.7496,0.0018752,0.0018752,0,0,0
197,0.02569,5.7725,0.0018004,0.0018004,0,0,0
198,0.026077,5.7963,0.0017245,0.0017245,0,0,0
199,0.025935,5.8225,0.0015748,0.0015748,0,0,0
200,0.025758,5.8453,0.0016107,0.0016107,0,0,0
201,0.025807,5.8739,0.0015358,0.0015358,0,0,0
202,0.025329,5.895,0.0017604,0.0017604,0,0,0
203,0.0247,5.9178,0.001986,0.001986,0,0,0
204,0.024749,5.9436,0.0020609,0.0020609,0,0,0
205,0.025061,5.968,0.0024001,0.0024001,0,0,0
206,0.025791,5.9924,0.0024759,0.0024759,0,0,0
207,0.026781,6.0182,0.0023652,0.0023652,0,0,0
208,0.027058,6.0441,0.002441,0.002441,0,0,0
209,0.027411,6.0663,0.0023293,0.0023293,0,0,0
210,0.027763,6.0908,0.0021048,0.0021048,0,0,0
211,0.027362,6.1142,0.001994,0.001994,0,0,0
212,0.027713,6.139,0.0018443,0.0018443,0,0,0
213,0.02705,6.1634,0.0020349,0.0020349,0,0,0
214,0.026948,6.1904,0.0020369,0.0020369,0,0,0
215,0.026812,6.2127,0.0021896,0.0021896,0,0,0
216,0.02686,6.2371,0.0023782,0.0023782,0,0,0
217,0.027171,6.2624,0.0026056,0.0026056,0,0,0
218,0.028046,6.2878,0.0027961,0.0027961,0,0,0
219,0.028547,6.3119,0.0027612,0.0027612,0,0,0
220,0.029008,6.3388,0.002464,0.002464,0,0,0
221,0.02921,6.3646,0.0023901,0.0023901,0,0,0
222,0.029486,6.3911,0.0025039,0.0025039,0,0,0
223,0.029458,6.4122,0.0020918,0.0020918,0,0,0
224,0.028868,6.434,0.0021297,0.0021297,0,0,0
225,0.02892,6.4588,0.0021667,0.0021667,0,0,0
226,0.028406,6.4829,0.0020918,0.0020918,0,0,0
227,0.028195,6.5076,0.0021657,0.0021657,0,0,0
228,0.02836,6.532,0.002466,0.002466,0,0,0
229,0.028823,6.5563,0.002428,0.002428,0,0,0
230,0.029628,6.5823,0.0028041,0.0028041,0,0,0
231,0.030059,6.608,0.0029875,0.0029875,0,0,0
232,0.030638,6.6297,0.0027243,0.0027243,0,0,0
233,0.030916,6.6551,0.0024969,0.0024969,0,0,0
234,0.031231,6.679,0.002459,0.002459,0,0,0
235,0.030984,6.7034,0.0023073,0.0023073,0,0,0
236,0.03058,6.7289,0.0021936,0.0021936,0,0,0
237,0.030632,6.7506,0.0021178,0.0021178,0,0,0
238,0.030457,6.7759,0.0022285,0.0022285,0,0,0
239,0.03028,6.8006,0.0023812,0.0023812,0,0,0
240,0.030856,6.8233,0.0026405,0.0026405,0,0,0
241,0.031321,6.8507,0.0027921,0.0027921,0,0,0
242,0.031781,6.8731,0.0029776,0.0029776,0,0,0
243,0.032058,6.898,0.0032786,0.0032786,0,0,0
244,0.032222,6.923,0.0032397,0.0032397,0,0,0
245,0.032495,6.9482,0.0029796,0.0029796,0,0,0
246,0.032698,6.9753,0.0029427,0.0029427,0,0,0
247,0.032481,6.9988,0.0027183,0.0027183,0,0,0
248,0.032458,7.0235,0.002455,0.002455,0,0,0
249,0.032093,7.0496,0.0026076,0.0026076,0,0,0
250,0.032145,7.0731,0.0023433,0.0023433,0,0,0
251,0.032309,7.096,0.0027582,0.0027582,0,0,0
252,0.032926,7.1192,0.0027971,0.0027971,0,0,0
253,0.03339,7.145,0.0030962,0.0030962,0,0,0
254,0.03348,7.1714,0.0033594,0.0033594,0,0,0
255,0.033947,7.1986,0.003473,0.003473,0,0,0
256,0.034305,7.2199,0.0034371,0.0034371,0,0,0
257,0.034318,7.244,0.0029915,0.0029915,0,0,0
258,0.034372,7.2711,0.0028789,0.0028789,0,0,0
259,0.034723,7.2974,0.0028081,0.0028081,0,0,0
260,0.034477,7.3231,0.0025817,0.0025817,0,0,0
261,0.034417,7.345,0.0027373,0.0027373,0,0,0
262,0.034658,7.3704,0.002812,0.002812,0,0,0
263,0.035047,7.3973,0.0028908,0.0028908,0,0,0
264,0.035172,7.4251,0.0031919,0.0031919,0,0,0
265,0.035788,7.4474,0.0034191,0.0034191,0,0,0
266,0.035802,7.4731,0.0037231,0.0037231,0,0,0
267,0.03581,7.4961,0.0036115,0.0036115,0,0,0
268,0.036464,7.5225,0.0036922,0.0036922,0,0,0
269,0.036403,7.5461,0.0033902,0.0033902,0,0,0
270,0.036415,7.5709,0.0031331,0.0031331,0,0,0
271,0.036502,7.5981,0.0030962,0.0030962,0,0,0
272,0.036779,7.623,0.0028709,0.0028709,0,0,0
273,0.0366,7.6476,0.0030224,0.0030224,0,0,0
274,0.036765,7.6727,0.0031371,0.0031371,0,0,0
275,0.037151,7.6998,0.0032108,0.0032108,0,0,0
276,0.037579,7.7251,0.0035118,0.0035118,0,0,0
277,0.037441,7.7483,0.0038117,0.0038117,0,0,0
278,0.037681,7.7747,0.0037719,0.0037719,0,0,0
279,0.037881,7.7988,0.0037739,0.0037739,0,0,0
280,0.038121,7.8248,0.003738,0.003738,0,0,0
281,0.038249,7.8466,0.003475,0.003475,0,0,0
282,0.038147,7.8723,0.0031779,0.0031779,0,0,0
283,0.038649,7.8988,0.0030992,0.0030992,0,0,0
284,0.038815,7.9227,0.0030623,0.0030623,0,0,0
285,0.039092,7.9485,0.003174,0.003174,0,0,0
286,0.039411,7.9731,0.0032477,0.0032477,0,0,0
287,0.039424,8.0003,0.0036972,0.0036972,0,0,0
288,0.039705,8.0236,0.0037699,0.0037699,0,0,0
289,0.039833,8.0473,0.0040697,0.0040697,0,0,0
290,0.040111,8.0722,0.0042908,0.0042908,0,0,0
291,0.040504,8.098,0.0040677,0.0040677,0,0,0
292,0.040289,8.1256,0.0039153,0.0039153,0,0,0
293,0.041057,8.1514,0.0035816,0.0035816,0,0,0
294,0.04126,8.1755,0.003465,0.003465,0,0,0
295,0.041687,8.2011,0.0033902,0.0033902,0,0,0
296,0.041966,8.2264,0.003463,0.003463,0,0,0
297,0.041864,8.2506,0.0036872,0.0036872,0,0,0
298,0.04203,8.2776,0.003985,0.003985,0,0,0
299,0.041743,8.3025,0.0041753,0.0041753,0,0,0
300,0.042092,8.3254,0.0047009,0.0047009,0,0,0
301,0.042595,8.3502,0.0045835,0.0045835,0,0,0
302,0.042758,8.3763,0.0046581,0.0046581,0,0,0
303,0.04337,8.4017,0.0043943,0.0043943,0,0,0
304,0.043534,8.4298,0.0040976,0.0040976,0,0,0
305,0.044296,8.4553,0.0038695,0.0038695,0,0,0
306,0.044836,8.4825,0.0038346,0.0038346,0,0,0
307,0.04511,8.5083,0.0039452,0.0039452,0,0,0
308,0.044785,8.5339,0.0040209,0.0040209,0,0,0
309,0.044648,8.5576,0.0039801,0.0039801,0,0,0
310,0.044697,8.5817,0.0045048,0.0045048,0,0,0
311,0.044786,8.609,0.0047676,0.0047676,0,0,0
312,0.044913,8.6359,0.005478,0.005478,0,0,0
313,0.045375,8.661,0.0052552,0.0052552,0,0,0
314,0.045874,8.6856,0.0048821,0.0048821,0,0,0
315,0.046564,8.7104,0.0048094,0.0048094,0,0,0
316,0.047181,8.7366,0.004472,0.004472,0,0,0
317,0.04776,8.7627,0.0043207,0.0043207,0,0,0
318,0.047772,8.7883,0.0041703,0.0041703,0,0,0
319,0.047713,8.8147,0.0042838,0.0042838,0,0,0
320,0.047351,8.841,0.0047328,0.0047328,0,0,0
321,0.047516,8.8659,0.0050323,0.0050323,0,0,0
322,0.047458,8.8915,0.0054839,0.0054839,0,0,0
323,0.047846,8.9144,0.0057087,0.0057087,0,0,0
324,0.048009,8.9403,0.005822,0.005822,0,0,0
325,0.049116,8.9653,0.0055635,0.0055635,0,0,0
326,0.049396,8.9896,0.0050761,0.0050761,0,0,0
327,0.050727,9.0167,0.0047427,0.0047427,0,0,0
328,0.051118,9.043,0.0048184,0.0048184,0,0,0
329,0.051319,9.0672,0.0045934,0.0045934,0,0,0
330,0.051222,9.0929,0.0047835,0.0047835,0,0,0
331,0.050523,9.1193,0.0051925,0.0051925,0,0,0
332,0.050684,9.1459,0.0054193,0.0054193,0,0,0
333,0.050548,9.1722,0.0059821,0.0059821,0,0,0
334,0.051463,9.1979,0.0065455,0.0065455,0,0,0
335,0.052002,9.223,0.0063985,0.0063985,0,0,0
336,0.052201,9.2486,0.0062494,0.0062494,0,0,0
337,0.053534,9.2724,0.0057335,0.0057335,0,0,0
338,0.053994,9.2963,0.005478,0.005478,0,0,0
339,0.0546,9.3242,0.0053079,0.0053079,0,0,0
340,0.05424,9.3524,0.0051925,0.0051925,0,0,0
341,0.05388,9.376,0.0052661,0.0052661,0,0,0
342,0.054043,9.3991,0.0054531,0.0054531,0,0,0
343,0.053673,9.4253,0.0059403,0.0059403,0,0,0
344,0.054328,9.4526,0.0065763,0.0065763,0,0,0
345,0.053812,9.4779,0.0069885,0.0069885,0,0,0
346,0.05525,9.5025,0.0067661,0.0067661,0,0,0
347,0.055711,9.5274,0.0068435,0.0068435,0,0,0
348,0.05765,9.5528,0.0063577,0.0063577,0,0,0
349,0.058409,9.5782,0.0061332,0.0061332,0,0,0
350,0.057595,9.6026,0.0057574,0.0057574,0,0,0
351,0.058248,9.6281,0.0059453,0.0059453,0,0,0
352,0.057848,9.6533,0.0060169,0.0060169,0,0,0
353,0.057559,9.6812,0.006314,0.006314,0,0,0
354,0.056783,9.7058,0.0066806,0.0066806,0,0,0
355,0.057741,9.7298,0.0071325,0.0071325,0,0,0
356,0.058196,9.7564,0.0076943,0.0076943,0,0,0
357,0.059197,9.7805,0.0076507,0.0076507,0,0,0
358,0.060414,9.806,0.0072775,0.0072775,0,0,0
359,0.061297,9.8339,0.0068207,0.0068207,0,0,0
360,0.062392,9.8575,0.0065982,0.0065982,0,0,0
361,0.062712,9.8861,0.0065634,0.0065634,0,0,0
362,0.062347,9.9099,0.0065217,0.0065217,0,0,0
363,0.06221,9.9356,0.0065555,0.0065555,0,0,0
364,0.06181,9.9605,0.0068525,0.0068525,0,0,0
365,0.061854,9.9837,0.0074125,0.0074125,0,0,0
366,0.062393,10.009,0.0078957,0.0078957,0,0,0
367,0.063192,10.036,0.0084512,0.0084512,0,0,0
368,0.063953,10.061,0.0084532,0.0084532,0,0,0
369,0.064982,10.087,0.0083064,0.0083064,0,0,0
370,0.065893,10.114,0.0079305,0.0079305,0,0,0
371,0.066432,10.137,0.0074472,0.0074472,0,0,0
372,0.066701,10.162,0.0072973,0.0072973,0,0,0
373,0.066636,10.19,0.0072576,0.0072576,0,0,0
374,0.066798,10.217,0.0075554,0.0075554,0,0,0
375,0.066882,10.241,0.0078928,0.0078928,0,0,0
376,0.066853,10.267,0.0083748,0.0083748,0,0,0
377,0.067573,10.29,0.0089389,0.0089389,0,0,0
378,0.068523,10.313,0.0092739,0.0092739,0,0,0
379,0.06943,10.341,0.0093898,0.0093898,0,0,0
380,0.070118,10.367,0.0091312,0.0091312,0,0,0
381,0.070507,10.392,0.0086832,0.0086832,0,0,0
382,0.071159,10.424,0.0083114,0.0083114,0,0,0
383,0.071205,10.443,0.0080892,0.0080892,0,0,0
384,0.071701,10.468,0.0080178,0.0080178,0,0,0
385,0.071754,10.491,0.0083847,0.0083847,0,0,0
386,0.072061,10.514,0.0086108,0.0086108,0,0,0
387,0.072368,10.541,0.0092867,0.0092867,0,0,0
388,0.073213,10.567,0.0098028,0.0098028,0,0,0
389,0.073899,10.593,0.010138,0.010138,0,0,0
390,0.07466,10.618,0.010174,0.010174,0,0,0
391,0.075573,10.644,0.0098493,0.0098493,0,0,0
392,0.075885,10.668,0.0093036,0.0093036,0,0,0
393,0.076276,10.694,0.0089687,0.0089687,0,0,0
394,0.076624,10.722,0.0089746,0.0089746,0,0,0
395,0.077462,10.743,0.0090846,0.0090846,0,0,0
396,0.077882,10.771,0.0090915,0.0090915,0,0,0
397,0.078501,10.795,0.0094274,0.0094274,0,0,0
398,0.079109,10.818,0.010248,0.010248,0,0,0
399,0.079756,10.844,0.010808,0.010808,0,0,0
400,0.07995,10.868,0.011405,0.011405,0,0,0
401,0.080559,10.892,0.011406,0.011406,0,0,0
402,0.080985,10.919,0.010923,0.010923,0,0,0
403,0.081704,10.948,0.01044,0.01044,0,0,0
404,0.082019,10.971,0.0098444,0.0098444,0,0,0
405,0.082768,10.992,0.0099899,0.0099899,0,0,0
406,0.083528,11.018,0.0099167,0.0099167,0,0,0
407,0.084702,11.045,0.010249,0.010249,0,0,0
408,0.085838,11.07,0.010509,0.010509,0,0,0
409,0.086258,11.096,0.011435,0.011435,0,0,0
410,0.086492,11.12,0.01199,0.01199,0,0,0
411,0.08684,11.145,0.012323,0.012323,0,0,0
412,0.086918,11.171,0.012215,0.012215,0,0,0
413,0.087226,11.195,0.01191,0.01191,0,0,0
414,0.08761,11.219,0.011616,0.011616,0,0,0
415,0.08848,11.241,0.011233,0.011233,0,0,0
416,0.089276,11.266,0.011047,0.011047,0,0,0
417,0.090863,11.294,0.011228,0.011228,0,0,0
418,0.091776,11.318,0.011414,0.011414,0,0,0
419,0.093058,11.342,0.012083,0.012083,0,0,0
420,0.093707,11.369,0.012597,0.012597,0,0,0
421,0.094132,11.392,0.013191,0.013191,0,0,0
422,0.093913,11.417,0.013525,0.013525,0,0,0
423,0.093962,11.441,0.013561,0.013561,0,0,0
424,0.094308,11.465,0.013225,0.013225,0,0,0
425,0.094881,11.49,0.013042,0.013042,0,0,0
426,0.095824,11.515,0.012707,0.012707,0,0,0
427,0.09742,11.54,0.01252,0.01252,0,0,0
428,0.098521,11.562,0.012483,0.012483,0,0,0
429,0.10018,11.586,0.013003,0.013003,0,0,0
430,0.10106,11.61,0.013632,0.013632,0,0,0
431,0.10144,11.637,0.014299,0.014299,0,0,0
432,0.10194,11.659,0.014602,0.014602,0,0,0
433,0.10217,11.685,0.01508,0.01508,0,0,0
434,0.10218,11.71,0.01516,0.01516,0,0,0
435,0.1023,11.733,0.014791,0.014791,0,0,0
436,0.10314,11.76,0.014535,0.014535,0,0,0
437,0.10551,11.785,0.014317,0.014317,0,0,0
438,0.10612,11.812,0.014056,0.014056,0,0,0
439,0.10743,11.835,0.01432,0.01432,0,0,0
440,0.10857,11.857,0.014395,0.014395,0,0,0
441,0.10917,11.884,0.015139,0.015139,0,0,0
442,0.10993,11.909,0.015882,0.015882,0,0,0
443,0.11053,11.932,0.016478,0.016478,0,0,0
444,0.11098,11.956,0.016556,0.016556,0,0,0
445,0.11159,11.98,0.016636,0.016636,0,0,0
446,0.11283,12.005,0.016227,0.016227,0,0,0
447,0.11362,12.03,0.016265,0.016265,0,0,0
448,0.1146,12.055,0.015716,0.015716,0,0,0
449,0.11532,12.082,0.015566,0.015566,0,0,0
450,0.11641,12.104,0.016122,0.016122,0,0,0
451,0.11713,12.131,0.016342,0.016342,0,0,0
452,0.11823,12.154,0.017046,0.017046,0,0,0
453,0.11913,12.177,0.017485,0.017485,0,0,0
454,0.11988,12.2,0.018006,0.018006,0,0,0
455,0.12165,12.222,0.018262,0.018262,0,0,0
456,0.12308,12.25,0.0183,0.0183,0,0,0
457,0.1241,12.274,0.018039,0.018039,0,0,0
458,0.12455,12.3,0.017412,0.017412,0,0,0
459,0.12538,12.322,0.017524,0.017524,0,0,0
460,0.12572,12.345,0.017667,0.017667,0,0,0
461,0.12633,12.371,0.017995,0.017995,0,0,0
462,0.12697,12.39,0.01829,0.01829,0,0,0
463,0.1281,12.415,0.018766,0.018766,0,0,0
464,0.12957,12.438,0.019502,0.019502,0,0,0
465,0.131,12.462,0.019939,0.019939,0,0,0
466,0.13289,12.487,0.020158,0.020158,0,0,0
467,0.13417,12.509,0.02019,0.02019,0,0,0
468,0.13564,12.534,0.020008,0.020008,0,0,0
469,0.13621,12.559,0.019821,0.019821,0,0,0
470,0.13652,12.584,0.01952,0.01952,0,0,0
471,0.13709,12.606,0.01978,0.01978,0,0,0
472,0.13751,12.626,0.02018,0.02018,0,0,0
473,0.13845,12.649,0.020699,0.020699,0,0,0
474,0.13969,12.673,0.021064,0.021064,0,0,0
475,0.14131,12.697,0.021541,0.021541,0,0,0
476,0.14327,12.721,0.022092,0.022092,0,0,0
477,0.14471,12.743,0.02246,0.02246,0,0,0
478,0.14576,12.766,0.022202,0.022202,0,0,0
479,0.14719,12.789,0.022125,0.022125,0,0,0
480,0.14805,12.811,0.022201,0.022201,0,0,0
481,0.14911,12.836,0.022089,0.022089,0,0,0
482,0.15002,12.857,0.022236,0.022236,0,0,0
483,0.15096,12.881,0.022642,0.022642,0,0,0
484,0.15212,12.904,0.022863,0.022863,0,0,0
485,0.15325,12.927,0.023523,0.023523,0,0,0
486,0.15471,12.951,0.023964,0.023964,0,0,0
487,0.15554,12.972,0.024259,0.024259,0,0,0
488,0.15675,12.994,0.024626,0.024626,0,0,0
489,0.15731,13.019,0.024595,0.024595,0,0,0
490,0.1587,13.042,0.024886,0.024886,0,0,0
491,0.15994,13.062,0.024707,0.024707,0,0,0
492,0.16159,13.085,0.024784,0.024784,0,0,0
493,0.16314,13.11,0.025143,0.025143,0,0,0
494,0.1649,13.13,0.025258,0.025258,0,0,0
495,0.16644,13.152,0.025551,0.025551,0,0,0
496,0.16724,13.174,0.025844,0.025844,0,0,0
497,0.16836,13.197,0.026318,0.026318,0,0,0
498,0.16866,13.22,0.026688,0.026688,0,0,0
499,0.16956,13.242,0.027163,0.027163,0,0,0
500,0.17068,13.27,0.027272,0.027272,0,0,0
501,0.17189,13.287,0.027275,0.027275,0,0,0
502,0.17376,13.308,0.027462,0.027462,0,0,0
503,0.17572,13.333,0.027681,0.027681,0,0,0
504,0.17771,13.353,0.027867,0.027867,0,0,0
505,0.17917,13.375,0.027939,0.027939,0,0,0
506,0.18059,13.396,0.028271,0.028271,0,0,0
507,0.18161,13.418,0.02856,0.02856,0,0,0
508,0.18255,13.439,0.028964,0.028964,0,0,0
509,0.18341,13.464,0.029151,0.029151,0,0,0
510,0.18472,13.485,0.029478,0.029478,0,0,0
511,0.18581,13.507,0.029953,0.029953,0,0,0
512,0.18738,13.528,0.030027,0.030027,0,0,0
513,0.18941,13.546,0.03014,0.03014,0,0,0
514,0.19061,13.571,0.030323,0.030323,0,0,0
515,0.19208,13.593,0.03065,0.03065,0,0,0
516,0.19343,13.613,0.03076,0.03076,0,0,0
517,0.19471,13.635,0.030942,0.030942,0,0,0
518,0.19628,13.657,0.031305,0.031305,0,0,0
519,0.19778,13.677,0.031558,0.031558,0,0,0
520,0.19952,13.699,0.032104,0.032104,0,0,0
521,0.20151,13.722,0.032433,0.032433,0,0,0
522,0.20354,13.739,0.032506,0.032506,0,0,0
523,0.20516,13.763,0.033088,0.033088,0,0,0
524,0.2058,13.784,0.03316,0.03316,0,0,0
525,0.20693,13.806,0.033452,0.033452,0,0,0
526,0.20795,13.828,0.033669,0.033669,0,0,0
527,0.20888,13.851,0.033667,0.033667,0,0,0
528,0.21031,13.871,0.033991,0.033991,0,0,0
529,0.21245,13.892,0.034353,0.034353,0,0,0
530,0.21489,13.909,0.034712,0.034712,0,0,0
531,0.21677,13.929,0.035293,0.035293,0,0,0
532,0.2188,13.951,0.035253,0.035253,0,0,0
533,0.22023,13.975,0.035836,0.035836,0,0,0
534,0.22151,13.994,0.0362,0.0362,0,0,0
535,0.22259,14.012,0.036595,0.036595,0,0,0
536,0.22436,14.03,0.036777,0.036777,0,0,0
537,0.22555,14.053,0.03681,0.03681,0,0,0
538,0.22706,14.074,0.037061,0.037061,0,0,0
539,0.22897,14.096,0.037242,0.037242,0,0,0
540,0.23051,14.114,0.037673,0.037673,0,0,0
541,0.2322,14.134,0.037923,0.037923,0,0,0
542,0.23384,14.152,0.038498,0.038498,0,0,0
543,0.23497,14.175,0.038862,0.038862,0,0,0
544,0.23643,14.194,0.039333,0.039333,0,0,0
545,0.23796,14.214,0.039693,0.039693,0,0,0
546,0.23972,14.233,0.040052,0.040052,0,0,0
547,0.24227,14.256,0.040376,0.040376,0,0,0
548,0.2443,14.274,0.040412,0.040412,0,0,0
549,0.24654,14.294,0.040516,0.040516,0,0,0
550,0.2483,14.312,0.040805,0.040805,0,0,0
551,0.24984,14.332,0.041129,0.041129,0,0,0
552,0.25089,14.353,0.041599,0.041599,0,0,0
553,0.25178,14.373,0.042211,0.042211,0,0,0
554,0.25283,14.393,0.042534,0.042534,0,0,0
555,0.25451,14.412,0.043079,0.043079,0,0,0
556,0.25665,14.431,0.043294,0.043294,0,0,0
557,0.25891,14.452,0.043293,0.043293,0,0,0
558,0.26105,14.47,0.043761,0.043761,0,0,0
559,0.26274,14.488,0.043904,0.043904,0,0,0
560,0.26442,14.511,0.043937,0.043937,0,0,0
561,0.26648,14.532,0.044441,0.044441,0,0,0
562,0.26798,14.548,0.0448,0.0448,0,0,0
563,0.27004,14.57,0.045303,0.045303,0,0,0
564,0.27184,14.589,0.04577,0.04577,0,0,0
565,0.27409,14.607,0.046202,0.046202,0,0,0
566,0.27637,14.622,0.046597,0.046597,0,0,0
567,0.27878,14.641,0.046954,0.046954,0,0,0
568,0.27971,14.661,0.047135,0.047135,0,0,0
569,0.28076,14.681,0.047422,0.047422,0,0,0
570,0.28189,14.7,0.047673,0.047673,0,0,0
571,0.28365,14.72,0.048032,0.048032,0,0,0
572,0.28522,14.738,0.048243,0.048243,0,0,0
573,0.28743,14.756,0.048748,0.048748,0,0,0
574,0.28991,14.775,0.049428,0.049428,0,0,0
575,0.29239,14.792,0.04982,0.04982,0,0,0
576,0.29464,14.811,0.050144,0.050144,0,0,0
577,0.2964,14.828,0.050499,0.050499,0,0,0
578,0.29812,14.845,0.05082,0.05082,0,0,0
579,0.29966,14.862,0.051144,0.051144,0,0,0
580,0.30124,14.88,0.051357,0.051357,0,0,0
581,0.30319,14.899,0.051678,0.051678,0,0,0
582,0.30551,14.918,0.051928,0.051928,0,0,0
583,0.30753,14.943,0.052499,0.052499,0,0,0
584,0.30941,14.957,0.053071,0.053071,0,0,0
585,0.31121,14.975,0.053532,0.053532,0,0,0
586,0.31259,14.989,0.053817,0.053817,0,0,0
587,0.31432,15.01,0.054208,0.054208,0,0,0
588,0.31593,15.03,0.054706,0.054706,0,0,0
589,0.31795,15.045,0.054992,0.054992,0,0,0
590,0.32013,15.063,0.055134,0.055134,0,0,0
591,0.32257,15.08,0.055313,0.055313,0,0,0
592,0.32512,15.097,0.055739,0.055739,0,0,0
593,0.32752,15.117,0.055952,0.055952,0,0,0
594,0.32973,15.131,0.056592,0.056592,0,0,0
595,0.33149,15.151,0.05709,0.05709,0,0,0
596,0.33321,15.171,0.057693,0.057693,0,0,0
597,0.33475,15.189,0.058333,0.058333,0,0,0
598,0.33681,15.204,0.058509,0.058509,0,0,0
599,0.33879,15.224,0.059004,0.059004,0,0,0
600,0.34104,15.241,0.059396,0.059396,0,0,0
601,0.34333,15.256,0.059859,0.059859,0,0,0
602,0.3455,15.274,0.059928,0.059928,0,0,0
603,0.34727,15.293,0.060354,0.060354,0,0,0
604,0.34822,15.312,0.060743,0.060743,0,0,0
605,0.35078,15.328,0.061237,0.061237,0,0,0
606,0.35295,15.348,0.06198,0.06198,0,0,0
607,0.3555,15.362,0.062369,0.062369,0,0,0
608,0.35827,15.378,0.062688,0.062688,0,0,0
609,0.36113,15.395,0.063252,0.063252,0,0,0
610,0.36341,15.411,0.063569,0.063569,0,0,0
611,0.36551,15.427,0.063923,0.063923,0,0,0
612,0.36807,15.446,0.064205,0.064205,0,0,0
613,0.36945,15.463,0.06442,0.06442,0,0,0
614,0.37113,15.479,0.064981,0.064981,0,0,0
615,0.37301,15.497,0.065405,0.065405,0,0,0
616,0.37514,15.513,0.066004,0.066004,0,0,0
617,0.37773,15.533,0.06639,0.06639,0,0,0
618,0.38009,15.549,0.066916,0.066916,0,0,0
619,0.38189,15.562,0.067411,0.067411,0,0,0
620,0.38366,15.579,0.067796,0.067796,0,0,0
621,0.38602,15.593,0.068288,0.068288,0,0,0
622,0.38786,15.609,0.068744,0.068744,0,0,0
623,0.39033,15.629,0.06899,0.06899,0,0,0
624,0.39284,15.645,0.069446,0.069446,0,0,0
625,0.39604,15.661,0.069868,0.069868,0,0,0
626,0.39844,15.675,0.070465,0.070465,0,0,0
627,0.40117,15.692,0.070918,0.070918,0,0,0
628,0.40309,15.708,0.07141,0.07141,0,0,0
629,0.40534,15.722,0.072039,0.072039,0,0,0
630,0.40729,15.739,0.072529,0.072529,0,0,0
631,0.40901,15.757,0.073122,0.073122,0,0,0
632,0.4113,15.771,0.07333,0.07333,0,0,0
633,0.4137,15.787,0.07396,0.07396,0,0,0
634,0.41618,15.803,0.074518,0.074518,0,0,0
635,0.41907,15.816,0.074623,0.074623,0,0,0
636,0.42135,15.834,0.07525,0.07525,0,0,0
637,0.42289,15.849,0.075738,0.075738,0,0,0
638,0.42477,15.866,0.076471,0.076471,0,0,0
639,0.42724,15.882,0.076818,0.076818,0,0,0
640,0.42964,15.897,0.077269,0.077269,0,0,0
641,0.43238,15.914,0.077794,0.077794,0,0,0
642,0.43556,15.929,0.078385,0.078385,0,0,0
643,0.43842,15.945,0.078732,0.078732,0,0,0
644,0.44112,15.959,0.079218,0.079218,0,0,0
645,0.4434,15.974,0.079668,0.079668,0,0,0
646,0.4458,15.99,0.080433,0.080433,0,0,0
647,0.44775,16.006,0.080918,0.080918,0,0,0
648,0.45008,16.02,0.081577,0.081577,0,0,0
649,0.45259,16.037,0.081891,0.081891,0,0,0
650,0.45551,16.052,0.082375,0.082375,0,0,0
651,0.45813,16.065,0.083205,0.083205,0,0,0
652,0.46023,16.079,0.083482,0.083482,0,0,0
653,0.46229,16.092,0.084174,0.084174,0,0,0
654,0.4642,16.106,0.084552,0.084552,0,0,0
655,0.46653,16.125,0.085174,0.085174,0,0,0
656,0.46881,16.138,0.08576,0.08576,0,0,0
657,0.4717,16.153,0.086519,0.086519,0,0,0
658,0.47504,16.168,0.086863,0.086863,0,0,0
659,0.47808,16.182,0.087449,0.087449,0,0,0
660,0.48104,16.198,0.087897,0.087897,0,0,0
661,0.48322,16.211,0.088482,0.088482,0,0,0
662,0.48528,16.225,0.089102,0.089102,0,0,0
663,0.48749,16.242,0.089446,0.089446,0,0,0
664,0.49031,16.256,0.089755,0.089755,0,0,0
665,0.49282,16.268,0.09058,0.09058,0,0,0
666,0.49582,16.285,0.091196,0.091196,0,0,0
667,0.49886,16.297,0.091609,0.091609,0,0,0
668,0.50134,16.311,0.092259,0.092259,0,0,0
669,0.50351,16.326,0.092979,0.092979,0,0,0
670,0.50539,16.338,0.093494,0.093494,0,0,0
671,0.50771,16.352,0.094144,0.094144,0,0,0
672,0.50962,16.367,0.094555,0.094555,0,0,0
673,0.51285,16.384,0.095206,0.095206,0,0,0
674,0.51537,16.395,0.095717,0.095717,0,0,0
675,0.51904,16.412,0.096331,0.096331,0,0,0
676,0.52205,16.426,0.096845,0.096845,0,0,0
677,0.52486,16.436,0.097663,0.097663,0,0,0
678,0.52715,16.45,0.098277,0.098277,0,0,0
679,0.52963,16.463,0.098925,0.098925,0,0,0
680,0.5324,16.481,0.099912,0.099912,0,0,0
681,0.53544,16.494,0.10053,0.10053,0,0,0
682,0.53829,16.509,0.101,0.101,0,0,0
683,0.54156,16.52,0.10161,0.10161,0,0,0
684,0.54464,16.534,0.10233,0.10233,0,0,0
685,0.54708,16.548,0.10273,0.10273,0,0,0
686,0.54937,16.56,0.10345,0.10345,0,0,0
687,0.55135,16.573,0.10406,0.10406,0,0,0
688,0.55387,16.587,0.10463,0.10463,0,0,0
689,0.55668,16.601,0.10521,0.10521,0,0,0
690,0.55964,16.614,0.10609,0.10609,0,0,0
691,0.5631,16.627,0.10683,0.10683,0,0,0
692,0.56614,16.641,0.10774,0.10774,0,0,0
693,0.5688,16.658,0.10835,0.10835,0,0,0
694,0.57135,16.67,0.10889,0.10889,0,0,0
695,0.57398,16.684,0.1095,0.1095,0,0,0
696,0.57664,16.696,0.11017,0.11017,0,0,0
697,0.57964,16.707,0.11054,0.11054,0,0,0
698,0.58358,16.721,0.11115,0.11115,0,0,0
699,0.58711,16.735,0.11212,0.11212,0,0,0
700,0.59015,16.748,0.11293,0.11293,0,0,0
701,0.59285,16.759,0.11367,0.11367,0,0,0
702,0.5957,16.77,0.11444,0.11444,0,0,0
703,0.59814,16.785,0.11497,0.11497,0,0,0
704,0.60077,16.796,0.11581,0.11581,0,0,0
705,0.6041,16.811,0.11648,0.11648,0,0,0
706,0.60748,16.822,0.11742,0.11742,0,0,0
707,0.61045,16.838,0.11785,0.11785,0,0,0
708,0.61326,16.849,0.11886,0.11886,0,0,0
709,0.61585,16.861,0.11942,0.11942,0,0,0
710,0.61855,16.873,0.12006,0.12006,0,0,0
711,0.62091,16.885,0.12079,0.12079,0,0,0
712,0.62387,16.898,0.12146,0.12146,0,0,0
713,0.62748,16.91,0.12229,0.12229,0,0,0
714,0.63135,16.925,0.12296,0.12296,0,0,0
715,0.63469,16.936,0.12395,0.12395,0,0,0
716,0.63773,16.948,0.12462,0.12462,0,0,0
717,0.64077,16.96,0.12531,0.12531,0,0,0
718,0.64362,16.973,0.12634,0.12634,0,0,0
719,0.64655,16.988,0.12704,0.12704,0,0,0
720,0.64992,16.999,0.1275,0.1275,0,0,0
721,0.65364,17.011,0.12829,0.12829,0,0,0
722,0.65724,17.024,0.12902,0.12902,0,0,0
723,0.66036,17.034,0.12968,0.12968,0,0,0
724,0.66314,17.046,0.13041,0.13041,0,0,0
725,0.66607,17.056,0.13127,0.13127,0,0,0
726,0.66877,17.068,0.13203,0.13203,0,0,0
727,0.67148,17.08,0.13282,0.13282,0,0,0
728,0.67482,17.089,0.13407,0.13407,0,0,0
729,0.67857,17.102,0.13469,0.13469,0,0,0
730,0.68173,17.114,0.13548,0.13548,0,0,0
731,0.6848,17.124,0.13614,0.13614,0,0,0
732,0.68762,17.134,0.13673,0.13673,0,0,0
733,0.69013,17.149,0.13742,0.13742,0,0,0
734,0.69306,17.161,0.13837,0.13837,0,0,0
735,0.6961,17.174,0.13925,0.13925,0,0,0
736,0.70016,17.183,0.14023,0.14023,0,0,0
737,0.70369,17.193,0.14128,0.14128,0,0,0
738,0.70749,17.203,0.14219,0.14219,0,0,0
739,0.71057,17.215,0.14304,0.14304,0,0,0
740,0.71357,17.226,0.14382,0.14382,0,0,0
741,0.71691,17.238,0.14477,0.14477,0,0,0
742,0.71996,17.25,0.14535,0.14535,0,0,0
743,0.72371,17.258,0.14655,0.14655,0,0,0
744,0.7272,17.272,0.14759,0.14759,0,0,0
745,0.73096,17.279,0.1485,0.1485,0,0,0
746,0.73366,17.29,0.14941,0.14941,0,0,0
747,0.73655,17.3,0.15022,0.15022,0,0,0
748,0.7399,17.312,0.15109,0.15109,0,0,0
749,0.74336,17.323,0.15187,0.15187,0,0,0
750,0.74621,17.333,0.15264,0.15264,0,0,0
751,0.74981,17.344,0.15377,0.15377,0,0,0
752,0.75293,17.353,0.15458,0.15458,0,0,0
753,0.75615,17.364,0.15622,0.15622,0,0,0
754,0.76086,17.376,0.15712,0.15712,0,0,0
755,0.76329,17.386,0.15815,0.15815,0,0,0
756,0.76637,17.396,0.15879,0.15879,0,0,0
757,0.76968,17.406,0.15959,0.15959,0,0,0
758,0.77306,17.417,0.16052,0.16052,0,0,0
759,0.77768,17.426,0.16136,0.16136,0,0,0
760,0.78155,17.437,0.16235,0.16235,0,0,0
761,0.78512,17.444,0.16347,0.16347,0,0,0
762,0.78786,17.455,0.16468,0.16468,0,0,0
763,0.79135,17.467,0.16576,0.16576,0,0,0
764,0.79511,17.477,0.16701,0.16701,0,0,0
765,0.79871,17.486,0.16793,0.16793,0,0,0
766,0.80273,17.497,0.16882,0.16882,0,0,0
767,0.80671,17.51,0.16984,0.16984,0,0,0
768,0.81032,17.516,0.17095,0.17095,0,0,0
769,0.81343,17.528,0.17193,0.17193,0,0,0
770,0.81682,17.537,0.17342,0.17342,0,0,0
771,0.81971,17.541,0.17433,0.17433,0,0,0
772,0.82316,17.551,0.17582,0.17582,0,0,0
773,0.82703,17.561,0.17664,0.17664,0,0,0
774,0.83053,17.572,0.17733,0.17733,0,0,0
775,0.83386,17.579,0.17821,0.17821,0,0,0
776,0.83785,17.59,0.17935,0.17935,0,0,0
777,0.84056,17.599,0.1801,0.1801,0,0,0
778,0.84393,17.608,0.1817,0.1817,0,0,0
779,0.84799,17.617,0.18333,0.18333,0,0,0
780,0.85171,17.627,0.18483,0.18483,0,0,0
781,0.85595,17.634,0.18596,0.18596,0,0,0
782,0.85986,17.644,0.18705,0.18705,0,0,0
783,0.86384,17.654,0.18796,0.18796,0,0,0
784,0.86715,17.662,0.18905,0.18905,0,0,0
785,0.87083,17.672,0.18983,0.18983,0,0,0
786,0.87466,17.681,0.1907,0.1907,0,0,0
787,0.87841,17.688,0.19175,0.19175,0,0,0
788,0.88285,17.697,0.193,0.193,0,0,0
789,0.88706,17.706,0.19458,0.19458,0,0,0
790,0.89093,17.715,0.19554,0.19554,0,0,0
791,0.89457,17.723,0.19687,0.19687,0,0,0
792,0.89799,17.731,0.19782,0.19782,0,0,0
793,0.90148,17.74,0.19912,0.19912,0,0,0
794,0.90554,17.746,0.20069,0.20069,0,0,0
795,0.90956,17.754,0.20235,0.20235,0,0,0
796,0.9137,17.762,0.2041,0.2041,0,0,0
797,0.91783,17.775,0.20551,0.20551,0,0,0
798,0.9211,17.778,0.20686,0.20686,0,0,0
799,0.9249,17.784,0.20802,0.20802,0,0,0
800,0.92839,17.792,0.20915,0.20915,0,0,0
801,0.93211,17.801,0.2101,0.2101,0,0,0
802,0.93643,17.81,0.21113,0.21113,0,0,0
803,0.94046,17.816,0.21205,0.21205,0,0,0
804,0.94455,17.825,0.21335,0.21335,0,0,0
805,0.94842,17.834,0.21448,0.21448,0,0,0
806,0.95199,17.842,0.21593,0.21593,0,0,0
807,0.95586,17.849,0.21724,0.21724,0,0,0
808,0.96,17.857,0.21869,0.21869,0,0,0
809,0.96425,17.864,0.22002,0.22002,0,0,0
810,0.96917,17.872,0.22131,0.22131,0,0,0
811,0.97327,17.881,0.22318,0.22318,0,0,0
812,0.97759,17.888,0.22442,0.22442,0,0,0
813,0.98135,17.893,0.22598,0.22598,0,0,0
814,0.98526,17.9,0.22694,0.22694,0,0,0
815,0.9895,17.907,0.22841,0.22841,0,0,0
816,0.9942,17.913,0.23008,0.23008,0,0,0
817,0.99905,17.921,0.23152,0.23152,0,0,0
818,1.0035,17.928,0.2333,0.2333,0,0,0
819,1.0073,17.932,0.23453,0.23453,0,0,0
820,1.0114,17.94,0.23578,0.23578,0,0,0
821,1.0156,17.945,0.23747,0.23747,0,0,0
822,1.0199,17.953,0.2391,0.2391,0,0,0
823,1.0252,17.96,0.24114,0.24114,0,0,0
824,1.0297,17.968,0.24253,0.24253,0,0,0
825,1.0342,17.974,0.24403,0.24403,0,0,0
826,1.0382,17.976,0.24562,0.24562,0,0,0
827,1.0423,17.981,0.24718,0.24718,0,0,0
828,1.0466,17.99,0.24933,0.24933,0,0,0
829,1.0512,17.994,0.25097,0.25097,0,0,0
830,1.0562,17.998,0.25263,0.25263,0,0,0
831,1.0612,18.005,0.25477,0.25477,0,0,0
832,1.0655,18.011,0.25646,0.25646,0,0,0
833,1.0696,18.012,0.25852,0.25852,0,0,0
834,1.074,18.018,0.26067,0.26067,0,0,0
835,1.0788,18.024,0.26249,0.26249,0,0,0
836,1.0839,18.03,0.26391,0.26391,0,0,0
837,1.0894,18.032,0.26616,0.26616,0,0,0
838,1.0942,18.033,0.26832,0.26832,0,0,0
839,1.0991,18.035,0.27039,0.27039,0,0,0
840,1.1037,18.034,0.2724,0.2724,0,0,0
841,1.1089,18.033,0.27432,0.27432,0,0,0
842,1.1167,18.013,0.27973,0.27973,0,0,0