File: lab_data/DP780_results/DATA/NT20_00_1.csv
Time[s],Displacement[mm],Force[kN],AxStrain_1,AxStrain_2,Thickness[mm],OuterWidth[mm],InnerWidth[mm]
0,0,-0.039067,0,0,1.4956,20.012,9.9829
1,0.000487,0.024777,0.00025097,0,0,0,0
2,0.000549,0.094751,4.8999e-05,0,0,0,0
3,0.000338,0.14838,1.5e-05,0,0,0,0
4,0.000552,0.1942,3e-05,0,0,0,0
5,0.000901,0.23861,-0.00021302,0,0,0,0
6,0.000934,0.28407,-7e-06,0,0,0,0
7,0.001104,0.32507,-8.3003e-05,0,0,0,0
8,0.00118,0.36757,-0.00023803,0,0,0,0
9,0.001458,0.41075,-8.3003e-05,0,0,0,0
10,0.001558,0.45347,-0.00016501,0,0,0,0
11,0.001711,0.49689,-3e-05,0,0,0,0
12,0.001887,0.53779,0.00010099,0,0,0,0
13,0.00173,0.57867,3.6999e-05,0,0,0,0
14,0.001832,0.62049,0.00014199,0,0,0,0
15,0.002141,0.66002,0.00012199,0,0,0,0
16,0.002041,0.70003,9.7995e-05,0,0,0,0
17,0.002145,0.74125,-0.00018902,0,0,0,0
18,0.002001,0.78227,-0.00018902,0,0,0,0
19,0.002354,0.8242,-0.00013201,0,0,0,0
20,0.002748,0.86509,-0.00021602,0,0,0,0
21,0.002898,0.90301,-0.00022002,0,0,0,0
22,0.003407,0.94129,-0.00030405,0,0,0,0
23,0.003449,0.98039,7.0997e-05,0,0,0,0
24,0.003729,1.0179,0.00022298,0,0,0,0
25,0.003805,1.0545,0.00012499,0,0,0,0
26,0.003671,1.0915,0.00022298,0,0,0,0
27,0.003794,1.1321,-3e-05,0,0,0,0
28,0.003977,1.1689,1.7e-05,0,0,0,0
29,0.004116,1.2038,1.7e-05,0,0,0,0
30,0.004521,1.2391,9.4995e-05,0,0,0,0
31,0.004759,1.2753,-0.00010501,0,0,0,0
32,0.004716,1.3093,-8.4004e-05,0,0,0,0
33,0.005248,1.3463,-3.7001e-05,0,0,0,0
34,0.005641,1.3796,0.00025997,0,0,0,0
35,0.005835,1.4169,0.00029096,0,0,0,0
36,0.005639,1.4495,0.00017598,0,0,0,0
37,0.005782,1.484,0.00010799,0,0,0,0
38,0.005604,1.5189,1.7e-05,0,0,0,0
39,0.005852,1.5506,1.7e-05,0,0,0,0
40,0.006102,1.5861,-7.4003e-05,0,0,0,0
41,0.006402,1.6195,0.00014899,0,0,0,0
42,0.006886,1.6537,-0.00016901,0,0,0,0
43,0.007354,1.6874,-0.00011501,0,0,0,0
44,0.007139,1.7187,-5.7002e-05,0,0,0,0
45,0.00747,1.7537,0.00027096,0,0,0,0
46,0.007884,1.7836,0.00026696,0,0,0,0
47,0.007548,1.8158,0.00025097,0,0,0,0
48,0.007531,1.8484,0.00013899,0,0,0,0
49,0.007546,1.8817,4.7999e-05,0,0,0,0
50,0.007675,1.9123,6.7998e-05,0,0,0,0
51,0.008102,1.945,5.3999e-05,0,0,0,0
52,0.008343,1.9824,0.00017598,0,0,0,0
53,0.008878,2.0117,7.3997e-05,0,0,0,0
54,0.00939,2.0413,4.3999e-05,0,0,0,0
55,0.009962,2.074,0.00015599,0,0,0,0
56,0.00981,2.107,0.00028796,0,0,0,0
57,0.009881,2.1391,0.00025397,0,0,0,0
58,0.00961,2.1676,0.00017998,0,0,0,0
59,0.009738,2.1999,0.00017598,0,0,0,0
60,0.009774,2.2307,0.00024397,0,0,0,0
61,0.009664,2.2622,-2e-05,0,0,0,0
62,0.010067,2.2938,1.4e-05,0,0,0,0
63,0.01026,2.3245,0.00016899,0,0,0,0
64,0.010958,2.3567,0.00022298,0,0,0,0
65,0.011467,2.3861,9.4995e-05,0,0,0,0
66,0.012102,2.4184,0.00019598,0,0,0,0
67,0.01209,2.4463,0.00019698,0,0,0,0
68,0.011759,2.4762,0.00035594,0,0,0,0
69,0.011619,2.5106,0.00030195,0,0,0,0
70,0.011712,2.5392,0.00037893,0,0,0,0
71,0.011804,2.5701,0.00023397,0,0,0,0
72,0.011822,2.5976,0.00022397,0,0,0,0
73,0.012029,2.6271,0.00016299,0,0,0,0
74,0.012723,2.653,-1e-05,0,0,0,0
75,0.013289,2.6858,0.00014599,0,0,0,0
76,0.013801,2.7187,0.00025697,0,0,0,0
77,0.01394,2.748,0.00021698,0,0,0,0
78,0.014174,2.7775,0.00033894,0,0,0,0
79,0.013992,2.8044,0.00033194,0,0,0,0
80,0.013733,2.8353,0.00052486,0,0,0,0
81,0.013596,2.8648,0.00036293,0,0,0,0
82,0.013808,2.8937,0.00048788,0,0,0,0
83,0.013308,2.9232,0.00030495,0,0,0,0
84,0.013718,2.9516,0.00015599,0,0,0,0
85,0.014718,2.9791,0.00036893,0,0,0,0
86,0.0151,3.0082,0.00023697,0,0,0,0
87,0.01542,3.0388,0.00052786,0,0,0,0
88,0.015925,3.0666,0.00051787,0,0,0,0
89,0.01623,3.0939,0.00039292,0,0,0,0
90,0.016383,3.1214,0.00016699,0,0,0,0
91,0.016125,3.1523,0.00053586,0,0,0,0
92,0.015673,3.1827,0.00059582,0,0,0,0
93,0.01562,3.2117,0.00046089,0,0,0,0
94,0.015676,3.2385,0.0004439,0,0,0,0
95,0.015877,3.2663,0.00053486,0,0,0,0
96,0.016211,3.2983,0.00021798,0,0,0,0
97,0.016793,3.327,0.00035994,0,0,0,0
98,0.017217,3.3537,0.00023797,0,0,0,0
99,0.017935,3.3827,0.00016699,0,0,0,0
100,0.018133,3.4115,0.00042391,0,0,0,0
101,0.018388,3.4399,0.00054285,0,0,0,0
102,0.018177,3.4701,0.00041391,0,0,0,0
103,0.01808,3.4989,0.00052686,0,0,0,0
104,0.017801,3.529,0.00043191,0,0,0,0
105,0.01804,3.5566,0.0006338,0,0,0,0
106,0.017839,3.5839,0.00066078,0,0,0,0
107,0.018254,3.6135,0.00030895,0,0,0,0
108,0.018894,3.6407,0.00053286,0,0,0,0
109,0.019667,3.6716,0.00027496,0,0,0,0
110,0.019909,3.6989,0.00056284,0,0,0,0
111,0.020303,3.7257,0.00049188,0,0,0,0
112,0.0205,3.7533,0.00047489,0,0,0,0
113,0.020623,3.7819,0.00071175,0,0,0,0
114,0.020423,3.8104,0.00061081,0,0,0,0
115,0.020469,3.839,0.00094855,0,0,0,0
116,0.020096,3.8692,0.00074572,0,0,0,0
117,0.02033,3.8951,0.0007797,0,0,0,0
118,0.020465,3.9217,0.00064379,0,0,0,0
119,0.020801,3.9531,0.00057683,0,0,0,0
120,0.021374,3.9769,0.00054285,0,0,0,0
121,0.022117,4.0058,0.00067777,0,0,0,0
122,0.022589,4.0347,0.00074672,0,0,0,0
123,0.022891,4.0624,0.0007797,0,0,0,0
124,0.022856,4.0875,0.00094855,0,0,0,0
125,0.022957,4.1139,0.00084764,0,0,0,0
126,0.022854,4.1414,0.0012532,0,0,0,0
127,0.022515,4.1686,0.0007797,0,0,0,0
128,0.022851,4.1961,0.00071275,0,0,0,0
129,0.022884,4.2221,0.00064479,0,0,0,0
130,0.023085,4.2481,0.00061081,0,0,0,0
131,0.023896,4.2753,0.00061081,0,0,0,0
132,0.024367,4.3039,0.00050987,0,0,0,0
133,0.024873,4.3301,0.00061081,0,0,0,0
134,0.025041,4.3576,0.00064479,0,0,0,0
135,0.025209,4.3854,0.00064479,0,0,0,0
136,0.02541,4.4115,0.00071375,0,0,0,0
137,0.025476,4.4378,0.00094955,0,0,0,0
138,0.025813,4.4648,0.0011523,0,0,0,0
139,0.025744,4.4906,0.00084864,0,0,0,0
140,0.025776,4.5155,0.00071375,0,0,0,0
141,0.025944,4.5453,0.00071375,0,0,0,0
142,0.026281,4.5738,0.00064579,0,0,0,0
143,0.026482,4.5976,0.00064479,0,0,0,0
144,0.027157,4.6252,0.0007807,0,0,0,0
145,0.027494,4.6525,0.0007807,0,0,0,0
146,0.027527,4.6775,0.00091758,0,0,0,0
147,0.027864,4.7013,0.00091658,0,0,0,0
148,0.028234,4.7253,0.0012213,0,0,0,0
149,0.028267,4.755,0.001389,0,0,0,0
150,0.028435,4.7816,0.0010185,0,0,0,0
151,0.028602,4.8073,0.00095155,0,0,0,0
152,0.028669,4.8337,0.00091758,0,0,0,0
153,0.028802,4.8599,0.0011194,0,0,0,0
154,0.029173,4.8861,0.0010864,0,0,0,0
155,0.029375,4.9119,0.0010864,0,0,0,0
156,0.029847,4.9362,0.0010514,0,0,0,0
157,0.030116,4.9608,0.0010854,0,0,0,0
158,0.030318,4.9885,0.0012902,0,0,0,0
159,0.030959,5.013,0.0013571,0,0,0,0
160,0.031195,5.0373,0.001427,0,0,0,0
161,0.031329,5.0625,0.0015947,0,0,0,0
162,0.031497,5.0891,0.0013251,0,0,0,0
163,0.031834,5.116,0.0011903,0,0,0,0
164,0.031529,5.1393,0.0010215,0,0,0,0
165,0.032102,5.1677,0.0010534,0,0,0,0
166,0.032406,5.1893,0.0010205,0,0,0,0
167,0.032743,5.2132,0.0012233,0,0,0,0
168,0.032742,5.2416,0.0012562,0,0,0,0
169,0.033484,5.2693,0.001393,0,0,0,0
170,0.03345,5.2943,0.0013591,0,0,0,0
171,0.033854,5.319,0.0015268,0,0,0,0
172,0.033989,5.3469,0.0015268,0,0,0,0
173,0.034462,5.3791,0.0014609,0,0,0,0
174,0.034968,5.4016,0.0015288,0,0,0,0
175,0.035136,5.4254,0.001426,0,0,0,0
176,0.035643,5.4513,0.0012243,0,0,0,0
177,0.036014,5.4784,0.001426,0,0,0,0
178,0.036216,5.5057,0.001393,0,0,0,0
179,0.036553,5.5306,0.001426,0,0,0,0
180,0.036789,5.5542,0.0012572,0,0,0,0
181,0.037093,5.5829,0.0013591,0,0,0,0
182,0.037092,5.6097,0.0014609,0,0,0,0
183,0.037396,5.6364,0.0015947,0,0,0,0
184,0.037564,5.6613,0.0016287,0,0,0,0
185,0.037969,5.6854,0.0014939,0,0,0,0
186,0.03878,5.7103,0.0015618,0,0,0,0
187,0.039489,5.7369,0.0015288,0,0,0,0
188,0.039928,5.7625,0.0015957,0,0,0,0
189,0.040097,5.7899,0.0014949,0,0,0,0
190,0.040468,5.8135,0.0016636,0,0,0,0
191,0.040535,5.8405,0.0015618,0,0,0,0
192,0.040568,5.8661,0.0013591,0,0,0,0
193,0.040703,5.8902,0.0015618,0,0,0,0
194,0.041142,5.9131,0.0017634,0,0,0,0
195,0.041378,5.9401,0.0018992,0,0,0,0
196,0.041952,5.9671,0.0017984,0,0,0,0
197,0.042594,5.9922,0.0017654,0,0,0,0
198,0.043202,6.016,0.0016976,0,0,0,0
199,0.043912,6.0423,0.0016976,0,0,0,0
200,0.044621,6.0701,0.0019002,0,0,0,0
201,0.044824,6.0942,0.0016976,0,0,0,0
202,0.044925,6.1182,0.0016297,0,0,0,0
203,0.045566,6.1444,0.0018982,0,0,0,0
204,0.045465,6.1685,0.0020339,0,0,0,0
205,0.045566,6.196,0.0021018,0,0,0,0
206,0.045802,6.2225,0.0024061,0,0,0,0
207,0.04641,6.2462,0.0023053,0,0,0,0
208,0.046782,6.2729,0.0021706,0,0,0,0
209,0.047492,6.2991,0.0022046,0,0,0,0
210,0.048607,6.3238,0.0022046,0,0,0,0
211,0.049283,6.349,0.0021716,0,0,0,0
212,0.049992,6.3775,0.0021048,0,0,0,0
213,0.050432,6.4034,0.0021726,0,0,0,0
214,0.050499,6.4298,0.0019361,0,0,0,0
215,0.050296,6.4536,0.0021377,0,0,0,0
216,0.051073,6.4802,0.0020359,0,0,0,0
217,0.051209,6.5056,0.0023403,0,0,0,0
218,0.051479,6.5305,0.0025448,0,0,0,0
219,0.051918,6.5561,0.0023423,0,0,0,0
220,0.052628,6.5786,0.0026804,0,0,0,0
221,0.053845,6.6069,0.0026814,0,0,0,0
222,0.054453,6.6313,0.0025138,0,0,0,0
223,0.055264,6.6593,0.0027153,0,0,0,0
224,0.055873,6.6855,0.0025458,0,0,0,0
225,0.056211,6.7086,0.0023433,0,0,0,0
226,0.05665,6.7328,0.002444,0,0,0,0
227,0.057056,6.7614,0.0026126,0,0,0,0
228,0.057259,6.7869,0.0026804,0,0,0,0
229,0.057664,6.8101,0.0029845,0,0,0,0
230,0.057935,6.8369,0.0031181,0,0,0,0
231,0.058814,6.8599,0.0030842,0,0,0,0
232,0.059388,6.8842,0.0028818,0,0,0,0
233,0.060335,6.9094,0.0029835,0,0,0,0
234,0.061214,6.9348,0.0028838,0,0,0,0
235,0.061856,6.9614,0.0029167,0,0,0,0
236,0.062566,6.9875,0.0031181,0,0,0,0
237,0.063175,7.0132,0.0031849,0,0,0,0
238,0.063783,7.0372,0.0029825,0,0,0,0
239,0.06473,7.0616,0.0029157,0,0,0,0
240,0.065068,7.0876,0.0032178,0,0,0,0
241,0.065575,7.1106,0.0033195,0,0,0,0
242,0.066386,7.1356,0.0036573,0,0,0,0
243,0.066961,7.1642,0.0039601,0,0,0,0
244,0.067638,7.1889,0.0037579,0,0,0,0
245,0.068584,7.2237,0.0036912,0,0,0,0
246,0.069125,7.2481,0.0037589,0,0,0,0
247,0.070038,7.2645,0.0036573,0,0,0,0
248,0.07085,7.2909,0.0037579,0,0,0,0
249,0.071289,7.3167,0.0037589,0,0,0,0
250,0.072507,7.3409,0.0037241,0,0,0,0
251,0.073521,7.3675,0.0037918,0,0,0,0
252,0.074501,7.3913,0.0040946,0,0,0,0
253,0.075515,7.4164,0.004465,0,0,0,0
254,0.076293,7.4427,0.0044999,0,0,0,0
255,0.077274,7.4683,0.0046024,0,0,0,0
256,0.077984,7.4909,0.0044342,0,0,0,0
257,0.078491,7.5185,0.0044342,0,0,0,0
258,0.079134,7.5434,0.0044352,0,0,0,0
259,0.079607,7.5679,0.0041653,0,0,0,0
260,0.080452,7.5905,0.0042002,0,0,0,0
261,0.081264,7.6142,0.0043007,0,0,0,0
262,0.083055,7.6381,0.0046362,0,0,0,0
263,0.084171,7.6662,0.0047397,0,0,0,0
264,0.085591,7.6915,0.0050094,0,0,0,0
265,0.086673,7.7163,0.0053785,0,0,0,0
266,0.087654,7.7394,0.0051109,0,0,0,0
267,0.088465,7.7657,0.0053119,0,0,0,0
268,0.089141,7.7901,0.0051776,0,0,0,0
269,0.089919,7.8142,0.0049756,0,0,0,0
270,0.090866,7.8368,0.00528,0,0,0,0
271,0.091441,7.8605,0.0050761,0,0,0,0
272,0.090798,7.8861,0.0050094,0,0,0,0
273,0.094112,7.9093,0.0054461,0,0,0,0
274,0.095667,7.9328,0.0055466,0,0,0,0
275,0.096783,7.9577,0.0057823,0,0,0,0
276,0.097661,7.9813,0.0059831,0,0,0,0
277,0.098879,8.0057,0.0063508,0,0,0,0
278,0.099859,8.0298,0.0063528,0,0,0,0
279,0.10111,8.0519,0.0065545,0,0,0,0
280,0.10253,8.0765,0.0064203,0,0,0,0
281,0.10368,8.0994,0.0064531,0,0,0,0
282,0.10497,8.1233,0.0063528,0,0,0,0
283,0.10666,8.1464,0.0064531,0,0,0,0
284,0.10753,8.172,0.0064541,0,0,0,0
285,0.10882,8.1949,0.0064849,0,0,0,0
286,0.1096,8.219,0.00662,0,0,0,0
287,0.11085,8.2418,0.0071563,0,0,0,0
288,0.11196,8.2638,0.0077261,0,0,0,0
289,0.11325,8.2856,0.0076933,0,0,0,0
290,0.1146,8.3095,0.0076616,0,0,0,0
291,0.11656,8.3337,0.0076606,0,0,0,0
292,0.11839,8.3561,0.0077281,0,0,0,0
293,0.12008,8.3803,0.0076278,0,0,0,0
294,0.12143,8.4032,0.0074254,0,0,0,0
295,0.12278,8.4249,0.0076268,0,0,0,0
296,0.12424,8.4485,0.0080961,0,0,0,0
297,0.12556,8.4693,0.0080624,0,0,0,0
298,0.12687,8.4943,0.0085642,0,0,0,0
299,0.12823,8.5146,0.0088002,0,0,0,0
300,0.12975,8.5378,0.008935,0,0,0,0
301,0.13127,8.5595,0.0092035,0,0,0,0
302,0.13309,8.581,0.0090014,0,0,0,0
303,0.13468,8.6058,0.0089013,0,0,0,0
304,0.13624,8.6268,0.0090351,0,0,0,0
305,0.13766,8.6494,0.0090024,0,0,0,0
306,0.13925,8.6711,0.0091361,0,0,0,0
307,0.14084,8.6932,0.0091015,0,0,0,0
308,0.14263,8.7153,0.0092352,0,0,0,0
309,0.14452,8.7387,0.010073,0,0,0,0
310,0.14645,8.7592,0.010174,0,0,0,0
311,0.14848,8.7781,0.010473,0,0,0,0
312,0.15027,8.8032,0.010676,0,0,0,0
313,0.15145,8.8219,0.010677,0,0,0,0
314,0.15345,8.8442,0.01091,0,0,0,0
315,0.15433,8.8656,0.010543,0,0,0,0
316,0.15609,8.8875,0.010578,0,0,0,0
317,0.15771,8.9112,0.010376,0,0,0,0
318,0.1598,8.9327,0.010677,0,0,0,0
319,0.16163,8.9515,0.010911,0,0,0,0
320,0.164,8.9741,0.011279,0,0,0,0
321,0.16579,8.9943,0.012014,0,0,0,0
322,0.16761,9.0172,0.012181,0,0,0,0
323,0.16961,9.0372,0.012281,0,0,0,0
324,0.17126,9.0566,0.012348,0,0,0,0
325,0.17326,9.0774,0.012182,0,0,0,0
326,0.17546,9.0989,0.011882,0,0,0,0
327,0.17772,9.1195,0.012049,0,0,0,0
328,0.18002,9.1396,0.012049,0,0,0,0
329,0.18208,9.1616,0.012349,0,0,0,0
330,0.18381,9.1797,0.012216,0,0,0,0
331,0.18533,9.2012,0.012748,0,0,0,0
332,0.18705,9.221,0.01325,0,0,0,0
333,0.18908,9.2416,0.013817,0,0,0,0
334,0.19124,9.2642,0.013918,0,0,0,0
335,0.1932,9.2849,0.014151,0,0,0,0
336,0.19587,9.2996,0.014017,0,0,0,0
337,0.198,9.3197,0.013685,0,0,0,0
338,0.19993,9.3418,0.013719,0,0,0,0
339,0.20183,9.3633,0.01382,0,0,0,0
340,0.20396,9.3835,0.014052,0,0,0,0
341,0.20629,9.4061,0.01442,0,0,0,0
342,0.20825,9.4236,0.014652,0,0,0,0
343,0.21085,9.443,0.015319,0,0,0,0
344,0.21349,9.4643,0.015584,0,0,0,0
345,0.21582,9.4825,0.015685,0,0,0,0
346,0.21812,9.4997,0.015818,0,0,0,0
347,0.22001,9.5203,0.016051,0,0,0,0
348,0.2217,9.5374,0.015685,0,0,0,0
349,0.2239,9.5565,0.015886,0,0,0,0
350,0.226,9.5767,0.015752,0,0,0,0
351,0.22833,9.5949,0.015951,0,0,0,0
352,0.23107,9.6164,0.016483,0,0,0,0
353,0.23353,9.6355,0.016683,0,0,0,0
354,0.23587,9.6553,0.017114,0,0,0,0
355,0.238,9.6722,0.017513,0,0,0,0
356,0.24006,9.6922,0.017879,0,0,0,0
357,0.24239,9.7099,0.017977,0,0,0,0
358,0.24489,9.7303,0.018246,0,0,0,0
359,0.24753,9.7506,0.018143,0,0,0,0
360,0.2505,9.7696,0.018278,0,0,0,0
361,0.25314,9.7857,0.018342,0,0,0,0
362,0.25581,9.8043,0.018344,0,0,0,0
363,0.25818,9.823,0.018476,0,0,0,0
364,0.26051,9.8418,0.019008,0,0,0,0
365,0.26288,9.8607,0.019339,0,0,0,0
366,0.26508,9.8788,0.019736,0,0,0,0
367,0.26775,9.8958,0.019934,0,0,0,0
368,0.27055,9.9155,0.020199,0,0,0,0
369,0.27305,9.9335,0.020399,0,0,0,0
370,0.27555,9.9513,0.020365,0,0,0,0
371,0.27799,9.9679,0.020432,0,0,0,0
372,0.28042,9.9857,0.020565,0,0,0,0
373,0.28255,10.003,0.020896,0,0,0,0
374,0.28566,10.02,0.021127,0,0,0,0
375,0.2885,10.038,0.021292,0,0,0,0
376,0.29178,10.056,0.021854,0,0,0,0
377,0.29469,10.074,0.022153,0,0,0,0
378,0.29746,10.091,0.022451,0,0,0,0
379,0.3003,10.109,0.02278,0,0,0,0
380,0.30253,10.127,0.022713,0,0,0,0
381,0.3053,10.142,0.023078,0,0,0,0
382,0.30834,10.159,0.023011,0,0,0,0
383,0.31128,10.186,0.023143,0,0,0,0
384,0.31426,10.194,0.023309,0,0,0,0
385,0.31727,10.209,0.023936,0,0,0,0
386,0.3198,10.226,0.023837,0,0,0,0
387,0.32227,10.246,0.024463,0,0,0,0
388,0.32491,10.263,0.02466,0,0,0,0
389,0.32758,10.279,0.024926,0,0,0,0
390,0.33038,10.295,0.025024,0,0,0,0
391,0.33326,10.308,0.025418,0,0,0,0
392,0.3365,10.324,0.025519,0,0,0,0
393,0.33917,10.342,0.025683,0,0,0,0
394,0.34215,10.361,0.026012,0,0,0,0
395,0.34475,10.378,0.026177,0,0,0,0
396,0.34766,10.394,0.026341,0,0,0,0
397,0.3507,10.407,0.026805,0,0,0,0
398,0.35435,10.425,0.027032,0,0,0,0
399,0.35787,10.441,0.027526,0,0,0,0
400,0.36057,10.457,0.027888,0,0,0,0
401,0.36375,10.474,0.027987,0,0,0,0
402,0.36672,10.488,0.028118,0,0,0,0
403,0.36983,10.506,0.028479,0,0,0,0
404,0.37294,10.52,0.028545,0,0,0,0
405,0.37609,10.535,0.029101,0,0,0,0
406,0.37964,10.551,0.029298,0,0,0,0
407,0.38295,10.567,0.029627,0,0,0,0
408,0.38562,10.583,0.029759,0,0,0,0
409,0.38856,10.597,0.030185,0,0,0,0
410,0.39164,10.613,0.030381,0,0,0,0
411,0.39451,10.63,0.030971,0,0,0,0
412,0.39755,10.645,0.03107,0,0,0,0
413,0.40107,10.659,0.031202,0,0,0,0
414,0.40478,10.674,0.031627,0,0,0,0
415,0.40793,10.689,0.03192,0,0,0,0
416,0.4109,10.705,0.032346,0,0,0,0
417,0.41411,10.72,0.032411,0,0,0,0
418,0.41719,10.736,0.032641,0,0,0,0
419,0.42057,10.749,0.033098,0,0,0,0
420,0.42436,10.762,0.033393,0,0,0,0
421,0.42787,10.774,0.033458,0,0,0,0
422,0.43145,10.788,0.033818,0,0,0,0
423,0.43467,10.802,0.034405,0,0,0,0
424,0.43798,10.816,0.034601,0,0,0,0
425,0.44143,10.831,0.034929,0,0,0,0
426,0.44515,10.847,0.035091,0,0,0,0
427,0.44863,10.861,0.035385,0,0,0,0
428,0.45245,10.875,0.035775,0,0,0,0
429,0.45572,10.888,0.036068,0,0,0,0
430,0.45921,10.903,0.036166,0,0,0,0
431,0.46252,10.917,0.036493,0,0,0,0
432,0.46559,10.933,0.036883,0,0,0,0
433,0.46894,10.941,0.037373,0,0,0,0
434,0.47283,10.956,0.037634,0,0,0,0
435,0.47662,10.971,0.037796,0,0,0,0
436,0.47993,10.984,0.038415,0,0,0,0
437,0.48324,10.998,0.038447,0,0,0,0
438,0.48669,11.009,0.038707,0,0,0,0
439,0.49014,11.026,0.038966,0,0,0,0
440,0.49392,11.038,0.03942,0,0,0,0
441,0.49801,11.051,0.039485,0,0,0,0
442,0.50149,11.067,0.040071,0,0,0,0
443,0.50531,11.079,0.040298,0,0,0,0
444,0.50873,11.091,0.040655,0,0,0,0
445,0.51238,11.105,0.041271,0,0,0,0
446,0.51623,11.118,0.041564,0,0,0,0
447,0.52059,11.129,0.041791,0,0,0,0
448,0.52458,11.144,0.042017,0,0,0,0
449,0.5284,11.159,0.042179,0,0,0,0
450,0.53185,11.169,0.042535,0,0,0,0
451,0.5356,11.18,0.042695,0,0,0,0
452,0.53918,11.191,0.043345,0,0,0,0
453,0.54293,11.204,0.043636,0,0,0,0
454,0.54692,11.217,0.04425,0,0,0,0
455,0.55105,11.23,0.0448,0,0,0,0
456,0.55487,11.241,0.045026,0,0,0,0
457,0.55852,11.253,0.045285,0,0,0,0
458,0.5621,11.267,0.045769,0,0,0,0
459,0.56572,11.278,0.045995,0,0,0,0
460,0.56944,11.291,0.046125,0,0,0,0
461,0.57352,11.304,0.04648,0,0,0,0
462,0.57772,11.314,0.046866,0,0,0,0
463,0.58147,11.325,0.047415,0,0,0,0
464,0.58542,11.338,0.047705,0,0,0,0
465,0.58864,11.347,0.048382,0,0,0,0
466,0.59235,11.361,0.048703,0,0,0,0
467,0.59661,11.371,0.048992,0,0,0,0
468,0.60138,11.383,0.04925,0,0,0,0
469,0.6052,11.395,0.04983,0,0,0,0
470,0.60949,11.408,0.049957,0,0,0,0
471,0.61304,11.416,0.050312,0,0,0,0
472,0.61686,11.427,0.050569,0,0,0,0
473,0.62122,11.44,0.051211,0,0,0,0
474,0.62534,11.452,0.05134,0,0,0,0
475,0.6297,11.46,0.052302,0,0,0,0
476,0.63406,11.47,0.052718,0,0,0,0
477,0.63795,11.482,0.053103,0,0,0,0
478,0.64204,11.491,0.053519,0,0,0,0
479,0.64603,11.502,0.053872,0,0,0,0
480,0.65049,11.516,0.054064,0,0,0,0
481,0.65506,11.523,0.054673,0,0,0,0
482,0.65945,11.535,0.054705,0,0,0,0
483,0.66327,11.546,0.055281,0,0,0,0
484,0.66736,11.555,0.055697,0,0,0,0
485,0.67128,11.566,0.056368,0,0,0,0
486,0.67564,11.576,0.056814,0,0,0,0
487,0.68007,11.586,0.057292,0,0,0,0
488,0.68453,11.597,0.057612,0,0,0,0
489,0.68876,11.608,0.058186,0,0,0,0
490,0.69257,11.617,0.058409,0,0,0,0
491,0.69677,11.627,0.058951,0,0,0,0
492,0.70069,11.638,0.059397,0,0,0,0
493,0.70528,11.647,0.059843,0,0,0,0
494,0.71015,11.657,0.060257,0,0,0,0
495,0.71441,11.665,0.06083,0,0,0,0
496,0.71843,11.675,0.061243,0,0,0,0
497,0.72286,11.685,0.061465,0,0,0,0
498,0.72698,11.696,0.061752,0,0,0,0
499,0.73182,11.705,0.06229,0,0,0,0
500,0.73658,11.712,0.062736,0,0,0,0
501,0.74101,11.723,0.063148,0,0,0,0
502,0.74517,11.731,0.06356,0,0,0,0
503,0.74929,11.739,0.064163,0,0,0,0
504,0.75375,11.751,0.064544,0,0,0,0
505,0.75801,11.76,0.064986,0,0,0,0
506,0.76325,11.768,0.065492,0,0,0,0
507,0.76822,11.776,0.065904,0,0,0,0
508,0.77245,11.784,0.066473,0,0,0,0
509,0.77684,11.793,0.066853,0,0,0,0
510,0.78097,11.803,0.067391,0,0,0,0
511,0.78576,11.812,0.067769,0,0,0,0
512,0.7908,11.823,0.068212,0,0,0,0
513,0.79577,11.832,0.069032,0,0,0,0
514,0.8002,11.84,0.06944,0,0,0,0
515,0.80469,11.847,0.069977,0,0,0,0
516,0.80909,11.855,0.070355,0,0,0,0
517,0.81395,11.862,0.071048,0,0,0,0
518,0.81879,11.871,0.0713,0,0,0,0
519,0.82362,11.88,0.071835,0,0,0,0
520,0.82835,11.888,0.072338,0,0,0,0
521,0.83275,11.897,0.072935,0,0,0,0
522,0.83734,11.905,0.073564,0,0,0,0
523,0.84211,11.912,0.073847,0,0,0,0
524,0.84722,11.916,0.074412,0,0,0,0
525,0.85195,11.925,0.074881,0,0,0,0
526,0.85668,11.932,0.075571,0,0,0,0
527,0.86097,11.939,0.075978,0,0,0,0
528,0.86533,11.949,0.076604,0,0,0,0
529,0.8701,11.956,0.077262,0,0,0,0
530,0.87513,11.963,0.077573,0,0,0,0
531,0.87997,11.97,0.078388,0,0,0,0
532,0.88511,11.976,0.079107,0,0,0,0
533,0.88957,11.986,0.079637,0,0,0,0
534,0.89423,11.993,0.080073,0,0,0,0
535,0.899,12.001,0.080509,0,0,0,0
536,0.90383,12.007,0.08104,0,0,0,0
537,0.90914,12.013,0.081381,0,0,0,0
538,0.91373,12.02,0.082223,0,0,0,0
539,0.91857,12.028,0.082783,0,0,0,0
540,0.92317,12.035,0.08353,0,0,0,0
541,0.92807,12.041,0.084182,0,0,0,0
542,0.93304,12.049,0.084586,0,0,0,0
543,0.93851,12.055,0.085238,0,0,0,0
544,0.94324,12.062,0.085766,0,0,0,0
545,0.94818,12.068,0.0862,0,0,0,0
546,0.95301,12.077,0.087006,0,0,0,0
547,0.95812,12.082,0.087409,0,0,0,0
548,0.96352,12.087,0.088059,0,0,0,0
549,0.9692,12.095,0.088771,0,0,0,0
550,0.97376,12.1,0.089266,0,0,0,0
551,0.9785,12.108,0.090254,0,0,0,0
552,0.9837,12.115,0.090563,0,0,0,0
553,0.98894,12.121,0.091273,0,0,0,0
554,0.99432,12.128,0.091891,0,0,0,0
555,0.99989,12.134,0.092229,0,0,0,0
556,1.0048,12.141,0.092999,0,0,0,0
557,1.0098,12.146,0.093553,0,0,0,0
558,1.0148,12.15,0.0942,0,0,0,0
559,1.0202,12.155,0.094968,0,0,0,0
560,1.026,12.159,0.095583,0,0,0,0
561,1.0311,12.165,0.096044,0,0,0,0
562,1.0364,12.171,0.096995,0,0,0,0
563,1.0416,12.177,0.097515,0,0,0,0
564,1.0463,12.183,0.098189,0,0,0,0
565,1.0518,12.188,0.099046,0,0,0,0
566,1.0576,12.193,0.099598,0,0,0,0
567,1.063,12.199,0.10039,0,0,0,0
568,1.0672,12.203,0.10097,0,0,0,0
569,1.073,12.212,0.10195,0,0,0,0
570,1.0779,12.214,0.10229,0,0,0,0
571,1.0835,12.218,0.10299,0,0,0,0
572,1.089,12.221,0.10375,0,0,0,0
573,1.0941,12.227,0.10476,0,0,0,0
574,1.0994,12.232,0.10549,0,0,0,0
575,1.1042,12.236,0.10643,0,0,0,0
576,1.1096,12.242,0.10731,0,0,0,0
577,1.1152,12.246,0.1081,0,0,0,0
578,1.1208,12.249,0.10874,0,0,0,0
579,1.1263,12.257,0.10937,0,0,0,0
580,1.1311,12.26,0.1101,0,0,0,0
581,1.1364,12.264,0.11064,0,0,0,0
582,1.1421,12.267,0.11149,0,0,0,0
583,1.1478,12.272,0.11221,0,0,0,0
584,1.1534,12.275,0.11303,0,0,0,0
585,1.1585,12.279,0.11411,0,0,0,0
586,1.1639,12.284,0.11484,0,0,0,0
587,1.1696,12.287,0.11586,0,0,0,0
588,1.1751,12.294,0.11637,0,0,0,0
589,1.1807,12.296,0.11713,0,0,0,0
590,1.1864,12.3,0.11788,0,0,0,0
591,1.1916,12.302,0.1189,0,0,0,0
592,1.197,12.307,0.1195,0,0,0,0
593,1.2026,12.313,0.12043,0,0,0,0
594,1.2085,12.315,0.12139,0,0,0,0
595,1.2143,12.318,0.12214,0,0,0,0
596,1.2201,12.32,0.12318,0,0,0,0
597,1.2253,12.327,0.12405,0,0,0,0
598,1.2308,12.33,0.125,0,0,0,0
599,1.2365,12.331,0.12572,0,0,0,0
600,1.2426,12.334,0.1267,0,0,0,0
601,1.249,12.338,0.12754,0,0,0,0
602,1.254,12.34,0.12852,0,0,0,0
603,1.2595,12.339,0.12953,0,0,0,0
604,1.2654,12.341,0.13045,0,0,0,0
605,1.2716,12.346,0.13113,0,0,0,0
606,1.2774,12.351,0.13214,0,0,0,0
607,1.2831,12.35,0.13338,0,0,0,0
608,1.2887,12.354,0.1343,0,0,0,0
609,1.2944,12.357,0.13512,0,0,0,0
610,1.3002,12.361,0.13616,0,0,0,0
611,1.3064,12.364,0.13725,0,0,0,0
612,1.3121,12.365,0.13834,0,0,0,0
613,1.3178,12.367,0.13916,0,0,0,0
614,1.3235,12.369,0.13987,0,0,0,0
615,1.3294,12.372,0.14089,0,0,0,0
616,1.3354,12.374,0.14198,0,0,0,0
617,1.3417,12.376,0.14289,0,0,0,0
618,1.3475,12.384,0.144,0,0,0,0
619,1.353,12.38,0.14502,0,0,0,0
620,1.3587,12.381,0.14608,0,0,0,0
621,1.3645,12.382,0.14666,0,0,0,0
622,1.3713,12.386,0.14771,0,0,0,0
623,1.3773,12.385,0.14879,0,0,0,0
624,1.3828,12.388,0.14969,0,0,0,0
625,1.3887,12.389,0.15089,0,0,0,0
626,1.3949,12.388,0.15179,0,0,0,0
627,1.4011,12.389,0.15318,0,0,0,0
628,1.4078,12.394,0.15422,0,0,0,0
629,1.4137,12.392,0.15547,0,0,0,0
630,1.4193,12.393,0.15619,0,0,0,0
631,1.4253,12.395,0.15775,0,0,0,0
632,1.4318,12.393,0.15885,0,0,0,0
633,1.4381,12.396,0.1602,0,0,0,0
634,1.4443,12.391,0.16147,0,0,0,0
635,1.45,12.394,0.1627,0,0,0,0
636,1.4561,12.394,0.16391,0,0,0,0
637,1.4624,12.396,0.16509,0,0,0,0
638,1.4694,12.395,0.16629,0,0,0,0
639,1.4751,12.396,0.16743,0,0,0,0
640,1.4808,12.394,0.16903,0,0,0,0
641,1.4874,12.394,0.1702,0,0,0,0
642,1.4935,12.397,0.17146,0,0,0,0
643,1.5003,12.395,0.17262,0,0,0,0
644,1.5065,12.396,0.17379,0,0,0,0
645,1.5127,12.396,0.17535,0,0,0,0
646,1.5187,12.395,0.17674,0,0,0,0
647,1.5247,12.396,0.17804,0,0,0,0
648,1.5314,12.396,0.17925,0,0,0,0
649,1.5378,12.395,0.18069,0,0,0,0
650,1.5442,12.399,0.18188,0,0,0,0
651,1.5502,12.394,0.18337,0,0,0,0
652,1.5562,12.391,0.18464,0,0,0,0
653,1.5629,12.391,0.1859,0,0,0,0
654,1.5694,12.389,0.1875,0,0,0,0
655,1.5757,12.386,0.18918,0,0,0,0
656,1.5818,12.386,0.19063,0,0,0,0
657,1.588,12.385,0.19236,0,0,0,0
658,1.5945,12.385,0.19392,0,0,0,0
659,1.601,12.384,0.19526,0,0,0,0
660,1.6076,12.381,0.19659,0,0,0,0
661,1.6137,12.381,0.19823,0,0,0,0
662,1.6202,12.378,0.19961,0,0,0,0
663,1.6263,12.374,0.20119,0,0,0,0
664,1.6333,12.374,0.20293,0,0,0,0
665,1.6399,12.371,0.20478,0,0,0,0
666,1.6461,12.371,0.20654,0,0,0,0
667,1.6524,12.37,0.20822,0,0,0,0
668,1.6591,12.362,0.21003,0,0,0,0
669,1.6659,12.362,0.21153,0,0,0,0
670,1.6728,12.36,0.21325,0,0,0,0
671,1.6794,12.354,0.21519,0,0,0,0
672,1.6856,12.351,0.21721,0,0,0,0
673,1.6919,12.346,0.21867,0,0,0,0
674,1.699,12.347,0.22074,0,0,0,0
675,1.7058,12.343,0.22239,0,0,0,0
676,1.7125,12.338,0.22444,0,0,0,0
677,1.7189,12.336,0.2263,0,0,0,0
678,1.7255,12.333,0.22835,0,0,0,0
679,1.7321,12.328,0.23012,0,0,0,0
680,1.7391,12.325,0.23224,0,0,0,0
681,1.746,12.321,0.23414,0,0,0,0
682,1.7526,12.318,0.23607,0,0,0,0
683,1.7597,12.313,0.23804,0,0,0,0
684,1.7662,12.31,0.23985,0,0,0,0
685,1.7737,12.305,0.24192,0,0,0,0
686,1.7798,12.3,0.24399,0,0,0,0
687,1.7865,12.294,0.246,0,0,0,0
688,1.7931,12.289,0.24785,0,0,0,0
689,1.8003,12.281,0.24998,0,0,0,0
690,1.8074,12.279,0.25193,0,0,0,0
691,1.8141,12.271,0.25395,0,0,0,0
692,1.8207,12.264,0.25636,0,0,0,0
693,1.8276,12.261,0.2584,0,0,0,0
694,1.8348,12.256,0.26074,0,0,0,0
695,1.8422,12.247,0.26301,0,0,0,0
696,1.8489,12.242,0.26534,0,0,0,0
697,1.8557,12.235,0.26767,0,0,0,0
698,1.8621,12.231,0.27005,0,0,0,0
699,1.8695,12.222,0.27239,0,0,0,0
700,1.8768,12.212,0.27481,0,0,0,0
701,1.8839,12.208,0.27737,0,0,0,0
702,1.8905,12.201,0.27942,0,0,0,0
703,1.8971,12.193,0.28213,0,0,0,0
704,1.9049,12.184,0.28465,0,0,0,0
705,1.912,12.177,0.28704,0,0,0,0
706,1.9188,12.168,0.28982,0,0,0,0
707,1.9256,12.16,0.29268,0,0,0,0
708,1.9328,12.154,0.2953,0,0,0,0
709,1.9403,12.145,0.29791,0,0,0,0
710,1.9477,12.133,0.30077,0,0,0,0
711,1.9548,12.124,0.30336,0,0,0,0
712,1.9615,12.116,0.30625,0,0,0,0
713,1.969,12.104,0.30939,0,0,0,0
714,1.9763,12.094,0.31238,0,0,0,0
715,1.9842,12.085,0.3152,0,0,0,0
716,1.991,12.073,0.31773,0,0,0,0
717,1.9981,12.062,0.32071,0,0,0,0
718,2.0053,12.049,0.32377,0,0,0,0
719,2.0132,12.037,0.32701,0,0,0,0
720,2.0204,12.025,0.32991,0,0,0,0
721,2.0274,12.011,0.33306,0,0,0,0
722,2.0349,11.994,0.33589,0,0,0,0
723,2.0423,11.98,0.33908,0,0,0,0
724,2.0505,11.96,0.34228,0,0,0,0
725,2.0579,11.941,0.34563,0,0,0,0
726,2.066,11.914,0.34974,0,0,0,0
726.5,2.0705,11.892,0.35197,0,0,0,0