File: polyN_optimization/DP780_results/DATA/CH_90_1.csv
Time[s],Displacement[mm],Force[kN],AxStrain_1,AxStrain_2,Thickness[mm],OuterWidth[mm],Diameter[mm]
0,0,-0.039778,0,0,1.4959,20,5
1,0.00082,-0.0031129,2.00E-06,2.00E-06,0,0,0
2,0.00074,0.066851,-1.70E-05,-1.70E-05,0,0,0
3,0.001211,0.13072,9.40E-05,9.40E-05,0,0,0
4,0.001271,0.18291,-9.40E-05,-9.40E-05,0,0,0
5,0.001113,0.22983,6.30E-05,6.30E-05,0,0,0
6,0.001242,0.27325,-5.50E-05,-5.50E-05,0,0,0
7,0.000748,0.31666,-7.80E-05,-7.80E-05,0,0,0
8,0.000964,0.36325,0.00025697,0.00025697,0,0,0
9,0.000704,0.4061,0.00010199,0.00010199,0,0,0
10,0.000855,0.44688,0.00022897,0.00022897,0,0,0
11,0.002374,0.48845,0.00013399,0.00013399,0,0,0
12,0.002173,0.52764,0.00020498,0.00020498,0,0,0
13,0.002204,0.56739,0.00012899,0.00012899,0,0,0
14,0.002905,0.60862,0.00022497,0.00022497,0,0,0
15,0.003085,0.64819,0.00023297,0.00023297,0,0,0
16,0.002916,0.68704,-7.10E-05,-7.10E-05,0,0,0
17,0.003025,0.73056,-4.50E-05,-4.50E-05,0,0,0
18,0.002777,0.77122,-0.00013501,-0.00013501,0,0,0
19,0.002679,0.80871,6.00E-05,6.00E-05,0,0,0
20,0.002661,0.84721,-5.30E-05,-5.30E-05,0,0,0
21,0.00292,0.88811,0.00010899,0.00010899,0,0,0
22,0.002808,0.92911,0.00034194,0.00034194,0,0,0
23,0.002969,0.96784,0.0004479,0.0004479,0,0,0
24,0.003421,1.0036,0.0004549,0.0004549,0,0,0
25,0.003662,1.0449,0.00042491,0.00042491,0,0,0
26,0.00411,1.0848,0.00048488,0.00048488,0,0,0
27,0.004452,1.1225,0.00033894,0.00033894,0,0,0
28,0.004863,1.1588,0.00010199,0.00010199,0,0,0
29,0.004449,1.1932,0.00010499,0.00010499,0,0,0
30,0.004491,1.2286,0.00029696,0.00029696,0,0,0
31,0.004318,1.2662,1.50E-05,1.50E-05,0,0,0
32,0.004112,1.3002,0.00010199,0.00010199,0,0,0
33,0.004184,1.3323,0.00016199,0.00016199,0,0,0
34,0.004218,1.369,4.50E-05,4.50E-05,0,0,0
35,0.004549,1.404,0.00038393,0.00038393,0,0,0
36,0.004358,1.4368,0.00015099,0.00015099,0,0,0
37,0.004712,1.4715,0.00053086,0.00053086,0,0,0
38,0.005792,1.5031,0.00037993,0.00037993,0,0,0
39,0.006229,1.5384,0.00024897,0.00024897,0,0,0
40,0.00641,1.5717,0.00034594,0.00034594,0,0,0
41,0.006147,1.6023,0.00018798,0.00018798,0,0,0
42,0.00585,1.6343,0.00022997,0.00022997,0,0,0
43,0.005677,1.6672,8.70E-05,8.70E-05,0,0,0
44,0.005519,1.6991,0.00021798,0.00021798,0,0,0
45,0.005678,1.7311,0.00023697,0.00023697,0,0,0
46,0.005799,1.7616,0.00039892,0.00039892,0,0,0
47,0.006348,1.7904,0.00051587,0.00051587,0,0,0
48,0.007064,1.8241,0.00060981,0.00060981,0,0,0
49,0.007674,1.8546,0.00067377,0.00067377,0,0,0
50,0.007776,1.8858,0.00038393,0.00038393,0,0,0
51,0.00766,1.9164,0.00065079,0.00065079,0,0,0
52,0.007281,1.9476,0.00039892,0.00039892,0,0,0
53,0.007003,1.9784,0.00028596,0.00028596,0,0,0
54,0.006929,2.0096,0.00037293,0.00037293,0,0,0
55,0.006983,2.0408,0.00036493,0.00036493,0,0,0
56,0.007056,2.0693,0.0004369,0.0004369,0,0,0
57,0.007534,2.0975,0.00040292,0.00040292,0,0,0
58,0.008217,2.1307,0.0006398,0.0006398,0,0,0
59,0.008771,2.1606,0.00057983,0.00057983,0,0,0
60,0.009348,2.1881,0.00065479,0.00065479,0,0,0
61,0.009594,2.2191,0.00067377,0.00067377,0,0,0
62,0.009444,2.2469,0.00052386,0.00052386,0,0,0
63,0.008749,2.2793,0.00032095,0.00032095,0,0,0
64,0.00845,2.3101,0.00030195,0.00030195,0,0,0
65,0.008206,2.3373,0.00039992,0.00039992,0,0,0
66,0.008339,2.3699,0.00020498,0.00020498,0,0,0
67,0.008442,2.4017,0.00031795,0.00031795,0,0,0
68,0.008811,2.4298,0.00029096,0.00029096,0,0,0
69,0.009558,2.4596,0.00052086,0.00052086,0,0,0
70,0.010086,2.4903,0.00033294,0.00033294,0,0,0
71,0.010321,2.5177,0.00035894,0.00035894,0,0,0
72,0.011052,2.5482,0.00043391,0.00043391,0,0,0
73,0.010911,2.5777,0.00056184,0.00056184,0,0,0
74,0.010529,2.6046,0.00074272,0.00074272,0,0,0
75,0.009915,2.6322,0.00023797,0.00023797,0,0,0
76,0.009797,2.665,0.00032495,0.00032495,0,0,0
77,0.009633,2.694,0.00032795,0.00032795,0,0,0
78,0.009941,2.718,0.00033194,0.00033194,0,0,0
79,0.009947,2.7476,0.0004369,0.0004369,0,0,0
80,0.010653,2.7762,0.00050887,0.00050887,0,0,0
81,0.011046,2.805,0.00057284,0.00057284,0,0,0
82,0.011895,2.832,0.00068576,0.00068576,0,0,0
83,0.012296,2.8618,0.00069676,0.00069676,0,0,0
84,0.012637,2.8918,0.00090459,0.00090459,0,0,0
85,0.012289,2.918,0.00074272,0.00074272,0,0,0
86,0.011858,2.9451,0.00082966,0.00082966,0,0,0
87,0.011574,2.9726,0.00056284,0.00056284,0,0,0
88,0.011233,2.9968,0.00060382,0.00060382,0,0,0
89,0.010949,3.0271,0.0004389,0.0004389,0,0,0
90,0.011407,3.055,0.00025097,0.00025097,0,0,0
91,0.011443,3.0807,0.00028196,0.00028196,0,0,0
92,0.012002,3.109,0.00050387,0.00050387,0,0,0
93,0.01288,3.1381,0.0006248,0.0006248,0,0,0
94,0.013447,3.1624,0.00042091,0.00042091,0,0,0
95,0.014136,3.1917,0.00081667,0.00081667,0,0,0
96,0.013981,3.2159,0.00074172,0.00074172,0,0,0
97,0.013653,3.2463,0.00055684,0.00055684,0,0,0
98,0.013063,3.272,0.00060382,0.00060382,0,0,0
99,0.01222,3.3007,0.00049688,0.00049688,0,0,0
100,0.012343,3.328,0.00053086,0.00053086,0,0,0
101,0.012297,3.3531,0.00031995,0.00031995,0,0,0
102,0.012225,3.3839,0.00030095,0.00030095,0,0,0
103,0.013317,3.4088,0.00027096,0.00027096,0,0,0
104,0.013861,3.4374,0.00066978,0.00066978,0,0,0
105,0.014756,3.4642,0.00067977,0.00067977,0,0,0
106,0.015267,3.4912,0.00061281,0.00061281,0,0,0
107,0.015627,3.5183,0.00083065,0.00083065,0,0,0
108,0.015645,3.545,0.00094355,0.00094355,0,0,0
109,0.015351,3.5708,0.0008906,0.0008906,0,0,0
110,0.014861,3.6005,0.00062381,0.00062381,0,0,0
111,0.014311,3.6295,0.00080867,0.00080867,0,0,0
112,0.014278,3.6544,0.00069576,0.00069576,0,0,0
113,0.014206,3.6806,0.00051487,0.00051487,0,0,0
114,0.014361,3.7071,0.00057983,0.00057983,0,0,0
115,0.014719,3.7339,0.00047489,0.00047489,0,0,0
116,0.015646,3.759,0.00053885,0.00053885,0,0,0
117,0.016546,3.7873,0.00073473,0.00073473,0,0,0
118,0.017404,3.8171,0.00093856,0.00093856,0,0,0
119,0.017489,3.8417,0.0008936,0.0008936,0,0,0
120,0.017389,3.8682,0.00093656,0.00093656,0,0,0
121,0.017213,3.8945,0.00073673,0.00073673,0,0,0
122,0.016212,3.921,0.00093756,0.00093756,0,0,0
123,0.015764,3.9473,0.00087362,0.00087362,0,0,0
124,0.015806,3.9748,0.00061081,0.00061081,0,0,0
125,0.015546,4.0017,0.00061181,0.00061181,0,0,0
126,0.015738,4.0287,0.00038593,0.00038593,0,0,0
127,0.016118,4.0542,0.00061181,0.00061181,0,0,0
128,0.016987,4.0796,0.00057284,0.00057284,0,0,0
129,0.017743,4.1063,0.00061181,0.00061181,0,0,0
130,0.018726,4.1323,0.00034594,0.00034594,0,0,0
131,0.018466,4.1595,0.00079768,0.00079768,0,0,0
132,0.018433,4.186,0.00083465,0.00083465,0,0,0
133,0.01825,4.2099,0.00075871,0.00075871,0,0,0
134,0.017579,4.2364,0.00090959,0.00090959,0,0,0
135,0.017509,4.2628,0.00087162,0.00087162,0,0,0
136,0.017102,4.2884,0.00087162,0.00087162,0,0,0
137,0.017107,4.3143,0.00060782,0.00060782,0,0,0
138,0.0173,4.3405,0.00057084,0.00057084,0,0,0
139,0.018133,4.3691,0.00060881,0.00060881,0,0,0
140,0.018515,4.3942,0.00053286,0.00053286,0,0,0
141,0.019497,4.4184,0.00068377,0.00068377,0,0,0
142,0.019916,4.4439,0.00083465,0.00083465,0,0,0
143,0.020146,4.4716,0.0010604,0.0010604,0,0,0
144,0.020337,4.4968,0.0010604,0.0010604,0,0,0
145,0.019664,4.5236,0.0010994,0.0010994,0,0,0
146,0.019478,4.5492,0.0011004,0.0011004,0,0,0
147,0.019106,4.5746,0.0010624,0.0010624,0,0,0
148,0.018771,4.599,0.00091358,0.00091358,0,0,0
149,0.018663,4.6256,0.00080068,0.00080068,0,0,0
150,0.018931,4.6516,0.00068976,0.00068976,0,0,0
151,0.0195,4.6776,0.00057783,0.00057783,0,0,0
152,0.020144,4.704,0.00061581,0.00061581,0,0,0
153,0.020602,4.7307,0.00050487,0.00050487,0,0,0
154,0.021398,4.7557,0.00050587,0.00050587,0,0,0
155,0.02163,4.7792,0.00054285,0.00054285,0,0,0
156,0.021749,4.8052,0.00061881,0.00061881,0,0,0
157,0.021682,4.8307,0.00073173,0.00073173,0,0,0
158,0.020973,4.8597,0.00069376,0.00069376,0,0,0
159,0.02083,4.8829,0.00091758,0.00091758,0,0,0
160,0.020234,4.9068,0.00076771,0.00076771,0,0,0
161,0.020127,4.9347,0.00091758,0.00091758,0,0,0
162,0.020434,4.9594,0.00069076,0.00069076,0,0,0
163,0.021003,4.9857,0.00065379,0.00065379,0,0,0
164,0.021572,5.0093,0.00046389,0.00046389,0,0,0
165,0.022595,5.0342,0.00061281,0.00061281,0,0,0
166,0.02305,5.0589,0.00083965,0.00083965,0,0,0
167,0.023244,5.0851,0.00095155,0.00095155,0,0,0
168,0.022911,5.1067,0.0011394,0.0011394,0,0,0
169,0.022879,5.1334,0.0010255,0.0010255,0,0,0
170,0.022471,5.1563,0.0011394,0.0011394,0,0,0
171,0.021686,5.1834,0.0010644,0.0010644,0,0,0
172,0.021618,5.2078,0.0010644,0.0010644,0,0,0
173,0.021774,5.2342,0.0012902,0.0012902,0,0,0
174,0.021895,5.2587,0.00099051,0.00099051,0,0,0
175,0.022276,5.2847,0.00095255,0.00095255,0,0,0
176,0.023488,5.3127,0.00095355,0.00095355,0,0,0
177,0.02376,5.3376,0.00072873,0.00072873,0,0,0
178,0.024669,5.3612,0.00087961,0.00087961,0,0,0
179,0.024755,5.3881,0.00091758,0.00091758,0,0,0
180,0.024951,5.4142,0.00095654,0.00095654,0,0,0
181,0.024208,5.4389,0.00091958,0.00091958,0,0,0
182,0.023687,5.4622,0.0012582,0.0012582,0,0,0
183,0.023359,5.4877,0.0013351,0.0013351,0,0,0
184,0.023137,5.5123,0.0011104,0.0011104,0,0,0
185,0.023445,5.5389,0.0012612,0.0012612,0,0,0
186,0.023751,5.5644,0.0010754,0.0010754,0,0,0
187,0.023761,5.5881,0.0010385,0.0010385,0,0,0
188,0.025007,5.6126,0.0008896,0.0008896,0,0,0
189,0.025728,5.6421,0.0008896,0.0008896,0,0,0
190,0.025884,5.6631,0.00070175,0.00070175,0,0,0
191,0.026192,5.6882,0.00081467,0.00081467,0,0,0
192,0.026235,5.7127,0.0008906,0.0008906,0,0,0
193,0.025978,5.7396,0.00081467,0.00081467,0,0,0
194,0.025609,5.7651,0.0010025,0.0010025,0,0,0
195,0.025127,5.7891,0.0011144,0.0011144,0,0,0
196,0.024983,5.8135,0.0012642,0.0012642,0,0,0
197,0.024993,5.8393,0.0013741,0.0013741,0,0,0
198,0.025151,5.8638,0.0010365,0.0010365,0,0,0
199,0.02595,5.887,0.0010345,0.0010345,0,0,0
200,0.02656,5.911,0.00095854,0.00095854,0,0,0
201,0.027134,5.9355,0.00084664,0.00084664,0,0,0
202,0.027595,5.9624,0.00088261,0.00088261,0,0,0
203,0.027793,5.9873,0.0010704,0.0010704,0,0,0
204,0.028139,6.0096,0.0012592,0.0012592,0,0,0
205,0.027996,6.0332,0.0011833,0.0011833,0,0,0
206,0.02793,6.0581,0.0012582,0.0012582,0,0,0
207,0.027488,6.0838,0.001409,0.001409,0,0,0
208,0.027006,6.1087,0.0015598,0.0015598,0,0,0
209,0.026821,6.1292,0.0018233,0.0018233,0,0,0
210,0.027094,6.1551,0.0016736,0.0016736,0,0,0
211,0.027665,6.18,0.0015618,0.0015618,0,0,0
212,0.028236,6.2043,0.0012992,0.0012992,0,0,0
213,0.028656,6.2295,0.0011873,0.0011873,0,0,0
214,0.029227,6.2543,0.0011873,0.0011873,0,0,0
215,0.029158,6.277,0.0010754,0.0010754,0,0,0
216,0.029241,6.3008,0.0011913,0.0011913,0,0,0
217,0.029173,6.3247,0.0013421,0.0013421,0,0,0
218,0.029181,6.3472,0.0013041,0.0013041,0,0,0
219,0.028888,6.3703,0.0015328,0.0015328,0,0,0
220,0.028973,6.3928,0.0015328,0.0015328,0,0,0
221,0.02857,6.4206,0.0014599,0.0014599,0,0,0
222,0.028729,6.4442,0.0016496,0.0016496,0,0,0
223,0.029416,6.4676,0.001388,0.001388,0,0,0
224,0.029994,6.4881,0.0012762,0.0012762,0,0,0
225,0.030418,6.5118,0.0012033,0.0012033,0,0,0
226,0.030919,6.5384,0.00143,0.00143,0,0,0
227,0.030966,6.5581,0.0010524,0.0010524,0,0,0
228,0.031314,6.5805,0.0010185,0.0010185,0,0,0
229,0.031324,6.604,0.0012412,0.0012412,0,0,0
230,0.030956,6.6265,0.0011284,0.0011284,0,0,0
231,0.030739,6.6519,0.0012412,0.0012412,0,0,0
232,0.030785,6.6742,0.0012382,0.0012382,0,0,0
233,0.030343,6.6991,0.0013491,0.0013491,0,0,0
234,0.030728,6.723,0.0016506,0.0016506,0,0,0
235,0.03115,6.7442,0.0017235,0.0017235,0,0,0
236,0.031647,6.7683,0.0014599,0.0014599,0,0,0
237,0.031882,6.7894,0.001422,0.001422,0,0,0
238,0.032417,6.8108,0.0014959,0.0014959,0,0,0
239,0.03284,6.834,0.0011573,0.0011573,0,0,0
240,0.032848,6.8566,0.001381,0.001381,0,0,0
241,0.032783,6.877,0.0011573,0.0011573,0,0,0
242,0.032793,6.8996,0.00138,0.00138,0,0,0
243,0.032655,6.9243,0.0015688,0.0015688,0,0,0
244,0.032668,6.9465,0.0015308,0.0015308,0,0,0
245,0.032604,6.9708,0.0016436,0.0016436,0,0,0
246,0.032953,6.9947,0.0019072,0.0019072,0,0,0
247,0.033044,7.0193,0.0020948,0.0020948,0,0,0
248,0.03347,7.0414,0.0017944,0.0017944,0,0,0
249,0.034275,7.0641,0.0017964,0.0017964,0,0,0
250,0.033872,7.0856,0.0016836,0.0016836,0,0,0
251,0.034148,7.1104,0.0016486,0.0016486,0,0,0
252,0.034422,7.1315,0.0014979,0.0014979,0,0,0
253,0.034354,7.156,0.001388,0.001388,0,0,0
254,0.034667,7.1785,0.0013131,0.0013131,0,0,0
255,0.034567,7.1995,0.0013511,0.0013511,0,0,0
256,0.034876,7.2263,0.0015388,0.0015388,0,0,0
257,0.035073,7.2461,0.0016167,0.0016167,0,0,0
258,0.034817,7.2712,0.0018064,0.0018064,0,0,0
259,0.035317,7.2964,0.0019212,0.0019212,0,0,0
260,0.035628,7.3181,0.0019202,0.0019202,0,0,0
261,0.035751,7.3405,0.0019241,0.0019241,0,0,0
262,0.036137,7.3642,0.0016996,0.0016996,0,0,0
263,0.036296,7.3908,0.0017405,0.0017405,0,0,0
264,0.03631,7.4126,0.00144,0.00144,0,0,0
265,0.03662,7.4342,0.001407,0.001407,0,0,0
266,0.036857,7.4571,0.001406,0.001406,0,0,0
267,0.036605,7.4792,0.0014829,0.0014829,0,0,0
268,0.036766,7.5013,0.0015238,0.0015238,0,0,0
269,0.036929,7.525,0.0016337,0.0016337,0,0,0
270,0.037278,7.5495,0.0015957,0.0015957,0,0,0
271,0.037331,7.5697,0.0015967,0.0015967,0,0,0
272,0.037567,7.5949,0.0017864,0.0017864,0,0,0
273,0.037997,7.6187,0.0020858,0.0020858,0,0,0
274,0.038387,7.6399,0.002013,0.002013,0,0,0
275,0.038286,7.6658,0.0018613,0.0018613,0,0,0
276,0.038527,7.6895,0.0017475,0.0017475,0,0,0
277,0.038878,7.7099,0.0017055,0.0017055,0,0,0
278,0.038737,7.7354,0.0015178,0.0015178,0,0,0
279,0.038972,7.7555,0.0014829,0.0014829,0,0,0
280,0.039097,7.7796,0.0016666,0.0016666,0,0,0
281,0.039487,7.8038,0.0016676,0.0016676,0,0,0
282,0.039873,7.8216,0.0017415,0.0017415,0,0,0
283,0.04011,7.8453,0.0020788,0.0020788,0,0,0
284,0.040345,7.872,0.002002,0.002002,0,0,0
285,0.040429,7.8963,0.0020409,0.0020409,0,0,0
286,0.040628,7.9189,0.0021527,0.0021527,0,0,0
287,0.040564,7.9403,0.0022654,0.0022654,0,0,0
288,0.040838,7.9624,0.0022634,0.0022634,0,0,0
289,0.040849,7.989,0.0020379,0.0020379,0,0,0
290,0.040855,8.0115,0.0018892,0.0018892,0,0,0
291,0.041394,8.0359,0.0018872,0.0018872,0,0,0
292,0.041479,8.0583,0.0019631,0.0019631,0,0,0
293,0.041904,8.0814,0.0018124,0.0018124,0,0,0
294,0.041801,8.1059,0.001999,0.001999,0,0,0
295,0.042113,8.1296,0.0022235,0.0022235,0,0,0
296,0.042801,8.153,0.0022984,0.0022984,0,0,0
297,0.04255,8.1771,0.0025996,0.0025996,0,0,0
298,0.04286,8.2001,0.0026385,0.0026385,0,0,0
299,0.042915,8.2235,0.0024111,0.0024111,0,0,0
300,0.042924,8.2469,0.0026016,0.0026016,0,0,0
301,0.042899,8.2703,0.0025248,0.0025248,0,0,0
302,0.043173,8.2899,0.0022634,0.0022634,0,0,0
303,0.043522,8.3119,0.0021866,0.0021866,0,0,0
304,0.043577,8.3374,0.0022624,0.0022624,0,0,0
305,0.043402,8.3603,0.002001,0.002001,0,0,0
306,0.044882,8.386,0.0022245,0.0022245,0,0,0
307,0.045302,8.4099,0.0023752,0.0023752,0,0,0
308,0.045655,8.4336,0.0026026,0.0026026,0,0,0
309,0.045407,8.4553,0.0029018,0.0029018,0,0,0
310,0.045531,8.4797,0.0030164,0.0030164,0,0,0
311,0.045394,8.5016,0.0029786,0.0029786,0,0,0
312,0.045707,8.5269,0.0030174,0.0030174,0,0,0
313,0.04568,8.5493,0.0030174,0.0030174,0,0,0
314,0.045694,8.5721,0.0027173,0.0027173,0,0,0
315,0.046269,8.5963,0.0026794,0.0026794,0,0,0
316,0.046505,8.6176,0.0023433,0.0023433,0,0,0
317,0.046894,8.6438,0.0024939,0.0024939,0,0,0
318,0.04848,8.6661,0.0026435,0.0026435,0,0,0
319,0.048375,8.6917,0.0027562,0.0027562,0,0,0
320,0.048842,8.7167,0.0028709,0.0028709,0,0,0
321,0.048665,8.7397,0.0029825,0.0029825,0,0,0
322,0.048148,8.7623,0.003472,0.003472,0,0,0
323,0.04778,8.7836,0.0034331,0.0034331,0,0,0
324,0.047902,8.8078,0.0034361,0.0034361,0,0,0
325,0.048177,8.8338,0.0033603,0.0033603,0,0,0
326,0.048601,8.8582,0.0033972,0.0033972,0,0,0
327,0.049021,8.8784,0.0030613,0.0030613,0,0,0
328,0.049258,8.9024,0.0029128,0.0029128,0,0,0
329,0.050473,8.9272,0.0029875,0.0029875,0,0,0
330,0.051122,8.9509,0.0027273,0.0027273,0,0,0
331,0.051882,8.9719,0.0031411,0.0031411,0,0,0
332,0.05227,9.0005,0.0031769,0.0031769,0,0,0
333,0.051979,9.0251,0.0032517,0.0032517,0,0,0
334,0.051613,9.0455,0.0035547,0.0035547,0,0,0
335,0.051583,9.0721,0.0038914,0.0038914,0,0,0
336,0.05133,9.0953,0.0038536,0.0038536,0,0,0
337,0.051643,9.1164,0.0038914,0.0038914,0,0,0
338,0.051726,9.1405,0.0038536,0.0038536,0,0,0
339,0.052264,9.165,0.0036284,0.0036284,0,0,0
340,0.052686,9.1887,0.0032926,0.0032926,0,0,0
341,0.053373,9.2152,0.0032577,0.0032577,0,0,0
342,0.05455,9.2372,0.0033334,0.0033334,0,0,0
343,0.055046,9.2631,0.0033314,0.0033314,0,0,0
344,0.054607,9.287,0.0034461,0.0034461,0,0,0
345,0.055369,9.3104,0.0035577,0.0035577,0,0,0
346,0.055305,9.3361,0.0038964,0.0038964,0,0,0
347,0.054865,9.3618,0.0040458,0.0040458,0,0,0
348,0.054835,9.3853,0.004234,0.004234,0,0,0
349,0.054921,9.4074,0.004234,0.004234,0,0,0
350,0.055499,9.4329,0.0043097,0.0043097,0,0,0
351,0.056106,9.4559,0.0041972,0.0041972,0,0,0
352,0.056869,9.4805,0.0038625,0.0038625,0,0,0
353,0.057859,9.5052,0.0035626,0.0035626,0,0,0
354,0.058733,9.5262,0.003749,0.003749,0,0,0
355,0.059457,9.5512,0.0038267,0.0038267,0,0,0
356,0.059242,9.5769,0.0039402,0.0039402,0,0,0
357,0.059594,9.6014,0.0040159,0.0040159,0,0,0
358,0.059115,9.6257,0.0043525,0.0043525,0,0,0
359,0.059091,9.6481,0.0046173,0.0046173,0,0,0
360,0.059026,9.6725,0.0048024,0.0048024,0,0,0
361,0.059036,9.6951,0.0048383,0.0048383,0,0,0
362,0.059724,9.7203,0.00469,0.00469,0,0,0
363,0.06052,9.746,0.0043933,0.0043933,0,0,0
364,0.061395,9.7705,0.0043565,0.0043565,0,0,0
365,0.062457,9.795,0.0040906,0.0040906,0,0,0
366,0.063148,9.82,0.0041315,0.0041315,0,0,0
367,0.063342,9.8435,0.0043216,0.0043216,0,0,0
368,0.063691,9.8677,0.0044322,0.0044322,0,0,0
369,0.063663,9.8931,0.0046203,0.0046203,0,0,0
370,0.063183,9.9173,0.0049577,0.0049577,0,0,0
371,0.063305,9.9416,0.0051816,0.0051816,0,0,0
372,0.063237,9.9642,0.0055565,0.0055565,0,0,0
373,0.063663,9.989,0.0057435,0.0057435,0,0,0
374,0.064494,10.012,0.0055207,0.0055207,0,0,0
375,0.065555,10.038,0.0051835,0.0051835,0,0,0
376,0.066317,10.063,0.004885,0.004885,0,0,0
377,0.066403,10.088,0.0048094,0.0048094,0,0,0
378,0.0675,10.116,0.0049607,0.0049607,0,0,0
379,0.068148,10.14,0.0049617,0.0049617,0,0,0
380,0.067968,10.164,0.0050363,0.0050363,0,0,0
381,0.068465,10.187,0.0053735,0.0053735,0,0,0
382,0.067868,10.214,0.0057087,0.0057087,0,0,0
383,0.068106,10.24,0.0062305,0.0062305,0,0,0
384,0.068224,10.264,0.0062673,0.0062673,0,0,0
385,0.068908,10.286,0.0063786,0.0063786,0,0,0
386,0.070268,10.313,0.0063438,0.0063438,0,0,0
387,0.0708,10.338,0.0058608,0.0058608,0,0,0
388,0.071447,10.361,0.0055973,0.0055973,0,0,0
389,0.072055,10.387,0.0055615,0.0055615,0,0,0
390,0.072513,10.41,0.0056759,0.0056759,0,0,0
391,0.072975,10.436,0.0058956,0.0058956,0,0,0
392,0.072983,10.459,0.0060079,0.0060079,0,0,0
393,0.073288,10.484,0.0062325,0.0062325,0,0,0
394,0.073522,10.507,0.0066429,0.0066429,0,0,0
395,0.073864,10.533,0.0070541,0.0070541,0,0,0
396,0.07455,10.557,0.0074273,0.0074273,0,0,0
397,0.075536,10.58,0.0074264,0.0074264,0,0,0
398,0.075953,10.605,0.0069051,0.0069051,0,0,0
399,0.076339,10.628,0.0067561,0.0067561,0,0,0
400,0.076871,10.653,0.0064968,0.0064968,0,0,0
401,0.077178,10.679,0.0063081,0.0063081,0,0,0
402,0.077748,10.703,0.0064561,0.0064561,0,0,0
403,0.078055,10.727,0.0066459,0.0066459,0,0,0
404,0.078663,10.748,0.0067174,0.0067174,0,0,0
405,0.079342,10.775,0.0073916,0.0073916,0,0,0
406,0.080065,10.8,0.0078005,0.0078005,0,0,0
407,0.080673,10.824,0.0080981,0.0080981,0,0,0
408,0.081318,10.851,0.0080257,0.0080257,0,0,0
409,0.08174,10.877,0.0078749,0.0078749,0,0,0
410,0.081969,10.899,0.0076913,0.0076913,0,0,0
411,0.082464,10.925,0.0074661,0.0074661,0,0,0
412,0.082431,10.948,0.0072775,0.0072775,0,0,0
413,0.083079,10.971,0.0075395,0.0075395,0,0,0
414,0.083763,10.996,0.0076139,0.0076139,0,0,0
415,0.084555,11.02,0.0076894,0.0076894,0,0,0
416,0.085464,11.043,0.0082122,0.0082122,0,0,0
417,0.086446,11.067,0.0087694,0.0087694,0,0,0
418,0.087618,11.091,0.0090697,0.0090697,0,0,0
419,0.087924,11.119,0.0091431,0.0091431,0,0,0
420,0.088343,11.144,0.0092897,0.0092897,0,0,0
421,0.088348,11.168,0.0089915,0.0089915,0,0,0
422,0.088616,11.195,0.0088458,0.0088458,0,0,0
423,0.088958,11.218,0.0086991,0.0086991,0,0,0
424,0.089418,11.243,0.0085811,0.0085811,0,0,0
425,0.090213,11.267,0.0085841,0.0085841,0,0,0
426,0.091121,11.29,0.0086584,0.0086584,0,0,0
427,0.092366,11.317,0.0092164,0.0092164,0,0,0
428,0.093537,11.34,0.0097374,0.0097374,0,0,0
429,0.094781,11.364,0.010181,0.010181,0,0,0
430,0.095539,11.389,0.010555,0.010555,0,0,0
431,0.09596,11.413,0.010628,0.010628,0,0,0
432,0.096039,11.435,0.010665,0.010665,0,0,0
433,0.096193,11.459,0.010291,0.010291,0,0,0
434,0.096046,11.484,0.010032,0.010032,0,0,0
435,0.096652,11.51,0.009885,0.009885,0,0,0
436,0.097563,11.532,0.0099592,0.0099592,0,0,0
437,0.098392,11.561,0.0099959,0.0099959,0,0,0
438,0.099564,11.582,0.010328,0.010328,0,0,0
439,0.10085,11.606,0.010737,0.010737,0,0,0
440,0.10194,11.631,0.011295,0.011295,0,0,0
441,0.10285,11.656,0.011668,0.011668,0,0,0
442,0.10338,11.68,0.012112,0.012112,0,0,0
443,0.10364,11.703,0.011778,0.011778,0,0,0
444,0.10403,11.726,0.011776,0.011776,0,0,0
445,0.10444,11.752,0.011517,0.011517,0,0,0
446,0.10493,11.776,0.011368,0.011368,0,0,0
447,0.10558,11.803,0.011256,0.011256,0,0,0
448,0.10679,11.824,0.011255,0.011255,0,0,0
449,0.10814,11.849,0.011703,0.011703,0,0,0
450,0.10931,11.875,0.012335,0.012335,0,0,0
451,0.11018,11.898,0.012891,0.012891,0,0,0
452,0.11097,11.922,0.013,0.013,0,0,0
453,0.11173,11.945,0.01341,0.01341,0,0,0
454,0.11244,11.969,0.013667,0.013667,0,0,0
455,0.11316,11.993,0.013447,0.013447,0,0,0
456,0.1138,12.019,0.013372,0.013372,0,0,0
457,0.11459,12.043,0.012933,0.012933,0,0,0
458,0.11573,12.066,0.013117,0.013117,0,0,0
459,0.11697,12.09,0.013118,0.013118,0,0,0
460,0.11784,12.113,0.013086,0.013086,0,0,0
461,0.11821,12.137,0.014116,0.014116,0,0,0
462,0.11874,12.161,0.014303,0.014303,0,0,0
463,0.11999,12.185,0.014745,0.014745,0,0,0
464,0.12078,12.209,0.015225,0.015225,0,0,0
465,0.12165,12.234,0.015374,0.015374,0,0,0
466,0.12278,12.258,0.015409,0.015409,0,0,0
467,0.12414,12.282,0.015186,0.015186,0,0,0
468,0.12466,12.306,0.015259,0.015259,0,0,0
469,0.12639,12.329,0.015224,0.015224,0,0,0
470,0.1279,12.353,0.015038,0.015038,0,0,0
471,0.12813,12.375,0.015188,0.015188,0,0,0
472,0.12952,12.401,0.01552,0.01552,0,0,0
473,0.12956,12.424,0.016001,0.016001,0,0,0
474,0.12979,12.445,0.016518,0.016518,0,0,0
475,0.1304,12.469,0.016959,0.016959,0,0,0
476,0.13141,12.492,0.017069,0.017069,0,0,0
477,0.13295,12.516,0.017216,0.017216,0,0,0
478,0.13386,12.538,0.017215,0.017215,0,0,0
479,0.13604,12.561,0.017584,0.017584,0,0,0
480,0.13747,12.584,0.01718,0.01718,0,0,0
481,0.13878,12.608,0.017106,0.017106,0,0,0
482,0.13961,12.632,0.017254,0.017254,0,0,0
483,0.14026,12.653,0.01755,0.01755,0,0,0
484,0.1409,12.676,0.017884,0.017884,0,0,0
485,0.14131,12.7,0.018216,0.018216,0,0,0
486,0.14206,12.727,0.018659,0.018659,0,0,0
487,0.14311,12.746,0.018731,0.018731,0,0,0
488,0.14496,12.77,0.018952,0.018952,0,0,0
489,0.14635,12.792,0.019172,0.019172,0,0,0
490,0.14771,12.816,0.019394,0.019394,0,0,0
491,0.14929,12.839,0.019542,0.019542,0,0,0
492,0.15023,12.86,0.019284,0.019284,0,0,0
493,0.15087,12.883,0.019469,0.019469,0,0,0
494,0.15222,12.908,0.019692,0.019692,0,0,0
495,0.15293,12.928,0.020063,0.020063,0,0,0
496,0.15432,12.953,0.020209,0.020209,0,0,0
497,0.15534,12.976,0.020427,0.020427,0,0,0
498,0.15685,12.999,0.02076,0.02076,0,0,0
499,0.15828,13.021,0.021162,0.021162,0,0,0
500,0.15914,13.043,0.021309,0.021309,0,0,0
501,0.15986,13.065,0.021348,0.021348,0,0,0
502,0.1614,13.087,0.021679,0.021679,0,0,0
503,0.16204,13.11,0.021975,0.021975,0,0,0
504,0.1632,13.133,0.021792,0.021792,0,0,0
505,0.16414,13.154,0.021903,0.021903,0,0,0
506,0.16553,13.174,0.022234,0.022234,0,0,0
507,0.16771,13.2,0.022382,0.022382,0,0,0
508,0.16963,13.222,0.022713,0.022713,0,0,0
509,0.17113,13.245,0.022785,0.022785,0,0,0
510,0.17234,13.266,0.023261,0.023261,0,0,0
511,0.17362,13.286,0.023739,0.023739,0,0,0
512,0.17426,13.309,0.023996,0.023996,0,0,0
513,0.1752,13.331,0.02418,0.02418,0,0,0
514,0.17553,13.355,0.024289,0.024289,0,0,0
515,0.17674,13.376,0.024476,0.024476,0,0,0
516,0.17813,13.395,0.024735,0.024735,0,0,0
517,0.18016,13.417,0.025209,0.025209,0,0,0
518,0.18166,13.44,0.02521,0.02521,0,0,0
519,0.18377,13.462,0.025432,0.025432,0,0,0
520,0.18497,13.483,0.025575,0.025575,0,0,0
521,0.18629,13.504,0.025795,0.025795,0,0,0
522,0.18706,13.529,0.026089,0.026089,0,0,0
523,0.18876,13.551,0.026455,0.026455,0,0,0
524,0.19008,13.57,0.026859,0.026859,0,0,0
525,0.19158,13.59,0.027116,0.027116,0,0,0
526,0.19327,13.611,0.02748,0.02748,0,0,0
527,0.19485,13.635,0.027517,0.027517,0,0,0
528,0.19612,13.654,0.027884,0.027884,0,0,0
529,0.19752,13.676,0.028178,0.028178,0,0,0
530,0.19864,13.699,0.028327,0.028327,0,0,0
531,0.19966,13.721,0.028656,0.028656,0,0,0
532,0.20078,13.74,0.028948,0.028948,0,0,0
533,0.20202,13.762,0.029129,0.029129,0,0,0
534,0.20364,13.781,0.029568,0.029568,0,0,0
535,0.20563,13.802,0.029785,0.029785,0,0,0
536,0.20777,13.823,0.03004,0.03004,0,0,0
537,0.20965,13.846,0.030297,0.030297,0,0,0
538,0.21152,13.864,0.030698,0.030698,0,0,0
539,0.2128,13.883,0.030991,0.030991,0,0,0
540,0.21397,13.904,0.031466,0.031466,0,0,0
541,0.21494,13.926,0.031907,0.031907,0,0,0
542,0.21588,13.947,0.032046,0.032046,0,0,0
543,0.21712,13.964,0.032194,0.032194,0,0,0
544,0.21858,13.987,0.032342,0.032342,0,0,0
545,0.22038,14.009,0.032488,0.032488,0,0,0
546,0.22241,14.027,0.033032,0.033032,0,0,0
547,0.22414,14.048,0.033287,0.033287,0,0,0
548,0.22583,14.068,0.033614,0.033614,0,0,0
549,0.22726,14.088,0.034157,0.034157,0,0,0
550,0.22865,14.108,0.034486,0.034486,0,0,0
551,0.22989,14.13,0.035068,0.035068,0,0,0
552,0.23169,14.147,0.035358,0.035358,0,0,0
553,0.23319,14.168,0.035541,0.035541,0,0,0
554,0.23544,14.19,0.035758,0.035758,0,0,0
555,0.2375,14.211,0.036047,0.036047,0,0,0
556,0.23931,14.232,0.036411,0.036411,0,0,0
557,0.24066,14.252,0.036667,0.036667,0,0,0
558,0.24194,14.271,0.0371,0.0371,0,0,0
559,0.24288,14.292,0.037498,0.037498,0,0,0
560,0.24415,14.314,0.037971,0.037971,0,0,0
561,0.2455,14.331,0.038474,0.038474,0,0,0
562,0.24738,14.353,0.038691,0.038691,0,0,0
563,0.24914,14.372,0.039271,0.039271,0,0,0
564,0.25158,14.392,0.039452,0.039452,0,0,0
565,0.25376,14.41,0.039814,0.039814,0,0,0
566,0.25609,14.429,0.040067,0.040067,0,0,0
567,0.25786,14.45,0.040429,0.040429,0,0,0
568,0.25932,14.471,0.040646,0.040646,0,0,0
569,0.26077,14.49,0.041042,0.041042,0,0,0
570,0.26239,14.507,0.041331,0.041331,0,0,0
571,0.26424,14.528,0.041726,0.041726,0,0,0
572,0.26589,14.547,0.042372,0.042372,0,0,0
573,0.26784,14.566,0.042699,0.042699,0,0,0
574,0.26979,14.585,0.043059,0.043059,0,0,0
575,0.27122,14.605,0.043309,0.043309,0,0,0
576,0.27317,14.623,0.043634,0.043634,0,0,0
577,0.2743,14.643,0.043885,0.043885,0,0,0
578,0.27595,14.661,0.044174,0.044174,0,0,0
579,0.27726,14.68,0.044605,0.044605,0,0,0
580,0.27929,14.699,0.044892,0.044892,0,0,0
581,0.28166,14.721,0.04536,0.04536,0,0,0
582,0.2841,14.737,0.045827,0.045827,0,0,0
583,0.28669,14.755,0.046257,0.046257,0,0,0
584,0.28861,14.776,0.046579,0.046579,0,0,0
585,0.29026,14.795,0.046793,0.046793,0,0,0
586,0.29195,14.815,0.047044,0.047044,0,0,0
587,0.29342,14.832,0.04751,0.04751,0,0,0
588,0.29469,14.846,0.047797,0.047797,0,0,0
589,0.29672,14.864,0.048189,0.048189,0,0,0
590,0.29856,14.885,0.048442,0.048442,0,0,0
591,0.3004,14.906,0.049266,0.049266,0,0,0
592,0.30306,14.921,0.049552,0.049552,0,0,0
593,0.3051,14.938,0.050125,0.050125,0,0,0
594,0.30649,14.959,0.050411,0.050411,0,0,0
595,0.30817,14.978,0.050803,0.050803,0,0,0
596,0.3102,14.995,0.05116,0.05116,0,0,0
597,0.312,15.015,0.051158,0.051158,0,0,0
598,0.31373,15.035,0.051695,0.051695,0,0,0
599,0.31651,15.05,0.052016,0.052016,0,0,0
600,0.31895,15.071,0.0523,0.0523,0,0,0
601,0.32169,15.088,0.05287,0.05287,0,0,0
602,0.32353,15.105,0.053512,0.053512,0,0,0
603,0.32556,15.124,0.053833,0.053833,0,0,0
604,0.32642,15.143,0.054618,0.054618,0,0,0
605,0.32785,15.16,0.054725,0.054725,0,0,0
606,0.33014,15.178,0.055258,0.055258,0,0,0
607,0.3313,15.197,0.055471,0.055471,0,0,0
608,0.33419,15.214,0.055899,0.055899,0,0,0
609,0.33693,15.232,0.056074,0.056074,0,0,0
610,0.33956,15.249,0.056571,0.056571,0,0,0
611,0.34098,15.271,0.056892,0.056892,0,0,0
612,0.34274,15.289,0.057352,0.057352,0,0,0
613,0.3451,15.302,0.057814,0.057814,0,0,0
614,0.34699,15.318,0.058559,0.058559,0,0,0
615,0.34852,15.336,0.059127,0.059127,0,0,0
616,0.35089,15.353,0.059625,0.059625,0,0,0
617,0.35374,15.37,0.059942,0.059942,0,0,0
618,0.35621,15.39,0.060298,0.060298,0,0,0
619,0.35918,15.405,0.06058,0.06058,0,0,0
620,0.36105,15.421,0.060968,0.060968,0,0,0
621,0.36292,15.436,0.061392,0.061392,0,0,0
622,0.36439,15.453,0.061568,0.061568,0,0,0
623,0.36634,15.469,0.061992,0.061992,0,0,0
624,0.36795,15.489,0.062664,0.062664,0,0,0
625,0.37035,15.504,0.063088,0.063088,0,0,0
626,0.37268,15.522,0.0639,0.0639,0,0,0
627,0.37512,15.537,0.064147,0.064147,0,0,0
628,0.37741,15.554,0.064571,0.064571,0,0,0
629,0.37939,15.571,0.065099,0.065099,0,0,0
630,0.38123,15.589,0.065416,0.065416,0,0,0
631,0.38326,15.603,0.066013,0.066013,0,0,0
632,0.38592,15.62,0.066226,0.066226,0,0,0
633,0.38765,15.638,0.066471,0.066471,0,0,0
634,0.3905,15.649,0.066894,0.066894,0,0,0
635,0.39305,15.666,0.06728,0.06728,0,0,0
636,0.39583,15.683,0.067911,0.067911,0,0,0
637,0.3982,15.699,0.068544,0.068544,0,0,0
638,0.40026,15.717,0.068894,0.068894,0,0,0
639,0.40232,15.736,0.069386,0.069386,0,0,0
640,0.40382,15.753,0.070018,0.070018,0,0,0
641,0.40593,15.763,0.070367,0.070367,0,0,0
642,0.4081,15.779,0.070857,0.070857,0,0,0
643,0.4102,15.797,0.070964,0.070964,0,0,0
644,0.41309,15.813,0.071384,0.071384,0,0,0
645,0.41542,15.826,0.071909,0.071909,0,0,0
646,0.41775,15.841,0.072538,0.072538,0,0,0
647,0.41993,15.858,0.072994,0.072994,0,0,0
648,0.42166,15.874,0.073518,0.073518,0,0,0
649,0.42424,15.89,0.074076,0.074076,0,0,0
650,0.42665,15.904,0.0746,0.0746,0,0,0
651,0.4292,15.921,0.075054,0.075054,0,0,0
652,0.43247,15.936,0.075752,0.075752,0,0,0
653,0.43521,15.954,0.075995,0.075995,0,0,0
654,0.43769,15.968,0.076066,0.076066,0,0,0
655,0.44002,15.982,0.076657,0.076657,0,0,0
656,0.44223,15.999,0.077284,0.077284,0,0,0
657,0.44422,16.014,0.077738,0.077738,0,0,0
658,0.44643,16.029,0.078154,0.078154,0,0,0
659,0.44846,16.043,0.078815,0.078815,0,0,0
660,0.45116,16.059,0.079232,0.079232,0,0,0
661,0.45375,16.074,0.079857,0.079857,0,0,0
662,0.4565,16.089,0.080483,0.080483,0,0,0
663,0.45864,16.104,0.081141,0.081141,0,0,0
664,0.46089,16.119,0.081662,0.081662,0,0,0
665,0.46303,16.134,0.08194,0.08194,0,0,0
666,0.46543,16.147,0.082495,0.082495,0,0,0
667,0.46768,16.167,0.083187,0.083187,0,0,0
668,0.47072,16.181,0.083775,0.083775,0,0,0
669,0.47384,16.193,0.084431,0.084431,0,0,0
670,0.47719,16.207,0.084915,0.084915,0,0,0
671,0.47974,16.222,0.085571,0.085571,0,0,0
672,0.4818,16.237,0.086054,0.086054,0,0,0
673,0.48428,16.251,0.086537,0.086537,0,0,0
674,0.48668,16.267,0.087054,0.087054,0,0,0
675,0.48916,16.283,0.087606,0.087606,0,0,0
676,0.49152,16.297,0.088227,0.088227,0,0,0
677,0.49463,16.31,0.088916,0.088916,0,0,0
678,0.49746,16.321,0.0895,0.0895,0,0,0
679,0.49974,16.336,0.09029,0.09029,0,0,0
680,0.50192,16.351,0.090806,0.090806,0,0,0
681,0.50425,16.365,0.091387,0.091387,0,0,0
682,0.5065,16.38,0.091767,0.091767,0,0,0
683,0.50833,16.393,0.092555,0.092555,0,0,0
684,0.51092,16.407,0.092864,0.092864,0,0,0
685,0.51411,16.423,0.093344,0.093344,0,0,0
686,0.51794,16.436,0.093789,0.093789,0,0,0
687,0.52065,16.45,0.094338,0.094338,0,0,0
688,0.52365,16.464,0.095055,0.095055,0,0,0
689,0.52609,16.479,0.095876,0.095876,0,0,0
690,0.52846,16.493,0.096663,0.096663,0,0,0
691,0.53113,16.505,0.097378,0.097378,0,0,0
692,0.53386,16.518,0.098026,0.098026,0,0,0
693,0.53755,16.532,0.098675,0.098675,0,0,0
694,0.54014,16.547,0.099117,0.099117,0,0,0
695,0.54299,16.558,0.099628,0.099628,0,0,0
696,0.5455,16.57,0.10031,0.10031,0,0,0
697,0.54787,16.584,0.10082,0.10082,0,0,0
698,0.54982,16.598,0.10129,0.10129,0,0,0
699,0.55188,16.61,0.10214,0.10214,0,0,0
700,0.55391,16.622,0.10272,0.10272,0,0,0
701,0.55763,16.636,0.10354,0.10354,0,0,0
702,0.56085,16.649,0.10415,0.10415,0,0,0
703,0.56378,16.661,0.10476,0.10476,0,0,0
704,0.56637,16.67,0.1052,0.1052,0,0,0
705,0.56885,16.683,0.10584,0.10584,0,0,0
706,0.57141,16.693,0.10655,0.10655,0,0,0
707,0.57384,16.706,0.10722,0.10722,0,0,0
708,0.5764,16.719,0.10783,0.10783,0,0,0
709,0.57944,16.729,0.10847,0.10847,0,0,0
710,0.58255,16.743,0.10908,0.10908,0,0,0
711,0.58575,16.755,0.10952,0.10952,0,0,0
712,0.58834,16.765,0.11006,0.11006,0,0,0
713,0.59119,16.777,0.11097,0.11097,0,0,0
714,0.59333,16.787,0.11147,0.11147,0,0,0
715,0.59558,16.797,0.11208,0.11208,0,0,0
716,0.59799,16.809,0.11265,0.11265,0,0,0
717,0.60054,16.819,0.11319,0.11319,0,0,0
718,0.60336,16.833,0.11409,0.11409,0,0,0
719,0.60632,16.843,0.1148,0.1148,0,0,0
720,0.60907,16.856,0.11547,0.11547,0,0,0
721,0.61169,16.868,0.11584,0.11584,0,0,0
722,0.61398,16.879,0.11681,0.11681,0,0,0
723,0.6162,16.894,0.11728,0.11728,0,0,0
724,0.61872,16.906,0.11775,0.11775,0,0,0
725,0.62127,16.92,0.11835,0.11835,0,0,0
726,0.62439,16.933,0.11928,0.11928,0,0,0
727,0.62769,16.945,0.12008,0.12008,0,0,0
728,0.63111,16.96,0.12075,0.12075,0,0,0
729,0.63423,16.972,0.12155,0.12155,0,0,0
730,0.63719,16.985,0.12222,0.12222,0,0,0
731,0.64005,16.996,0.12302,0.12302,0,0,0
732,0.64298,17.009,0.12405,0.12405,0,0,0
733,0.64591,17.021,0.12471,0.12471,0,0,0
734,0.6494,17.033,0.12584,0.12584,0,0,0
735,0.65278,17.046,0.12647,0.12647,0,0,0
736,0.6565,17.057,0.12713,0.12713,0,0,0
737,0.65947,17.071,0.12799,0.12799,0,0,0
738,0.6624,17.082,0.12869,0.12869,0,0,0
739,0.66499,17.096,0.12981,0.12981,0,0,0
740,0.66819,17.108,0.13037,0.13037,0,0,0
741,0.67119,17.12,0.13113,0.13113,0,0,0
742,0.67457,17.13,0.13182,0.13182,0,0,0
743,0.67855,17.141,0.13268,0.13268,0,0,0
744,0.6819,17.154,0.1337,0.1337,0,0,0
745,0.68486,17.167,0.13443,0.13443,0,0,0
746,0.68776,17.177,0.13518,0.13518,0,0,0
747,0.69087,17.188,0.1362,0.1362,0,0,0
748,0.69418,17.201,0.13725,0.13725,0,0,0
749,0.69801,17.211,0.13797,0.13797,0,0,0
750,0.70207,17.225,0.13866,0.13866,0,0,0
751,0.70557,17.236,0.13951,0.13951,0,0,0
752,0.70898,17.245,0.14016,0.14016,0,0,0
753,0.71266,17.259,0.14114,0.14114,0,0,0
754,0.71582,17.268,0.14196,0.14196,0,0,0
755,0.71901,17.28,0.14294,0.14294,0,0,0
756,0.72281,17.289,0.14428,0.14428,0,0,0
757,0.72663,17.298,0.14512,0.14512,0,0,0
758,0.73062,17.31,0.14616,0.14616,0,0,0
759,0.73385,17.322,0.14678,0.14678,0,0,0
760,0.73677,17.333,0.14808,0.14808,0,0,0
761,0.74004,17.345,0.14889,0.14889,0,0,0
762,0.74339,17.355,0.14989,0.14989,0,0,0
763,0.74673,17.365,0.15112,0.15112,0,0,0
764,0.7506,17.374,0.15196,0.15196,0,0,0
765,0.75436,17.387,0.15313,0.15313,0,0,0
766,0.75785,17.399,0.15422,0.15422,0,0,0
767,0.76112,17.408,0.15516,0.15516,0,0,0
768,0.76476,17.416,0.15635,0.15635,0,0,0
769,0.76781,17.427,0.15754,0.15754,0,0,0
770,0.77153,17.439,0.15879,0.15879,0,0,0
771,0.77566,17.448,0.15988,0.15988,0,0,0
772,0.7799,17.457,0.16081,0.16081,0,0,0
773,0.78362,17.469,0.16196,0.16196,0,0,0
774,0.78716,17.479,0.16305,0.16305,0,0,0
775,0.79061,17.487,0.16423,0.16423,0,0,0
776,0.79414,17.499,0.16509,0.16509,0,0,0
777,0.79801,17.507,0.16624,0.16624,0,0,0
778,0.80207,17.516,0.16742,0.16742,0,0,0
779,0.80609,17.526,0.16847,0.16847,0,0,0
780,0.80992,17.534,0.1693,0.1693,0,0,0
781,0.81353,17.542,0.17009,0.17009,0,0,0
782,0.81699,17.551,0.17155,0.17155,0,0,0
783,0.82052,17.562,0.17259,0.17259,0,0,0
784,0.82413,17.571,0.1738,0.1738,0,0,0
785,0.82822,17.58,0.17487,0.17487,0,0,0
786,0.83243,17.59,0.1762,0.1762,0,0,0
787,0.83657,17.595,0.17743,0.17743,0,0,0
788,0.84051,17.601,0.17891,0.17891,0,0,0
789,0.84442,17.605,0.1802,0.1802,0,0,0
790,0.8486,17.61,0.18155,0.18155,0,0,0
791,0.85292,17.613,0.18302,0.18302,0,0,0
792,0.85758,17.616,0.18496,0.18496,0,0,0
793,0.86243,17.619,0.18646,0.18646,0,0,0
794,0.86822,17.619,0.18818,0.18818,0,0,0
795,0.87307,17.614,0.18951,0.18951,0,0,0
796,0.87838,17.601,0.19154,0.19154,0,0,0
797,0.8848,17.58,0.19402,0.19402,0,0,0
798,0.89161,17.559,0.19665,0.19665,0,0,0
799,0.89954,17.535,0.19998,0.19998,0,0,0
800,0.90788,17.497,0.20303,0.20303,0,0,0