File: polyN_optimization/DP780_results/DATA/NT20_00_3.csv
Time[s],Displacement[mm],Force[kN],AxStrain_1,AxStrain_2,Thickness[mm],OuterWidth[mm],InnerWidth[mm]
0,0,-0.026217,0,0,1.497,19.957,10.045
1,0.000176,0.018281,-6.3002e-05,0,0,0,0
2,0.000345,0.08962,0.00035194,0,0,0,0
3,0.000598,0.15124,-3.4001e-05,0,0,0,0
4,0.00068,0.19873,0.00015399,0,0,0,0
5,0.000872,0.2442,0.00016699,0,0,0,0
6,0.001262,0.2891,5.4998e-05,0,0,0,0
7,0.001326,0.33021,0.00010299,0,0,0,0
8,0.001584,0.37397,0.00037693,0,0,0,0
9,0.001663,0.41883,9.1996e-05,0,0,0,0
10,0.00178,0.46019,0.00028396,0,0,0,0
11,0.001954,0.50097,0.00029696,0,0,0,0
12,0.002043,0.54122,0.00017398,0,0,0,0
13,0.002174,0.58016,0.00022697,0,0,0,0
14,0.002268,0.6196,0.00030395,0,0,0,0
15,0.002386,0.66004,0.00020298,0,0,0,0
16,0.00256,0.70262,0.00022597,0,0,0,0
17,0.002561,0.7424,0.00034094,0,0,0,0
18,0.002679,0.78341,0.00038493,0,0,0,0
19,0.002979,0.82067,0.00025397,0,0,0,0
20,0.003137,0.8628,0.00027396,0,0,0,0
21,0.003348,0.9019,0.00019598,0,0,0,0
22,0.003637,0.9412,0.00017898,0,0,0,0
23,0.003859,0.97856,0.0004559,0,0,0,0
24,0.004237,1.0156,0.00013899,0,0,0,0
25,0.004001,1.0526,0.00034794,0,0,0,0
26,0.003906,1.0882,0.00028796,0,0,0,0
27,0.004011,1.1273,0.00024697,0,0,0,0
28,0.004289,1.1646,0.00038493,0,0,0,0
29,0.00434,1.2007,0.00047689,0,0,0,0
30,0.004532,1.2391,0.0004399,0,0,0,0
31,0.00497,1.2732,0.00028096,0,0,0,0
32,0.005179,1.3047,0.00020298,0,0,0,0
33,0.005624,1.3399,0.00020998,0,0,0,0
34,0.005698,1.3764,0.00039192,0,0,0,0
35,0.006019,1.4104,0.00041891,0,0,0,0
36,0.005938,1.4433,0.00081767,0,0,0,0
37,0.005888,1.4776,0.00059482,0,0,0,0
38,0.005956,1.5125,0.00046689,0,0,0,0
39,0.005921,1.5468,0.00031795,0,0,0,0
40,0.006448,1.5785,0.00040592,0,0,0,0
41,0.00672,1.6105,0.00046689,0,0,0,0
42,0.006965,1.644,0.00034794,0,0,0,0
43,0.007222,1.6765,0.00033194,0,0,0,0
44,0.007482,1.7089,0.00037893,0,0,0,0
45,0.008224,1.7407,0.00049688,0,0,0,0
46,0.00798,1.771,0.00052386,0,0,0,0
47,0.007979,1.8036,0.00060182,0,0,0,0
48,0.007658,1.8324,0.00054085,0,0,0,0
49,0.007849,1.8658,0.00031795,0,0,0,0
50,0.007516,1.9002,0.00050387,0,0,0,0
51,0.008098,1.9287,0.00053486,0,0,0,0
52,0.008498,1.9606,0.00031795,0,0,0,0
53,0.008599,1.9919,0.00041991,0,0,0,0
54,0.009329,2.0243,0.00060881,0,0,0,0
55,0.009917,2.0541,0.00068976,0,0,0,0
56,0.010021,2.0863,0.0006258,0,0,0,0
57,0.009788,2.1184,0.00061881,0,0,0,0
58,0.009884,2.1506,0.00066978,0,0,0,0
59,0.009694,2.1802,0.0007747,0,0,0,0
60,0.009525,2.2099,0.00084864,0,0,0,0
61,0.009793,2.2394,0.00045989,0,0,0,0
62,0.010105,2.2716,0.00050787,0,0,0,0
63,0.010455,2.303,0.00050787,0,0,0,0
64,0.010921,2.3303,0.00054085,0,0,0,0
65,0.011554,2.3625,0.00076071,0,0,0,0
66,0.012186,2.3925,0.0006398,0,0,0,0
67,0.01242,2.424,0.00065279,0,0,0,0
68,0.012239,2.4526,0.00060282,0,0,0,0
69,0.011712,2.4803,0.00073773,0,0,0,0
70,0.011644,2.5121,0.0006398,0,0,0,0
71,0.011635,2.5408,0.00069376,0,0,0,0
72,0.01172,2.5713,0.00049488,0,0,0,0
73,0.011975,2.6002,0.00068077,0,0,0,0
74,0.01242,2.6286,0.00061581,0,0,0,0
75,0.013064,2.6596,0.00064679,0,0,0,0
76,0.013729,2.6873,0.00070375,0,0,0,0
77,0.014212,2.7149,0.00068077,0,0,0,0
78,0.014595,2.7424,0.00083965,0,0,0,0
79,0.014424,2.7725,0.00073173,0,0,0,0
80,0.014071,2.8015,0.00072774,0,0,0,0
81,0.013719,2.8303,0.00049888,0,0,0,0
82,0.013527,2.861,0.0007787,0,0,0,0
83,0.013598,2.8909,0.00070475,0,0,0,0
84,0.01376,2.9192,0.00053186,0,0,0,0
85,0.014355,2.9483,0.00059882,0,0,0,0
86,0.015048,2.974,0.00043391,0,0,0,0
87,0.015375,3.0013,0.00065079,0,0,0,0
88,0.016114,3.0325,0.00068876,0,0,0,0
89,0.016411,3.0602,0.0007797,0,0,0,0
90,0.016354,3.0924,0.00086063,0,0,0,0
91,0.016464,3.1192,0.00087062,0,0,0,0
92,0.016216,3.1444,0.00087062,0,0,0,0
93,0.015746,3.1707,0.00073473,0,0,0,0
94,0.015579,3.2018,0.00058383,0,0,0,0
95,0.015891,3.2294,0.00064779,0,0,0,0
96,0.016159,3.2544,0.00066478,0,0,0,0
97,0.016564,3.2845,0.0006268,0,0,0,0
98,0.017714,3.3113,0.00075571,0,0,0,0
99,0.017896,3.339,0.00070175,0,0,0,0
100,0.018492,3.3684,0.00090459,0,0,0,0
101,0.018496,3.3966,0.00071874,0,0,0,0
102,0.018404,3.4259,0.0007727,0,0,0,0
103,0.018399,3.4525,0.00085763,0,0,0,0
104,0.018,3.481,0.0008976,0,0,0,0
105,0.017628,3.5095,0.00082666,0,0,0,0
106,0.017982,3.5369,0.00051587,0,0,0,0
107,0.018287,3.5657,0.00061681,0,0,0,0
108,0.018478,3.5939,0.00075272,0,0,0,0
109,0.019408,3.6215,0.00081667,0,0,0,0
110,0.019936,3.6491,0.00083365,0,0,0,0
111,0.020324,3.6757,0.00066478,0,0,0,0
112,0.02057,3.7037,0.00091458,0,0,0,0
113,0.020494,3.7296,0.00084764,0,0,0,0
114,0.020603,3.7578,0.00098252,0,0,0,0
115,0.020486,3.7836,0.0010155,0,0,0,0
116,0.020289,3.8114,0.00094855,0,0,0,0
117,0.020148,3.8392,0.00098252,0,0,0,0
118,0.020345,3.8672,0.00091558,0,0,0,0
119,0.020578,3.8918,0.00081367,0,0,0,0
120,0.021484,3.9187,0.00098252,0,0,0,0
121,0.021617,3.9461,0.0010165,0,0,0,0
122,0.022288,3.973,0.00091558,0,0,0,0
123,0.022385,4.0016,0.00098352,0,0,0,0
124,0.02275,4.0278,0.00091558,0,0,0,0
125,0.022915,4.0533,0.001422,0,0,0,0
126,0.022674,4.0784,0.0012872,0,0,0,0
127,0.022704,4.1056,0.0011513,0,0,0,0
128,0.022495,4.1319,0.0011513,0,0,0,0
129,0.022693,4.1588,0.00094855,0,0,0,0
130,0.022925,4.1842,0.00088161,0,0,0,0
131,0.023394,4.2109,0.0010834,0,0,0,0
132,0.023899,4.2368,0.0010844,0,0,0,0
133,0.024299,4.2631,0.0011853,0,0,0,0
134,0.024767,4.2899,0.0011523,0,0,0,0
135,0.025,4.317,0.0011184,0,0,0,0
136,0.025266,4.3422,0.0012872,0,0,0,0
137,0.025463,4.368,0.0013211,0,0,0,0
138,0.025257,4.3961,0.0013211,0,0,0,0
139,0.025218,4.4214,0.0012542,0,0,0,0
140,0.02508,4.4459,0.00098352,0,0,0,0
141,0.025448,4.4707,0.00091558,0,0,0,0
142,0.025713,4.4988,0.0012193,0,0,0,0
143,0.026283,4.5255,0.0012203,0,0,0,0
144,0.026718,4.5514,0.0012542,0,0,0,0
145,0.027019,4.5792,0.0010844,0,0,0,0
146,0.027015,4.6017,0.0011184,0,0,0,0
147,0.027655,4.6319,0.0012882,0,0,0,0
148,0.027785,4.6567,0.0012203,0,0,0,0
149,0.027849,4.6816,0.0012203,0,0,0,0
150,0.027946,4.7044,0.0012542,0,0,0,0
151,0.028144,4.7317,0.0011873,0,0,0,0
152,0.028209,4.758,0.0011863,0,0,0,0
153,0.028341,4.7834,0.0012882,0,0,0,0
154,0.028742,4.81,0.0012542,0,0,0,0
155,0.029009,4.8365,0.0012542,0,0,0,0
156,0.029783,4.8621,0.0011194,0,0,0,0
157,0.029782,4.8882,0.0011194,0,0,0,0
158,0.030181,4.9127,0.0011533,0,0,0,0
159,0.030278,4.9364,0.0012552,0,0,0,0
160,0.030613,4.9627,0.0012223,0,0,0,0
161,0.030611,4.9876,0.0014579,0,0,0,0
162,0.030877,5.0141,0.0011883,0,0,0,0
163,0.031109,5.0386,0.0010195,0,0,0,0
164,0.031239,5.0634,0.0012892,0,0,0,0
165,0.031305,5.0883,0.0012552,0,0,0,0
166,0.031706,5.1136,0.0012223,0,0,0,0
167,0.031974,5.1396,0.0014589,0,0,0,0
168,0.032309,5.1646,0.0011883,0,0,0,0
169,0.032337,5.1886,0.0012223,0,0,0,0
170,0.033112,5.2132,0.0016606,0,0,0,0
171,0.033109,5.2407,0.0015268,0,0,0,0
172,0.033408,5.2669,0.0014929,0,0,0,0
173,0.033776,5.2914,0.0015608,0,0,0,0
174,0.034042,5.3191,0.0016626,0,0,0,0
175,0.034274,5.3442,0.0017964,0,0,0,0
176,0.034812,5.3707,0.0016287,0,0,0,0
177,0.034944,5.3924,0.0015618,0,0,0,0
178,0.035142,5.4188,0.0015957,0,0,0,0
179,0.035477,5.4453,0.0014609,0,0,0,0
180,0.035877,5.4722,0.0015618,0,0,0,0
181,0.035875,5.4972,0.0015278,0,0,0,0
182,0.036073,5.5227,0.0017315,0,0,0,0
183,0.036475,5.5493,0.002001,0,0,0,0
184,0.03701,5.5734,0.0020349,0,0,0,0
185,0.037211,5.5987,0.0021367,0,0,0,0
186,0.037817,5.6239,0.0018323,0,0,0,0
187,0.038219,5.6487,0.0018673,0,0,0,0
188,0.038757,5.6732,0.0019012,0,0,0,0
189,0.039022,5.7001,0.0016986,0,0,0,0
190,0.039627,5.7243,0.0016646,0,0,0,0
191,0.039558,5.7488,0.0015967,0,0,0,0
192,0.039825,5.7762,0.0019012,0,0,0,0
193,0.040091,5.8005,0.0018353,0,0,0,0
194,0.040155,5.8233,0.0019691,0,0,0,0
195,0.040423,5.8502,0.002003,0,0,0,0
196,0.040624,5.8753,0.0021716,0,0,0,0
197,0.041364,5.899,0.0022066,0,0,0,0
198,0.041699,5.9246,0.0019691,0,0,0,0
199,0.042573,5.9473,0.0018014,0,0,0,0
200,0.043382,5.9733,0.0019681,0,0,0,0
201,0.043956,5.9971,0.0018343,0,0,0,0
202,0.044054,6.0242,0.0019002,0,0,0,0
203,0.044117,6.047,0.0018663,0,0,0,0
204,0.044521,6.0706,0.0020699,0,0,0,0
205,0.044281,6.0955,0.0018663,0,0,0,0
206,0.044549,6.1218,0.0022036,0,0,0,0
207,0.044715,6.1466,0.0020699,0,0,0,0
208,0.045116,6.1705,0.0022385,0,0,0,0
209,0.045654,6.1997,0.0024071,0,0,0,0
210,0.046124,6.2247,0.0021696,0,0,0,0
211,0.047034,6.2509,0.0021028,0,0,0,0
212,0.047606,6.2713,0.0022375,0,0,0,0
213,0.048583,6.2995,0.0022046,0,0,0,0
214,0.049121,6.324,0.0022046,0,0,0,0
215,0.049456,6.3489,0.0021716,0,0,0,0
216,0.04925,6.374,0.0021377,0,0,0,0
217,0.049923,6.3999,0.0021377,0,0,0,0
218,0.050089,6.4243,0.002441,0,0,0,0
219,0.050119,6.4485,0.0027442,0,0,0,0
220,0.05025,6.4749,0.0025767,0,0,0,0
221,0.050722,6.5007,0.0025089,0,0,0,0
222,0.051698,6.5234,0.0026096,0,0,0,0
223,0.052034,6.5494,0.0026774,0,0,0,0
224,0.053146,6.577,0.0027452,0,0,0,0
225,0.054057,6.6037,0.0026106,0,0,0,0
226,0.054629,6.6253,0.0023752,0,0,0,0
227,0.055133,6.6494,0.002442,0,0,0,0
228,0.055299,6.6847,0.0026455,0,0,0,0
229,0.055635,6.7008,0.0027123,0,0,0,0
230,0.056005,6.7286,0.0029816,0,0,0,0
231,0.056307,6.7521,0.0030842,0,0,0,0
232,0.056845,6.7768,0.003151,0,0,0,0
233,0.057282,6.8059,0.0029825,0,0,0,0
234,0.058327,6.8302,0.0033544,0,0,0,0
235,0.059104,6.8537,0.003457,0,0,0,0
236,0.060082,6.8838,0.0032866,0,0,0,0
237,0.060824,6.9032,0.0029506,0,0,0,0
238,0.061226,6.9278,0.0027163,0,0,0,0
239,0.061731,6.955,0.0031201,0,0,0,0
240,0.062405,6.9782,0.0030852,0,0,0,0
241,0.062977,7.0042,0.0031869,0,0,0,0
242,0.063381,7.0288,0.0037599,0,0,0,0
243,0.063886,7.0541,0.0035577,0,0,0,0
244,0.064729,7.0787,0.0038277,0,0,0,0
245,0.065403,7.1048,0.0035915,0,0,0,0
246,0.066076,7.128,0.0035258,0,0,0,0
247,0.066784,7.1548,0.0036264,0,0,0,0
248,0.067628,7.1787,0.0033215,0,0,0,0
249,0.068133,7.2043,0.0035577,0,0,0,0
250,0.068637,7.2303,0.0033544,0,0,0,0
251,0.069783,7.2567,0.0037251,0,0,0,0
252,0.07039,7.284,0.0036573,0,0,0,0
253,0.071098,7.3072,0.0037928,0,0,0,0
254,0.07211,7.3322,0.0041623,0,0,0,0
255,0.073019,7.3558,0.0040956,0,0,0,0
256,0.073794,7.3821,0.0041962,0,0,0,0
257,0.074367,7.4082,0.0041962,0,0,0,0
258,0.074973,7.4322,0.003994,0,0,0,0
259,0.075545,7.4569,0.0039592,0,0,0,0
260,0.076455,7.4822,0.0037918,0,0,0,0
261,0.076926,7.5071,0.0039601,0,0,0,0
262,0.07787,7.5308,0.0041623,0,0,0,0
263,0.079019,7.5548,0.0041295,0,0,0,0
264,0.08003,7.5795,0.0043973,0,0,0,0
265,0.081651,7.6033,0.0048363,0,0,0,0
266,0.082698,7.6283,0.004904,0,0,0,0
267,0.083675,7.6531,0.0050373,0,0,0,0
268,0.084451,7.6805,0.0050383,0,0,0,0
269,0.084957,7.705,0.0047029,0,0,0,0
270,0.085833,7.7276,0.0047358,0,0,0,0
271,0.086407,7.7504,0.0047358,0,0,0,0
272,0.087283,7.7756,0.0046681,0,0,0,0
273,0.088296,7.8008,0.0049716,0,0,0,0
274,0.089274,7.8253,0.0050731,0,0,0,0
275,0.090795,7.8484,0.0051398,0,0,0,0
276,0.092247,7.8748,0.005477,0,0,0,0
277,0.093293,7.8976,0.0056798,0,0,0,0
278,0.094306,7.9196,0.0060159,0,0,0,0
279,0.095487,7.9452,0.0060845,0,0,0,0
280,0.096398,7.9672,0.0059493,0,0,0,0
281,0.097614,7.9922,0.0059165,0,0,0,0
282,0.098525,8.0159,0.0057156,0,0,0,0
283,0.099605,8.0414,0.0058847,0,0,0,0
284,0.10092,8.0684,0.0058827,0,0,0,0
285,0.10237,8.0914,0.0058161,0,0,0,0
286,0.10332,8.1125,0.006321,0,0,0,0
287,0.1045,8.1382,0.0063538,0,0,0,0
288,0.10558,8.1612,0.0069915,0,0,0,0
289,0.1068,8.1859,0.0070253,0,0,0,0
290,0.10811,8.2094,0.0073618,0,0,0,0
291,0.1095,8.2336,0.0072258,0,0,0,0
292,0.11105,8.2592,0.0068902,0,0,0,0
293,0.1125,8.2812,0.0068237,0,0,0,0
294,0.11416,8.3029,0.0068932,0,0,0,0
295,0.11612,8.3257,0.0069597,0,0,0,0
296,0.11713,8.3477,0.0070243,0,0,0,0
297,0.11845,8.3745,0.0072258,0,0,0,0
298,0.11939,8.3946,0.0073916,0,0,0,0
299,0.12078,8.4199,0.0077955,0,0,0,0
300,0.12176,8.4439,0.0081636,0,0,0,0
301,0.12304,8.4664,0.0085999,0,0,0,0
302,0.12446,8.4882,0.0085325,0,0,0,0
303,0.12645,8.5095,0.0081973,0,0,0,0
304,0.12824,8.5339,0.0080634,0,0,0,0
305,0.12976,8.5547,0.0081626,0,0,0,0
306,0.13115,8.5776,0.0081973,0,0,0,0
307,0.133,8.5986,0.0083322,0,0,0,0
308,0.13459,8.6211,0.0082975,0,0,0,0
309,0.13628,8.648,0.0088339,0,0,0,0
310,0.13763,8.6666,0.0090341,0,0,0,0
311,0.13956,8.6898,0.0095374,0,0,0,0
312,0.14124,8.711,0.0099731,0,0,0,0
313,0.14317,8.7357,0.010073,0,0,0,0
314,0.14496,8.7557,0.0098058,0,0,0,0
315,0.14618,8.7768,0.0096047,0,0,0,0
316,0.14746,8.7996,0.0094373,0,0,0,0
317,0.14901,8.8196,0.0094046,0,0,0,0
318,0.1506,8.8431,0.0096374,0,0,0,0
319,0.15246,8.8671,0.0097057,0,0,0,0
320,0.15435,8.8859,0.010209,0,0,0,0
321,0.15685,8.9114,0.010743,0,0,0,0
322,0.15888,8.93,0.011077,0,0,0,0
323,0.16084,8.9524,0.011276,0,0,0,0
324,0.16263,8.9745,0.011645,0,0,0,0
325,0.16435,8.994,0.011211,0,0,0,0
326,0.16604,9.0168,0.011177,0,0,0,0
327,0.1678,9.0385,0.011077,0,0,0,0
328,0.16982,9.0584,0.010744,0,0,0,0
329,0.17188,9.0771,0.01091,0,0,0,0
330,0.17391,9.1022,0.01121,0,0,0,0
331,0.17574,9.1225,0.011745,0,0,0,0
332,0.17746,9.1424,0.01208,0,0,0,0
333,0.17908,9.1647,0.012546,0,0,0,0
334,0.1808,9.1832,0.012979,0,0,0,0
335,0.183,9.2049,0.012946,0,0,0,0
336,0.18482,9.227,0.013082,0,0,0,0
337,0.18746,9.2482,0.012947,0,0,0,0
338,0.18973,9.2683,0.012647,0,0,0,0
339,0.19233,9.2876,0.012482,0,0,0,0
340,0.19429,9.3069,0.012816,0,0,0,0
341,0.19618,9.3291,0.013015,0,0,0,0
342,0.19814,9.3514,0.013416,0,0,0,0
343,0.2004,9.3687,0.013782,0,0,0,0
344,0.20257,9.3891,0.014281,0,0,0,0
345,0.20469,9.4091,0.014581,0,0,0,0
346,0.20713,9.4286,0.014748,0,0,0,0
347,0.20926,9.4515,0.014581,0,0,0,0
348,0.21125,9.4696,0.014549,0,0,0,0
349,0.21318,9.4882,0.014516,0,0,0,0
350,0.21507,9.5076,0.01465,0,0,0,0
351,0.21713,9.5271,0.01455,0,0,0,0
352,0.2198,9.5468,0.014982,0,0,0,0
353,0.2221,9.5654,0.015448,0,0,0,0
354,0.22456,9.5865,0.015814,0,0,0,0
355,0.22727,9.607,0.016147,0,0,0,0
356,0.2298,9.6271,0.016479,0,0,0,0
357,0.232,9.6454,0.016546,0,0,0,0
358,0.23409,9.6649,0.01668,0,0,0,0
359,0.23653,9.6834,0.016746,0,0,0,0
360,0.23872,9.7052,0.016513,0,0,0,0
361,0.24166,9.724,0.016547,0,0,0,0
362,0.24457,9.7444,0.016547,0,0,0,0
363,0.24693,9.7625,0.01668,0,0,0,0
364,0.24913,9.7801,0.017178,0,0,0,0
365,0.25126,9.7973,0.017775,0,0,0,0
366,0.25318,9.8166,0.018175,0,0,0,0
367,0.25538,9.8363,0.018307,0,0,0,0
368,0.25802,9.8551,0.018507,0,0,0,0
369,0.26096,9.8737,0.018705,0,0,0,0
370,0.26397,9.8905,0.018474,0,0,0,0
371,0.2664,9.9086,0.018674,0,0,0,0
372,0.26937,9.9291,0.018608,0,0,0,0
373,0.27154,9.9489,0.018608,0,0,0,0
374,0.274,9.9672,0.01904,0,0,0,0
375,0.27691,9.9823,0.01947,0,0,0,0
376,0.27975,10.003,0.019701,0,0,0,0
377,0.28279,10.021,0.020199,0,0,0,0
378,0.28566,10.037,0.020363,0,0,0,0
379,0.2885,10.056,0.020398,0,0,0,0
380,0.29087,10.074,0.020629,0,0,0,0
381,0.29347,10.092,0.020662,0,0,0,0
382,0.29587,10.11,0.020729,0,0,0,0
383,0.29837,10.124,0.020927,0,0,0,0
384,0.30111,10.141,0.021293,0,0,0,0
385,0.30425,10.16,0.02149,0,0,0,0
386,0.30702,10.179,0.021886,0,0,0,0
387,0.30962,10.196,0.022054,0,0,0,0
388,0.31206,10.21,0.022483,0,0,0,0
389,0.31486,10.227,0.022878,0,0,0,0
390,0.31753,10.245,0.022879,0,0,0,0
391,0.32067,10.263,0.023011,0,0,0,0
392,0.32372,10.28,0.023078,0,0,0,0
393,0.32706,10.295,0.023375,0,0,0,0
394,0.33004,10.313,0.023639,0,0,0,0
395,0.33277,10.33,0.023937,0,0,0,0
396,0.33551,10.349,0.024202,0,0,0,0
397,0.33842,10.362,0.024498,0,0,0,0
398,0.34126,10.379,0.025092,0,0,0,0
399,0.3447,10.396,0.025156,0,0,0,0
400,0.34812,10.412,0.025454,0,0,0,0
401,0.35106,10.43,0.025585,0,0,0,0
402,0.3541,10.448,0.025718,0,0,0,0
403,0.3568,10.464,0.026016,0,0,0,0
404,0.35954,10.48,0.026311,0,0,0,0
405,0.36228,10.496,0.026376,0,0,0,0
406,0.36559,10.513,0.026805,0,0,0,0
407,0.36894,10.527,0.027035,0,0,0,0
408,0.37238,10.542,0.027462,0,0,0,0
409,0.37532,10.559,0.027562,0,0,0,0
410,0.37847,10.576,0.027661,0,0,0,0
411,0.38151,10.591,0.027989,0,0,0,0
412,0.38448,10.606,0.028382,0,0,0,0
413,0.3878,10.62,0.028516,0,0,0,0
414,0.39144,10.639,0.028943,0,0,0,0
415,0.39503,10.65,0.02914,0,0,0,0
416,0.39834,10.667,0.029534,0,0,0,0
417,0.40172,10.683,0.029895,0,0,0,0
418,0.40459,10.7,0.029994,0,0,0,0
419,0.40787,10.714,0.030289,0,0,0,0
420,0.41142,10.729,0.030388,0,0,0,0
421,0.415,10.742,0.030781,0,0,0,0
422,0.41879,10.755,0.031043,0,0,0,0
423,0.4218,10.771,0.031141,0,0,0,0
424,0.42511,10.788,0.031337,0,0,0,0
425,0.42822,10.803,0.031894,0,0,0,0
426,0.43133,10.817,0.031992,0,0,0,0
427,0.43494,10.831,0.032451,0,0,0,0
428,0.43805,10.846,0.032714,0,0,0,0
429,0.4418,10.863,0.033008,0,0,0,0
430,0.44495,10.876,0.033236,0,0,0,0
431,0.44833,10.89,0.033661,0,0,0,0
432,0.45157,10.904,0.033825,0,0,0,0
433,0.45505,10.916,0.033989,0,0,0,0
434,0.45853,10.931,0.034282,0,0,0,0
435,0.46266,10.946,0.034641,0,0,0,0
436,0.46624,10.961,0.034935,0,0,0,0
437,0.47023,10.974,0.035098,0,0,0,0
438,0.47361,10.988,0.03549,0,0,0,0
439,0.47689,10.997,0.03572,0,0,0,0
440,0.48057,11.013,0.036045,0,0,0,0
441,0.48456,11.029,0.036209,0,0,0,0
442,0.48855,11.041,0.036827,0,0,0,0
443,0.4924,11.057,0.037055,0,0,0,0
444,0.49625,11.07,0.037382,0,0,0,0
445,0.49943,11.084,0.037642,0,0,0,0
446,0.50278,11.096,0.037966,0,0,0,0
447,0.50656,11.11,0.03826,0,0,0,0
448,0.51018,11.121,0.038553,0,0,0,0
449,0.51433,11.135,0.038552,0,0,0,0
450,0.51785,11.149,0.038878,0,0,0,0
451,0.5215,11.162,0.039562,0,0,0,0
452,0.52488,11.176,0.039853,0,0,0,0
453,0.52867,11.188,0.040308,0,0,0,0
454,0.53242,11.201,0.040567,0,0,0,0
455,0.53668,11.214,0.040988,0,0,0,0
456,0.5405,11.225,0.041248,0,0,0,0
457,0.54452,11.238,0.041379,0,0,0,0
458,0.54803,11.248,0.041767,0,0,0,0
459,0.55151,11.263,0.041993,0,0,0,0
460,0.5551,11.273,0.04235,0,0,0,0
461,0.55959,11.288,0.042676,0,0,0,0
462,0.56382,11.302,0.043161,0,0,0,0
463,0.56781,11.314,0.043483,0,0,0,0
464,0.57156,11.326,0.04371,0,0,0,0
465,0.57551,11.337,0.044357,0,0,0,0
466,0.57916,11.353,0.044582,0,0,0,0
467,0.58332,11.362,0.044875,0,0,0,0
468,0.58768,11.371,0.045099,0,0,0,0
469,0.59187,11.384,0.04552,0,0,0,0
470,0.59599,11.396,0.045779,0,0,0,0
471,0.59975,11.408,0.046132,0,0,0,0
472,0.60346,11.421,0.046682,0,0,0,0
473,0.60749,11.431,0.047068,0,0,0,0
474,0.61154,11.439,0.047519,0,0,0,0
475,0.61631,11.455,0.047809,0,0,0,0
476,0.62019,11.464,0.048357,0,0,0,0
477,0.62432,11.473,0.048678,0,0,0,0
478,0.62787,11.485,0.048969,0,0,0,0
479,0.63169,11.501,0.049291,0,0,0,0
480,0.63588,11.509,0.049807,0,0,0,0
481,0.64041,11.52,0.050029,0,0,0,0
482,0.6447,11.526,0.050352,0,0,0,0
483,0.64889,11.54,0.050897,0,0,0,0
484,0.65278,11.553,0.051507,0,0,0,0
485,0.65677,11.563,0.051764,0,0,0,0
486,0.66085,11.573,0.052247,0,0,0,0
487,0.66515,11.582,0.052695,0,0,0,0
488,0.66981,11.592,0.052984,0,0,0,0
489,0.67414,11.605,0.053464,0,0,0,0
490,0.6786,11.615,0.054072,0,0,0,0
491,0.68212,11.625,0.054233,0,0,0,0
492,0.68661,11.636,0.05481,0,0,0,0
493,0.69127,11.645,0.055098,0,0,0,0
494,0.69574,11.656,0.055642,0,0,0,0
495,0.70067,11.666,0.055961,0,0,0,0
496,0.70479,11.675,0.056409,0,0,0,0
497,0.70912,11.687,0.05679,0,0,0,0
498,0.71331,11.694,0.057397,0,0,0,0
499,0.71784,11.704,0.057779,0,0,0,0
500,0.72264,11.714,0.058419,0,0,0,0
501,0.72724,11.723,0.058737,0,0,0,0
502,0.73187,11.732,0.059247,0,0,0,0
503,0.73592,11.741,0.059406,0,0,0,0
504,0.74022,11.751,0.060139,0,0,0,0
505,0.74454,11.76,0.060457,0,0,0,0
506,0.74948,11.769,0.060966,0,0,0,0
507,0.75418,11.78,0.061314,0,0,0,0
508,0.75843,11.789,0.061856,0,0,0,0
509,0.76307,11.798,0.062299,0,0,0,0
510,0.76709,11.806,0.06265,0,0,0,0
511,0.77148,11.817,0.063284,0,0,0,0
512,0.77618,11.826,0.063792,0,0,0,0
513,0.78112,11.837,0.064236,0,0,0,0
514,0.78558,11.842,0.064584,0,0,0,0
515,0.79,11.851,0.064807,0,0,0,0
516,0.79436,11.858,0.065472,0,0,0,0
517,0.7991,11.869,0.065946,0,0,0,0
518,0.80369,11.878,0.066296,0,0,0,0
519,0.80849,11.887,0.06661,0,0,0,0
520,0.81356,11.896,0.067339,0,0,0,0
521,0.81779,11.903,0.06759,0,0,0,0
522,0.82218,11.912,0.068127,0,0,0,0
523,0.82701,11.922,0.068727,0,0,0,0
524,0.83178,11.928,0.069199,0,0,0,0
525,0.83699,11.935,0.069548,0,0,0,0
526,0.84212,11.944,0.070304,0,0,0,0
527,0.84655,11.951,0.07084,0,0,0,0
528,0.85064,11.959,0.071311,0,0,0,0
529,0.85551,11.965,0.071689,0,0,0,0
530,0.86105,11.971,0.072191,0,0,0,0
531,0.86595,11.98,0.072916,0,0,0,0
532,0.87092,11.988,0.073166,0,0,0,0
533,0.87545,11.996,0.074076,0,0,0,0
534,0.88015,12.002,0.074232,0,0,0,0
535,0.88495,12.013,0.074891,0,0,0,0
536,0.89002,12.023,0.075613,0,0,0,0
537,0.89533,12.027,0.076365,0,0,0,0
538,0.90013,12.033,0.076583,0,0,0,0
539,0.90472,12.04,0.077115,0,0,0,0
540,0.90952,12.047,0.07771,0,0,0,0
541,0.91439,12.055,0.078273,0,0,0,0
542,0.91966,12.062,0.07871,0,0,0,0
543,0.92466,12.07,0.079273,0,0,0,0
544,0.92984,12.076,0.079835,0,0,0,0
545,0.93481,12.08,0.080676,0,0,0,0
546,0.9396,12.088,0.081174,0,0,0,0
547,0.94434,12.096,0.081797,0,0,0,0
548,0.94937,12.102,0.082389,0,0,0,0
549,0.95468,12.11,0.082979,0,0,0,0
550,0.95988,12.116,0.08354,0,0,0,0
551,0.96472,12.122,0.084099,0,0,0,0
552,0.96925,12.128,0.084783,0,0,0,0
553,0.97432,12.136,0.08528,0,0,0,0
554,0.97945,12.143,0.086087,0,0,0,0
555,0.98517,12.15,0.08649,0,0,0,0
556,0.99003,12.158,0.087108,0,0,0,0
557,0.99504,12.162,0.087666,0,0,0,0
558,0.99977,12.168,0.088316,0,0,0,0
559,1.005,12.173,0.088906,0,0,0,0
560,1.0103,12.179,0.089522,0,0,0,0
561,1.016,12.187,0.090356,0,0,0,0
562,1.0211,12.19,0.091068,0,0,0,0
563,1.0258,12.195,0.091652,0,0,0,0
564,1.0312,12.203,0.092176,0,0,0,0
565,1.0364,12.206,0.092761,0,0,0,0
566,1.042,12.212,0.093408,0,0,0,0
567,1.0472,12.218,0.093993,0,0,0,0
568,1.0526,12.223,0.094515,0,0,0,0
569,1.0576,12.229,0.095561,0,0,0,0
570,1.0627,12.234,0.096237,0,0,0,0
571,1.0678,12.24,0.097003,0,0,0,0
572,1.0739,12.245,0.097769,0,0,0,0
573,1.0794,12.25,0.098506,0,0,0,0
574,1.0845,12.253,0.098996,0,0,0,0
575,1.0895,12.259,0.099853,0,0,0,0
576,1.0946,12.265,0.10049,0,0,0,0
577,1.1006,12.269,0.10144,0,0,0,0
578,1.1064,12.273,0.1019,0,0,0,0
579,1.1115,12.28,0.10266,0,0,0,0
580,1.1168,12.282,0.10349,0,0,0,0
581,1.1221,12.289,0.10416,0,0,0,0
582,1.1275,12.293,0.10474,0,0,0,0
583,1.1335,12.298,0.10553,0,0,0,0
584,1.1389,12.303,0.10638,0,0,0,0
585,1.1444,12.308,0.10686,0,0,0,0
586,1.1498,12.311,0.10787,0,0,0,0
587,1.1552,12.315,0.10844,0,0,0,0
588,1.1611,12.32,0.10944,0,0,0,0
589,1.1669,12.325,0.1102,0,0,0,0
590,1.1724,12.328,0.1108,0,0,0,0
591,1.1779,12.33,0.11162,0,0,0,0
592,1.1827,12.333,0.1122,0,0,0,0
593,1.1886,12.335,0.11328,0,0,0,0
594,1.1944,12.339,0.11382,0,0,0,0
595,1.2006,12.342,0.11473,0,0,0,0
596,1.2058,12.346,0.11563,0,0,0,0
597,1.2112,12.35,0.11666,0,0,0,0
598,1.2165,12.354,0.11717,0,0,0,0
599,1.2226,12.359,0.11807,0,0,0,0
600,1.2287,12.362,0.11909,0,0,0,0
601,1.2343,12.365,0.11984,0,0,0,0
602,1.24,12.369,0.12083,0,0,0,0
603,1.2451,12.37,0.12146,0,0,0,0
604,1.2512,12.375,0.12256,0,0,0,0
605,1.2573,12.377,0.12319,0,0,0,0
606,1.2632,12.38,0.12403,0,0,0,0
607,1.2687,12.381,0.12487,0,0,0,0
608,1.2744,12.385,0.12585,0,0,0,0
609,1.2796,12.387,0.12674,0,0,0,0
610,1.2855,12.389,0.12784,0,0,0,0
611,1.2917,12.391,0.12894,0,0,0,0
612,1.2979,12.395,0.12984,0,0,0,0
613,1.3032,12.397,0.13063,0,0,0,0
614,1.3088,12.398,0.13167,0,0,0,0
615,1.3147,12.401,0.13247,0,0,0,0
616,1.3202,12.401,0.1336,0,0,0,0
617,1.3267,12.405,0.13445,0,0,0,0
618,1.3323,12.409,0.13537,0,0,0,0
619,1.3384,12.409,0.13649,0,0,0,0
620,1.3441,12.408,0.1374,0,0,0,0
621,1.3496,12.411,0.13858,0,0,0,0
622,1.3558,12.414,0.13947,0,0,0,0
623,1.3617,12.417,0.14032,0,0,0,0
624,1.3677,12.416,0.14149,0,0,0,0
625,1.3736,12.418,0.1427,0,0,0,0
626,1.3796,12.421,0.14392,0,0,0,0
627,1.3863,12.421,0.14501,0,0,0,0
628,1.3923,12.424,0.146,0,0,0,0
629,1.3981,12.426,0.1472,0,0,0,0
630,1.4039,12.427,0.1481,0,0,0,0
631,1.4098,12.427,0.14912,0,0,0,0
632,1.4165,12.429,0.15029,0,0,0,0
633,1.4228,12.43,0.15165,0,0,0,0
634,1.4291,12.431,0.15293,0,0,0,0
635,1.4349,12.431,0.15406,0,0,0,0
636,1.4406,12.433,0.15533,0,0,0,0
637,1.4475,12.432,0.1564,0,0,0,0
638,1.4537,12.431,0.15753,0,0,0,0
639,1.4595,12.433,0.15848,0,0,0,0
640,1.4657,12.433,0.15998,0,0,0,0
641,1.4716,12.433,0.16113,0,0,0,0
642,1.4782,12.433,0.1624,0,0,0,0
643,1.4848,12.433,0.16363,0,0,0,0
644,1.4912,12.434,0.16492,0,0,0,0
645,1.4973,12.434,0.16612,0,0,0,0
646,1.503,12.433,0.16727,0,0,0,0
647,1.5095,12.43,0.16861,0,0,0,0
648,1.5158,12.43,0.17018,0,0,0,0
649,1.5224,12.433,0.17138,0,0,0,0
650,1.5289,12.431,0.17251,0,0,0,0
651,1.5347,12.431,0.17385,0,0,0,0
652,1.541,12.43,0.1751,0,0,0,0
653,1.5476,12.426,0.17646,0,0,0,0
654,1.554,12.424,0.17776,0,0,0,0
655,1.5602,12.424,0.17938,0,0,0,0
656,1.5662,12.423,0.18098,0,0,0,0
657,1.5727,12.422,0.18248,0,0,0,0
658,1.5791,12.421,0.18397,0,0,0,0
659,1.586,12.419,0.18526,0,0,0,0
660,1.5924,12.418,0.18695,0,0,0,0
661,1.5985,12.415,0.18826,0,0,0,0
662,1.6048,12.413,0.18994,0,0,0,0
663,1.6114,12.411,0.19148,0,0,0,0
664,1.6185,12.41,0.19298,0,0,0,0
665,1.6248,12.409,0.19485,0,0,0,0
666,1.6313,12.404,0.19646,0,0,0,0
667,1.6372,12.403,0.1981,0,0,0,0
668,1.6438,12.399,0.19998,0,0,0,0
669,1.6509,12.398,0.20158,0,0,0,0
670,1.6578,12.394,0.20291,0,0,0,0
671,1.664,12.395,0.20451,0,0,0,0
672,1.6703,12.39,0.20616,0,0,0,0
673,1.677,12.389,0.20787,0,0,0,0
674,1.684,12.385,0.20995,0,0,0,0
675,1.691,12.382,0.21178,0,0,0,0
676,1.6976,12.378,0.21378,0,0,0,0
677,1.7038,12.372,0.21566,0,0,0,0
678,1.7105,12.369,0.21743,0,0,0,0
679,1.7177,12.367,0.21928,0,0,0,0
680,1.7246,12.363,0.22134,0,0,0,0
681,1.7312,12.357,0.22323,0,0,0,0
682,1.7376,12.354,0.22529,0,0,0,0
683,1.7442,12.35,0.22731,0,0,0,0
684,1.7513,12.344,0.22943,0,0,0,0
685,1.7583,12.338,0.23118,0,0,0,0
686,1.7651,12.336,0.23364,0,0,0,0
687,1.7716,12.33,0.23554,0,0,0,0
688,1.7784,12.326,0.23767,0,0,0,0
689,1.7855,12.319,0.23994,0,0,0,0
690,1.7929,12.314,0.24196,0,0,0,0
691,1.7997,12.309,0.24416,0,0,0,0
692,1.8062,12.302,0.24675,0,0,0,0
693,1.813,12.297,0.24881,0,0,0,0
694,1.8206,12.29,0.25083,0,0,0,0
695,1.8279,12.281,0.25298,0,0,0,0
696,1.8342,12.276,0.25532,0,0,0,0
697,1.841,12.268,0.25773,0,0,0,0
698,1.8481,12.262,0.26015,0,0,0,0
699,1.8553,12.256,0.26239,0,0,0,0
700,1.8628,12.249,0.26478,0,0,0,0
701,1.8694,12.241,0.26737,0,0,0,0
702,1.8761,12.232,0.27003,0,0,0,0
703,1.8832,12.224,0.27243,0,0,0,0
704,1.8908,12.215,0.27515,0,0,0,0
705,1.8981,12.214,0.27772,0,0,0,0
706,1.9048,12.205,0.28007,0,0,0,0
707,1.9119,12.191,0.28259,0,0,0,0
708,1.919,12.184,0.28539,0,0,0,0
709,1.9271,12.175,0.28785,0,0,0,0
710,1.9341,12.163,0.29099,0,0,0,0
711,1.9409,12.154,0.29369,0,0,0,0
712,1.948,12.143,0.29628,0,0,0,0
713,1.9554,12.135,0.29902,0,0,0,0
714,1.9629,12.123,0.30172,0,0,0,0
715,1.9705,12.111,0.30457,0,0,0,0
716,1.9774,12.099,0.30761,0,0,0,0
717,1.9844,12.09,0.31038,0,0,0,0
718,1.992,12.077,0.31326,0,0,0,0
719,2,12.064,0.31644,0,0,0,0
720,2.0073,12.052,0.31944,0,0,0,0
721,2.0141,12.04,0.32275,0,0,0,0
722,2.0215,12.027,0.32539,0,0,0,0
723,2.0292,12.011,0.32841,0,0,0,0
724,2.037,11.997,0.33157,0,0,0,0
725,2.044,11.983,0.33486,0,0,0,0
726,2.0511,11.971,0.33839,0,0,0,0
727,2.0588,11.956,0.34149,0,0,0,0
728,2.0667,11.94,0.34485,0,0,0,0
729,2.0744,11.925,0.34808,0,0,0,0
730,2.0818,11.909,0.35115,0,0,0,0
731,2.0894,11.891,0.35495,0,0,0,0
732,2.0972,11.871,0.3585,0,0,0,0
733,2.1054,11.852,0.36177,0,0,0,0
734,2.1131,11.835,0.36553,0,0,0,0
735,2.1207,11.815,0.36909,0,0,0,0
736,2.1281,11.793,0.37285,0,0,0,0
737,2.1367,11.771,0.37633,0,0,0,0
738,2.1451,11.739,0.37992,0,0,0,0