File: polyN_optimization/DP780_results/DATA/NT20_90_3.csv
Time[s],Displacement[mm],Force[kN],AxStrain_1,AxStrain_2,Thickness[mm],OuterWidth[mm],InnerWidth[mm]
0,0,-0.033793,0,0,1.493,19.963,10.025
1,0.000493,0.018377,-0.00026403,0,0,0,0
2,0.000565,0.089493,-0.00020602,0,0,0,0
3,0.000795,0.14576,-0.00015001,0,0,0,0
4,0.001026,0.19587,6.7998e-05,0,0,0,0
5,0.001242,0.23895,8.2997e-05,0,0,0,0
6,0.001149,0.28419,0.00010799,0,0,0,0
7,0.000898,0.32622,1.4e-05,0,0,0,0
8,0.001476,0.3718,-0.00017001,0,0,0,0
9,0.001755,0.4135,-4.4001e-05,0,0,0,0
10,0.001835,0.45439,0.00013299,0,0,0,0
11,0.002098,0.49608,-0.00013501,0,0,0,0
12,0.00242,0.53664,-0.00022002,0,0,0,0
13,0.00239,0.5765,6.7998e-05,0,0,0,0
14,0.002515,0.61389,-3e-06,0,0,0,0
15,0.002437,0.65455,-4.4001e-05,0,0,0,0
16,0.002735,0.69272,9.7995e-05,0,0,0,0
17,0.002789,0.73342,0.00034494,0,0,0,0
18,0.002691,0.7735,3e-06,0,0,0,0
19,0.002995,0.80906,1e-05,0,0,0,0
20,0.003198,0.84881,0.00010499,0,0,0,0
21,0.003647,0.88903,0.00012499,0,0,0,0
22,0.004002,0.92751,-0.00014901,0,0,0,0
23,0.004512,0.96467,0.00010499,0,0,0,0
24,0.004323,0.99986,-0.00021302,0,0,0,0
25,0.005084,1.0349,-0.00023703,0,0,0,0
26,0.004337,1.0715,-0.00021002,0,0,0,0
27,0.004171,1.1089,0.00014499,0,0,0,0
28,0.004475,1.1453,8.0997e-05,0,0,0,0
29,0.004462,1.1811,0.00015199,0,0,0,0
30,0.00477,1.2171,0.00017598,0,0,0,0
31,0.005273,1.2522,-1.3e-05,0,0,0,0
32,0.005564,1.2848,0.00032095,0,0,0,0
33,0.006196,1.3195,0.00026696,0,0,0,0
34,0.006291,1.3548,5.0999e-05,0,0,0,0
35,0.006223,1.3905,0.00015499,0,0,0,0
36,0.006416,1.4234,-0.00024303,0,0,0,0
37,0.006247,1.4583,0.00032095,0,0,0,0
38,0.006325,1.49,0.00022997,0,0,0,0
39,0.006369,1.5245,0.00022597,0,0,0,0
40,0.006744,1.554,0.00022997,0,0,0,0
41,0.006697,1.5868,0.00039192,0,0,0,0
42,0.007342,1.6239,0.00011199,0,0,0,0
43,0.007812,1.6573,0.00012799,0,0,0,0
44,0.008242,1.6896,0.00035794,0,0,0,0
45,0.008387,1.7191,6.3998e-05,0,0,0,0
46,0.008414,1.7493,0.00026696,0,0,0,0
47,0.008232,1.7816,0.00031395,0,0,0,0
48,0.008168,1.8119,0.00035494,0,0,0,0
49,0.00829,1.8422,0.00036193,0,0,0,0
50,0.008408,1.8759,0.0004559,0,0,0,0
51,0.008766,1.906,0.00046989,0,0,0,0
52,0.009196,1.9387,0.00028096,0,0,0,0
53,0.009713,1.9715,0.00041591,0,0,0,0
54,0.010227,2.0032,0.00034794,0,0,0,0
55,0.010656,2.032,0.00038493,0,0,0,0
56,0.010886,2.0624,0.00030795,0,0,0,0
57,0.010613,2.0957,0.00047988,0,0,0,0
58,0.010589,2.1269,0.0006288,0,0,0,0
59,0.010339,2.1561,0.00042291,0,0,0,0
60,0.010255,2.1861,0.00031495,0,0,0,0
61,0.010316,2.2155,0.00053386,0,0,0,0
62,0.010783,2.2452,0.00048388,0,0,0,0
63,0.01132,2.2761,0.00028096,0,0,0,0
64,0.011912,2.3084,0.00028696,0,0,0,0
65,0.012179,2.3384,0.00017299,0,0,0,0
66,0.013011,2.3692,0.00057084,0,0,0,0
67,0.012815,2.3998,0.00033494,0,0,0,0
68,0.012633,2.4253,0.00030395,0,0,0,0
69,0.012079,2.4531,0.00031495,0,0,0,0
70,0.012407,2.4868,0.00057483,0,0,0,0
71,0.0121,2.5154,0.00080168,0,0,0,0
72,0.012114,2.5423,0.00047389,0,0,0,0
73,0.012422,2.5709,0.00041591,0,0,0,0
74,0.012993,2.6011,0.00041291,0,0,0,0
75,0.013301,2.6289,0.00053786,0,0,0,0
76,0.014143,2.6595,0.0004359,0,0,0,0
77,0.014684,2.687,0.00022697,0,0,0,0
78,0.014698,2.716,0.00024697,0,0,0,0
79,0.014878,2.7432,0.00055085,0,0,0,0
80,0.014675,2.7705,0.00033794,0,0,0,0
81,0.014348,2.7989,0.00050087,0,0,0,0
82,0.013953,2.827,0.00050087,0,0,0,0
83,0.014092,2.8564,0.00061181,0,0,0,0
84,0.014258,2.8849,0.00061881,0,0,0,0
85,0.014437,2.9123,0.00053786,0,0,0,0
86,0.015056,2.9401,0.00040192,0,0,0,0
87,0.015577,2.9672,0.00051787,0,0,0,0
88,0.016582,2.9963,0.00064579,0,0,0,0
89,0.016819,3.0224,0.00051787,0,0,0,0
90,0.017164,3.0504,0.0004399,0,0,0,0
91,0.016962,3.0795,0.0004569,0,0,0,0
92,0.016928,3.1054,0.00033794,0,0,0,0
93,0.016253,3.1356,0.00029396,0,0,0,0
94,0.016375,3.1618,0.00057483,0,0,0,0
95,0.016436,3.1904,0.00057184,0,0,0,0
96,0.016592,3.2168,0.00078769,0,0,0,0
97,0.016819,3.2429,0.00068976,0,0,0,0
98,0.017303,3.2708,0.00057883,0,0,0,0
99,0.018513,3.3009,0.00068676,0,0,0,0
100,0.018737,3.3277,0.00049788,0,0,0,0
101,0.018977,3.3558,0.00056184,0,0,0,0
102,0.019397,3.3849,0.00073673,0,0,0,0
103,0.019529,3.4122,0.00036193,0,0,0,0
104,0.019249,3.4398,0.00053386,0,0,0,0
105,0.019104,3.4665,0.00075472,0,0,0,0
106,0.018825,3.4931,0.00056484,0,0,0,0
107,0.018649,3.5254,0.00064579,0,0,0,0
108,0.019208,3.5517,0.0008966,0,0,0,0
109,0.01935,3.5793,0.0007747,0,0,0,0
110,0.020053,3.6075,0.00082866,0,0,0,0
111,0.02095,3.6364,0.00096054,0,0,0,0
112,0.021424,3.6632,0.00060182,0,0,0,0
113,0.021779,3.689,0.00069676,0,0,0,0
114,0.021777,3.7144,0.00071075,0,0,0,0
115,0.021787,3.7424,0.00071075,0,0,0,0
116,0.021805,3.7693,0.00091258,0,0,0,0
117,0.021664,3.7968,0.00074472,0,0,0,0
118,0.021559,3.8235,0.00074372,0,0,0,0
119,0.021391,3.8512,0.00094655,0,0,0,0
120,0.021257,3.8784,0.00087961,0,0,0,0
121,0.022001,3.9063,0.00074472,0,0,0,0
122,0.022306,3.9338,0.0010485,0,0,0,0
123,0.022982,3.9607,0.00084564,0,0,0,0
124,0.023693,3.9868,0.00094755,0,0,0,0
125,0.023727,4.014,0.0007787,0,0,0,0
126,0.024168,4.0421,0.0010145,0,0,0,0
127,0.024202,4.0684,0.00081167,0,0,0,0
128,0.024305,4.0957,0.00087961,0,0,0,0
129,0.024339,4.1222,0.0010485,0,0,0,0
130,0.02407,4.1485,0.00087961,0,0,0,0
131,0.023969,4.1739,0.0010824,0,0,0,0
132,0.024138,4.201,0.0010155,0,0,0,0
133,0.024376,4.2257,0.0011164,0,0,0,0
134,0.024816,4.2544,0.0010494,0,0,0,0
135,0.025594,4.2807,0.0010834,0,0,0,0
136,0.026238,4.3066,0.00084664,0,0,0,0
137,0.026542,4.3349,0.00091458,0,0,0,0
138,0.027218,4.3624,0.0011503,0,0,0,0
139,0.027152,4.3916,0.0011503,0,0,0,0
140,0.02722,4.4174,0.0010145,0,0,0,0
141,0.027357,4.4403,0.00084664,0,0,0,0
142,0.027256,4.4704,0.00091358,0,0,0,0
143,0.027289,4.4974,0.00081267,0,0,0,0
144,0.027392,4.5222,0.0011164,0,0,0,0
145,0.027764,4.5509,0.0011503,0,0,0,0
146,0.028239,4.5774,0.0011164,0,0,0,0
147,0.028712,4.6037,0.00081267,0,0,0,0
148,0.029084,4.631,0.0011503,0,0,0,0
149,0.029794,4.6558,0.00084564,0,0,0,0
150,0.029931,4.682,0.00081267,0,0,0,0
151,0.029965,4.7076,0.00098152,0,0,0,0
152,0.030439,4.7342,0.0013191,0,0,0,0
153,0.030507,4.7613,0.00087961,0,0,0,0
154,0.030609,4.7865,0.0010824,0,0,0,0
155,0.03088,4.8126,0.0011833,0,0,0,0
156,0.030712,4.8398,0.0012852,0,0,0,0
157,0.031186,4.8657,0.0013191,0,0,0,0
158,0.031422,4.8916,0.0011503,0,0,0,0
159,0.031694,4.915,0.0012183,0,0,0,0
160,0.032201,4.9412,0.0012522,0,0,0,0
161,0.032675,4.9688,0.0013531,0,0,0,0
162,0.032676,4.994,0.001387,0,0,0,0
163,0.032914,5.0181,0.0014539,0,0,0,0
164,0.033049,5.0435,0.0011843,0,0,0,0
165,0.033524,5.0674,0.0013191,0,0,0,0
166,0.033829,5.0948,0.0013191,0,0,0,0
167,0.033864,5.118,0.0014549,0,0,0,0
168,0.034135,5.1447,0.001421,0,0,0,0
169,0.03444,5.1718,0.0015568,0,0,0,0
170,0.034778,5.194,0.0013541,0,0,0,0
171,0.034745,5.2185,0.0014889,0,0,0,0
172,0.035186,5.2452,0.0013541,0,0,0,0
173,0.03566,5.2708,0.0012193,0,0,0,0
174,0.035897,5.2973,0.0016576,0,0,0,0
175,0.035999,5.325,0.0013531,0,0,0,0
176,0.036304,5.3487,0.0016237,0,0,0,0
177,0.036711,5.3753,0.0014879,0,0,0,0
178,0.036948,5.3982,0.0013531,0,0,0,0
179,0.037355,5.4231,0.001387,0,0,0,0
180,0.037693,5.4508,0.0014549,0,0,0,0
181,0.038438,5.4763,0.0017245,0,0,0,0
182,0.038911,5.5036,0.0016916,0,0,0,0
183,0.039216,5.5258,0.0016576,0,0,0,0
184,0.03969,5.5509,0.0018593,0,0,0,0
185,0.039218,5.5734,0.0015558,0,0,0,0
186,0.039793,5.5992,0.0015897,0,0,0,0
187,0.039861,5.6221,0.0019611,0,0,0,0
188,0.040267,5.6461,0.0020958,0,0,0,0
189,0.040302,5.6686,0.0019271,0,0,0,0
190,0.040708,5.6938,0.0020619,0,0,0,0
191,0.041148,5.718,0.0018263,0,0,0,0
192,0.041589,5.7423,0.001995,0,0,0,0
193,0.042163,5.7675,0.0020629,0,0,0,0
194,0.042705,5.7904,0.0018273,0,0,0,0
195,0.043348,5.8133,0.0019281,0,0,0,0
196,0.044092,5.8384,0.0019621,0,0,0,0
197,0.044024,5.8621,0.0018613,0,0,0,0
198,0.044362,5.8943,0.0020299,0,0,0,0
199,0.044127,5.9082,0.0020978,0,0,0,0
200,0.04433,5.932,0.0022994,0,0,0,0
201,0.044533,5.9579,0.0021647,0,0,0,0
202,0.044804,5.9831,0.0020968,0,0,0,0
203,0.045244,6.0057,0.0019611,0,0,0,0
204,0.045448,6.0278,0.0020629,0,0,0,0
205,0.046395,6.0507,0.001995,0,0,0,0
206,0.046361,6.0727,0.0020289,0,0,0,0
207,0.048052,6.0993,0.001995,0,0,0,0
208,0.048559,6.1203,0.0022315,0,0,0,0
209,0.048897,6.1451,0.0020619,0,0,0,0
210,0.049439,6.167,0.0022644,0,0,0,0
211,0.049676,6.1911,0.0023323,0,0,0,0
212,0.049576,6.213,0.0022315,0,0,0,0
213,0.049644,6.2371,0.0024001,0,0,0,0
214,0.049577,6.2706,0.0025687,0,0,0,0
215,0.049815,6.2854,0.002435,0,0,0,0
216,0.050119,6.3085,0.0026704,0,0,0,0
217,0.050594,6.3298,0.0026365,0,0,0,0
218,0.051169,6.3514,0.0024001,0,0,0,0
219,0.051608,6.3749,0.0024011,0,0,0,0
220,0.052894,6.3989,0.0024689,0,0,0,0
221,0.053637,6.4204,0.0025029,0,0,0,0
222,0.054247,6.4446,0.0027053,0,0,0,0
223,0.054855,6.4648,0.0027382,0,0,0,0
224,0.055092,6.4879,0.0026026,0,0,0,0
225,0.055295,6.5101,0.0026365,0,0,0,0
226,0.055903,6.5314,0.0028051,0,0,0,0
227,0.056106,6.5528,0.0029397,0,0,0,0
228,0.055938,6.5767,0.0027033,0,0,0,0
229,0.05631,6.5996,0.0028041,0,0,0,0
230,0.056715,6.6238,0.0031421,0,0,0,0
231,0.056952,6.6414,0.0032427,0,0,0,0
232,0.057831,6.6638,0.002838,0,0,0,0
233,0.058812,6.6879,0.0029068,0,0,0,0
234,0.059285,6.7109,0.0032776,0,0,0,0
235,0.060536,6.7324,0.0030753,0,0,0,0
236,0.060842,6.7538,0.0032108,0,0,0,0
237,0.061384,6.7759,0.0030414,0,0,0,0
238,0.061722,6.7985,0.0032108,0,0,0,0
239,0.06196,6.819,0.0032786,0,0,0,0
240,0.062367,6.8402,0.0029746,0,0,0,0
241,0.062739,6.8614,0.0031092,0,0,0,0
242,0.063077,6.8818,0.0032098,0,0,0,0
243,0.063315,6.9051,0.003176,0,0,0,0
244,0.064328,6.9275,0.0033773,0,0,0,0
245,0.065139,6.9466,0.0033444,0,0,0,0
246,0.065477,6.9726,0.0034112,0,0,0,0
247,0.066254,6.9911,0.0032088,0,0,0,0
248,0.066659,7.0142,0.0034451,0,0,0,0
249,0.067302,7.0321,0.0036135,0,0,0,0
250,0.067911,7.0536,0.0034789,0,0,0,0
251,0.068181,7.0743,0.0035128,0,0,0,0
252,0.068924,7.0983,0.0035467,0,0,0,0
253,0.069433,7.1163,0.0035806,0,0,0,0
254,0.069973,7.1378,0.0036822,0,0,0,0
255,0.070312,7.1578,0.0037828,0,0,0,0
256,0.071529,7.1789,0.0038506,0,0,0,0
257,0.072104,7.2015,0.0039183,0,0,0,0
258,0.07295,7.2228,0.0039512,0,0,0,0
259,0.073594,7.2424,0.0042539,0,0,0,0
260,0.074169,7.2644,0.0042539,0,0,0,0
261,0.074237,7.2838,0.0038496,0,0,0,0
262,0.07461,7.3073,0.0041185,0,0,0,0
263,0.075185,7.326,0.0041185,0,0,0,0
264,0.075523,7.3458,0.0041524,0,0,0,0
265,0.0762,7.3652,0.0041524,0,0,0,0
266,0.076505,7.3873,0.0039841,0,0,0,0
267,0.07735,7.4071,0.0040518,0,0,0,0
268,0.078229,7.428,0.0044222,0,0,0,0
269,0.079141,7.4484,0.0042539,0,0,0,0
270,0.080324,7.4716,0.0045566,0,0,0,0
271,0.081237,7.489,0.004691,0,0,0,0
272,0.082318,7.5095,0.0046581,0,0,0,0
273,0.08313,7.5289,0.0046581,0,0,0,0
274,0.083603,7.5493,0.0045566,0,0,0,0
275,0.084348,7.5712,0.0049258,0,0,0,0
276,0.084652,7.5919,0.0045576,0,0,0,0
277,0.085092,7.6096,0.0043555,0,0,0,0
278,0.08533,7.631,0.0047248,0,0,0,0
279,0.085601,7.65,0.0047587,0,0,0,0
280,0.086514,7.6693,0.0045904,0,0,0,0
281,0.087124,7.6923,0.0046233,0,0,0,0
282,0.088172,7.712,0.0049597,0,0,0,0
283,0.08912,7.7327,0.0051955,0,0,0,0
284,0.090574,7.754,0.0051627,0,0,0,0
285,0.091623,7.7765,0.0055317,0,0,0,0
286,0.092097,7.7967,0.0056321,0,0,0,0
287,0.093416,7.8167,0.0054979,0,0,0,0
288,0.094059,7.838,0.0058001,0,0,0,0
289,0.094702,7.8561,0.0058011,0,0,0,0
290,0.095411,7.8777,0.0053974,0,0,0,0
291,0.095952,7.8995,0.0054989,0,0,0,0
292,0.097136,7.9204,0.0056013,0,0,0,0
293,0.097744,7.9419,0.0054332,0,0,0,0
294,0.098318,7.9629,0.0054998,0,0,0,0
295,0.099705,7.982,0.0058707,0,0,0,0
296,0.10089,8.0011,0.0059363,0,0,0,0
297,0.1017,8.0239,0.0058021,0,0,0,0
298,0.10258,8.0409,0.0061033,0,0,0,0
299,0.10326,8.0645,0.006474,0,0,0,0
300,0.10407,8.0818,0.0065396,0,0,0,0
301,0.10447,8.1022,0.0066071,0,0,0,0
302,0.10579,8.1238,0.0067075,0,0,0,0
303,0.10667,8.1455,0.0066737,0,0,0,0
304,0.10755,8.1622,0.0065733,0,0,0,0
305,0.1086,8.183,0.0066071,0,0,0,0
306,0.11026,8.2024,0.0067412,0,0,0,0
307,0.1111,8.2248,0.0066747,0,0,0,0
308,0.11269,8.2415,0.0066409,0,0,0,0
309,0.11351,8.2619,0.0069101,0,0,0,0
310,0.11439,8.2835,0.0066747,0,0,0,0
311,0.11472,8.2998,0.0072119,0,0,0,0
312,0.11557,8.3192,0.0072447,0,0,0,0
313,0.11658,8.3393,0.0076824,0,0,0,0
314,0.11733,8.362,0.0078164,0,0,0,0
315,0.11861,8.3797,0.0080515,0,0,0,0
316,0.11993,8.3999,0.0076149,0,0,0,0
317,0.12142,8.4205,0.0076824,0,0,0,0
318,0.12277,8.4419,0.0077846,0,0,0,0
319,0.1245,8.4619,0.0075494,0,0,0,0
320,0.12588,8.4812,0.0074472,0,0,0,0
321,0.12707,8.5002,0.0074144,0,0,0,0
322,0.12825,8.5222,0.0077152,0,0,0,0
323,0.12943,8.541,0.0078838,0,0,0,0
324,0.13095,8.5622,0.0080842,0,0,0,0
325,0.13163,8.5819,0.0084532,0,0,0,0
326,0.13322,8.603,0.008821,0,0,0,0
327,0.1344,8.624,0.0087199,0,0,0,0
328,0.13572,8.6433,0.0090549,0,0,0,0
329,0.13731,8.6645,0.0089211,0,0,0,0
330,0.13843,8.6822,0.009156,0,0,0,0
331,0.13981,8.7022,0.008821,0,0,0,0
332,0.141,8.7233,0.008821,0,0,0,0
333,0.14181,8.7432,0.0086872,0,0,0,0
334,0.1433,8.7632,0.0087883,0,0,0,0
335,0.14475,8.7836,0.0086881,0,0,0,0
336,0.14634,8.8014,0.0091569,0,0,0,0
337,0.1481,8.8246,0.0094245,0,0,0,0
338,0.14993,8.8451,0.0097592,0,0,0,0
339,0.15202,8.8619,0.0097592,0,0,0,0
340,0.15378,8.8821,0.010328,0,0,0,0
341,0.155,8.9039,0.010262,0,0,0,0
342,0.15649,8.9214,0.01006,0,0,0,0
343,0.15737,8.9412,0.0099949,0,0,0,0
344,0.15868,8.9603,0.0098949,0,0,0,0
345,0.16021,8.98,0.0097602,0,0,0,0
346,0.1618,8.9975,0.0099285,0,0,0,0
347,0.16329,9.0193,0.010129,0,0,0,0
348,0.16514,9.0365,0.01043,0,0,0,0
349,0.16707,9.0552,0.010463,0,0,0,0
350,0.16893,9.075,0.010864,0,0,0,0
351,0.17056,9.0946,0.011298,0,0,0,0
352,0.17184,9.1137,0.011297,0,0,0,0
353,0.17346,9.1339,0.011499,0,0,0,0
354,0.17499,9.1503,0.0117,0,0,0,0
355,0.17678,9.1702,0.011432,0,0,0,0
356,0.17874,9.189,0.011666,0,0,0,0
357,0.1807,9.2099,0.011566,0,0,0,0
358,0.18334,9.2274,0.011333,0,0,0,0
359,0.18506,9.249,0.011599,0,0,0,0
360,0.18679,9.2676,0.011699,0,0,0,0
361,0.18831,9.2871,0.012033,0,0,0,0
362,0.19003,9.3059,0.012266,0,0,0,0
363,0.19105,9.3251,0.013035,0,0,0,0
364,0.19321,9.3465,0.013101,0,0,0,0
365,0.19449,9.3654,0.013235,0,0,0,0
366,0.19713,9.3856,0.013468,0,0,0,0
367,0.19947,9.4027,0.013434,0,0,0,0
368,0.20136,9.4222,0.013269,0,0,0,0
369,0.20342,9.4424,0.013235,0,0,0,0
370,0.20525,9.4616,0.013068,0,0,0,0
371,0.20711,9.4783,0.01327,0,0,0,0
372,0.20927,9.4948,0.013502,0,0,0,0
373,0.21143,9.514,0.013903,0,0,0,0
374,0.21366,9.533,0.014336,0,0,0,0
375,0.21637,9.5489,0.014802,0,0,0,0
376,0.21857,9.5701,0.014869,0,0,0,0
377,0.2207,9.59,0.014902,0,0,0,0
378,0.22273,9.6081,0.015102,0,0,0,0
379,0.22452,9.6281,0.014936,0,0,0,0
380,0.22624,9.6459,0.014936,0,0,0,0
381,0.22834,9.6647,0.014871,0,0,0,0
382,0.23033,9.6838,0.014969,0,0,0,0
383,0.2324,9.7028,0.01527,0,0,0,0
384,0.23527,9.7189,0.015503,0,0,0,0
385,0.2374,9.7356,0.016035,0,0,0,0
386,0.23943,9.7574,0.016235,0,0,0,0
387,0.24163,9.7735,0.016566,0,0,0,0
388,0.24382,9.7916,0.016898,0,0,0,0
389,0.24589,9.8081,0.016965,0,0,0,0
390,0.24805,9.8254,0.017131,0,0,0,0
391,0.25096,9.8469,0.017099,0,0,0,0
392,0.2539,9.8641,0.016865,0,0,0,0
393,0.2563,9.8802,0.016832,0,0,0,0
394,0.25883,9.8971,0.017066,0,0,0,0
395,0.261,9.914,0.01743,0,0,0,0
396,0.26316,9.9341,0.01763,0,0,0,0
397,0.26489,9.9527,0.01806,0,0,0,0
398,0.26705,9.9742,0.018227,0,0,0,0
399,0.26955,9.9861,0.018889,0,0,0,0
400,0.27239,10.001,0.01899,0,0,0,0
401,0.27506,10.021,0.019254,0,0,0,0
402,0.27709,10.035,0.01899,0,0,0,0
403,0.27963,10.054,0.018924,0,0,0,0
404,0.28155,10.074,0.01899,0,0,0,0
405,0.28389,10.091,0.019254,0,0,0,0
406,0.28639,10.107,0.019388,0,0,0,0
407,0.28946,10.124,0.019652,0,0,0,0
408,0.29241,10.14,0.019917,0,0,0,0
409,0.29545,10.157,0.020348,0,0,0,0
410,0.29802,10.176,0.020912,0,0,0,0
411,0.30062,10.195,0.021241,0,0,0,0
412,0.30282,10.212,0.021275,0,0,0,0
413,0.30542,10.23,0.021606,0,0,0,0
414,0.30819,10.246,0.021308,0,0,0,0
415,0.31131,10.258,0.021308,0,0,0,0
416,0.31442,10.275,0.021739,0,0,0,0
417,0.31756,10.293,0.021672,0,0,0,0
418,0.31972,10.309,0.022036,0,0,0,0
419,0.32226,10.326,0.022763,0,0,0,0
420,0.32415,10.342,0.022862,0,0,0,0
421,0.32625,10.359,0.02339,0,0,0,0
422,0.32953,10.376,0.023457,0,0,0,0
423,0.3327,10.392,0.023688,0,0,0,0
424,0.33565,10.405,0.02382,0,0,0,0
425,0.33859,10.422,0.024051,0,0,0,0
426,0.34126,10.44,0.024085,0,0,0,0
427,0.34417,10.454,0.024085,0,0,0,0
428,0.34667,10.472,0.02425,0,0,0,0
429,0.34947,10.486,0.024678,0,0,0,0
430,0.35302,10.503,0.024843,0,0,0,0
431,0.35634,10.517,0.025172,0,0,0,0
432,0.35989,10.532,0.025601,0,0,0,0
433,0.36273,10.548,0.025898,0,0,0,0
434,0.36546,10.563,0.026227,0,0,0,0
435,0.36827,10.579,0.026195,0,0,0,0
436,0.37141,10.595,0.026195,0,0,0,0
437,0.37439,10.613,0.026656,0,0,0,0
438,0.37756,10.626,0.026918,0,0,0,0
439,0.38088,10.641,0.027181,0,0,0,0
440,0.38405,10.657,0.027181,0,0,0,0
441,0.38683,10.673,0.027444,0,0,0,0
442,0.38919,10.688,0.027675,0,0,0,0
443,0.39186,10.702,0.028035,0,0,0,0
444,0.39528,10.718,0.02843,0,0,0,0
445,0.39828,10.731,0.028694,0,0,0,0
446,0.40207,10.748,0.028792,0,0,0,0
447,0.40576,10.762,0.029251,0,0,0,0
448,0.40819,10.776,0.029349,0,0,0,0
449,0.41157,10.793,0.029481,0,0,0,0
450,0.41464,10.806,0.029579,0,0,0,0
451,0.41759,10.82,0.030104,0,0,0,0
452,0.42181,10.837,0.030136,0,0,0,0
453,0.4257,10.851,0.030464,0,0,0,0
454,0.42928,10.863,0.030891,0,0,0,0
455,0.43199,10.879,0.031119,0,0,0,0
456,0.43567,10.892,0.031545,0,0,0,0
457,0.43858,10.904,0.032036,0,0,0,0
458,0.44169,10.919,0.032265,0,0,0,0
459,0.4454,10.933,0.032527,0,0,0,0
460,0.44943,10.947,0.032659,0,0,0,0
461,0.45284,10.961,0.033214,0,0,0,0
462,0.45568,10.976,0.033279,0,0,0,0
463,0.45849,10.988,0.03341,0,0,0,0
464,0.4618,11,0.033835,0,0,0,0
465,0.46508,11.015,0.033997,0,0,0,0
466,0.46829,11.028,0.034422,0,0,0,0
467,0.47255,11.042,0.034748,0,0,0,0
468,0.47579,11.056,0.03501,0,0,0,0
469,0.47911,11.069,0.035043,0,0,0,0
470,0.48221,11.086,0.035662,0,0,0,0
471,0.48576,11.098,0.035793,0,0,0,0
472,0.48931,11.112,0.036283,0,0,0,0
473,0.49334,11.121,0.036542,0,0,0,0
474,0.49749,11.138,0.036836,0,0,0,0
475,0.50094,11.151,0.037031,0,0,0,0
476,0.50422,11.162,0.037259,0,0,0,0
477,0.50787,11.178,0.037487,0,0,0,0
478,0.51121,11.192,0.03778,0,0,0,0
479,0.51483,11.203,0.038137,0,0,0,0
480,0.51923,11.215,0.0383,0,0,0,0
481,0.52345,11.228,0.038723,0,0,0,0
482,0.52714,11.239,0.0396,0,0,0,0
483,0.53052,11.249,0.039763,0,0,0,0
484,0.53373,11.266,0.04012,0,0,0,0
485,0.53731,11.278,0.040283,0,0,0,0
486,0.54154,11.288,0.040639,0,0,0,0
487,0.54562,11.303,0.040575,0,0,0,0
488,0.54934,11.313,0.041191,0,0,0,0
489,0.55279,11.328,0.041515,0,0,0,0
490,0.55651,11.34,0.041936,0,0,0,0
491,0.55979,11.351,0.042326,0,0,0,0
492,0.56354,11.362,0.042746,0,0,0,0
493,0.56753,11.374,0.043459,0,0,0,0
494,0.57199,11.387,0.043588,0,0,0,0
495,0.57591,11.401,0.044041,0,0,0,0
496,0.5797,11.41,0.04417,0,0,0,0
497,0.58325,11.421,0.044526,0,0,0,0
498,0.58683,11.433,0.044784,0,0,0,0
499,0.59122,11.445,0.045236,0,0,0,0
500,0.59562,11.456,0.045366,0,0,0,0
501,0.59991,11.466,0.045722,0,0,0,0
502,0.60386,11.477,0.046012,0,0,0,0
503,0.60758,11.488,0.046819,0,0,0,0
504,0.61137,11.502,0.047335,0,0,0,0
505,0.61556,11.513,0.047464,0,0,0,0
506,0.61962,11.524,0.047818,0,0,0,0
507,0.62448,11.535,0.048269,0,0,0,0
508,0.62854,11.546,0.048816,0,0,0,0
509,0.63185,11.559,0.048591,0,0,0,0
510,0.63598,11.57,0.048817,0,0,0,0
511,0.63959,11.576,0.04917,0,0,0,0
512,0.64395,11.588,0.049717,0,0,0,0
513,0.64865,11.598,0.050104,0,0,0,0
514,0.65288,11.608,0.050489,0,0,0,0
515,0.65673,11.62,0.051292,0,0,0,0
516,0.66072,11.629,0.051548,0,0,0,0
517,0.66451,11.64,0.052062,0,0,0,0
518,0.66843,11.652,0.05219,0,0,0,0
519,0.67299,11.662,0.052639,0,0,0,0
520,0.67752,11.669,0.052896,0,0,0,0
521,0.68191,11.683,0.053089,0,0,0,0
522,0.68573,11.693,0.053569,0,0,0,0
523,0.68982,11.703,0.054114,0,0,0,0
524,0.69398,11.712,0.054433,0,0,0,0
525,0.69854,11.72,0.054913,0,0,0,0
526,0.70344,11.73,0.055553,0,0,0,0
527,0.70777,11.742,0.056192,0,0,0,0
528,0.71196,11.749,0.056416,0,0,0,0
529,0.71592,11.761,0.05648,0,0,0,0
530,0.72001,11.769,0.056927,0,0,0,0
531,0.72484,11.779,0.057374,0,0,0,0
532,0.72984,11.79,0.057821,0,0,0,0
533,0.7344,11.798,0.058204,0,0,0,0
534,0.7386,11.808,0.058905,0,0,0,0
535,0.74275,11.818,0.059319,0,0,0,0
536,0.74708,11.826,0.059829,0,0,0,0
537,0.75168,11.835,0.06021,0,0,0,0
538,0.75641,11.844,0.060783,0,0,0,0
539,0.76138,11.849,0.06107,0,0,0,0
540,0.76557,11.859,0.061483,0,0,0,0
541,0.76996,11.87,0.062213,0,0,0,0
542,0.77388,11.879,0.062468,0,0,0,0
543,0.77834,11.889,0.062722,0,0,0,0
544,0.78362,11.898,0.063388,0,0,0,0
545,0.78791,11.906,0.063864,0,0,0,0
546,0.79288,11.913,0.064467,0,0,0,0
547,0.7968,11.923,0.064942,0,0,0,0
548,0.80072,11.931,0.065227,0,0,0,0
549,0.80572,11.94,0.06567,0,0,0,0
550,0.81049,11.948,0.066175,0,0,0,0
551,0.81549,11.953,0.066998,0,0,0,0
552,0.82009,11.961,0.067029,0,0,0,0
553,0.82438,11.97,0.067567,0,0,0,0
554,0.82878,11.977,0.068135,0,0,0,0
555,0.83337,11.986,0.068672,0,0,0,0
556,0.83841,11.995,0.069209,0,0,0,0
557,0.84381,12.005,0.069649,0,0,0,0
558,0.84878,12.013,0.070249,0,0,0,0
559,0.85331,12.017,0.070784,0,0,0,0
560,0.85747,12.025,0.071477,0,0,0,0
561,0.8624,12.032,0.071885,0,0,0,0
562,0.86748,12.04,0.072357,0,0,0,0
563,0.87265,12.049,0.073049,0,0,0,0
564,0.87738,12.057,0.073394,0,0,0,0
565,0.88245,12.064,0.074305,0,0,0,0
566,0.88684,12.072,0.074838,0,0,0,0
567,0.89205,12.079,0.075276,0,0,0,0
568,0.89715,12.086,0.075779,0,0,0,0
569,0.90249,12.092,0.076499,0,0,0,0
570,0.90732,12.099,0.077062,0,0,0,0
571,0.91172,12.105,0.077438,0,0,0,0
572,0.91648,12.113,0.078095,0,0,0,0
573,0.92176,12.12,0.079031,0,0,0,0
574,0.92747,12.125,0.079187,0,0,0,0
575,0.93247,12.134,0.080249,0,0,0,0
576,0.93734,12.142,0.080686,0,0,0,0
577,0.94231,12.147,0.081246,0,0,0,0
578,0.94694,12.151,0.082025,0,0,0,0
579,0.95204,12.156,0.082523,0,0,0,0
580,0.95748,12.164,0.083239,0,0,0,0
581,0.96309,12.171,0.083736,0,0,0,0
582,0.96755,12.177,0.084234,0,0,0,0
583,0.97232,12.184,0.084824,0,0,0,0
584,0.97702,12.188,0.085444,0,0,0,0
585,0.98266,12.196,0.086189,0,0,0,0
586,0.98831,12.202,0.08684,0,0,0,0
587,0.9929,12.209,0.087459,0,0,0,0
588,0.99814,12.215,0.088171,0,0,0,0
589,1.0028,12.218,0.088635,0,0,0,0
590,1.0078,12.224,0.089656,0,0,0,0
591,1.0132,12.23,0.090305,0,0,0,0
592,1.0187,12.237,0.090706,0,0,0,0
593,1.024,12.243,0.091354,0,0,0,0
594,1.0288,12.248,0.092156,0,0,0,0
595,1.0335,12.254,0.092957,0,0,0,0
596,1.0386,12.259,0.093573,0,0,0,0
597,1.0441,12.264,0.094158,0,0,0,0
598,1.0503,12.269,0.095234,0,0,0,0
599,1.0554,12.273,0.096002,0,0,0,0
600,1.0602,12.277,0.096524,0,0,0,0
601,1.0651,12.284,0.097198,0,0,0,0
602,1.0705,12.288,0.098057,0,0,0,0
603,1.0763,12.294,0.09867,0,0,0,0
604,1.0821,12.301,0.099497,0,0,0,0
605,1.0871,12.304,0.10041,0,0,0,0
606,1.0921,12.31,0.10139,0,0,0,0
607,1.0974,12.315,0.10206,0,0,0,0
608,1.1031,12.319,0.10258,0,0,0,0
609,1.1089,12.324,0.10347,0,0,0,0
610,1.1146,12.326,0.10435,0,0,0,0
611,1.1196,12.33,0.10505,0,0,0,0
612,1.1248,12.334,0.10605,0,0,0,0
613,1.1304,12.337,0.10657,0,0,0,0
614,1.1362,12.342,0.10748,0,0,0,0
615,1.1422,12.345,0.10836,0,0,0,0
616,1.1475,12.348,0.10927,0,0,0,0
617,1.1528,12.354,0.11009,0,0,0,0
618,1.1583,12.358,0.11112,0,0,0,0
619,1.1637,12.361,0.11187,0,0,0,0
620,1.1698,12.365,0.11248,0,0,0,0
621,1.1758,12.368,0.11344,0,0,0,0
622,1.1812,12.374,0.11438,0,0,0,0
623,1.1863,12.377,0.11528,0,0,0,0
624,1.1922,12.381,0.11622,0,0,0,0
625,1.1983,12.384,0.11709,0,0,0,0
626,1.2043,12.386,0.11799,0,0,0,0
627,1.2103,12.389,0.11904,0,0,0,0
628,1.2153,12.391,0.11994,0,0,0,0
629,1.2205,12.395,0.12096,0,0,0,0
630,1.2265,12.396,0.12177,0,0,0,0
631,1.2329,12.397,0.12275,0,0,0,0
632,1.2386,12.404,0.12368,0,0,0,0
633,1.2444,12.406,0.12485,0,0,0,0
634,1.2497,12.41,0.12541,0,0,0,0
635,1.2558,12.413,0.1266,0,0,0,0
636,1.2622,12.413,0.12723,0,0,0,0
637,1.2683,12.415,0.12812,0,0,0,0
638,1.2737,12.418,0.12881,0,0,0,0
639,1.2791,12.42,0.12993,0,0,0,0
640,1.2849,12.424,0.13056,0,0,0,0
641,1.2912,12.425,0.13195,0,0,0,0
642,1.2973,12.427,0.13287,0,0,0,0
643,1.3033,12.427,0.13399,0,0,0,0
644,1.3089,12.431,0.135,0,0,0,0
645,1.3142,12.432,0.13597,0,0,0,0
646,1.3203,12.434,0.13686,0,0,0,0
647,1.3268,12.435,0.13809,0,0,0,0
648,1.3328,12.437,0.13895,0,0,0,0
649,1.3385,12.438,0.14021,0,0,0,0
650,1.3442,12.439,0.14153,0,0,0,0
651,1.3501,12.44,0.14238,0,0,0,0
652,1.3563,12.442,0.1435,0,0,0,0
653,1.3629,12.44,0.14464,0,0,0,0
654,1.3687,12.448,0.14549,0,0,0,0
655,1.3742,12.444,0.14695,0,0,0,0
656,1.3802,12.445,0.14805,0,0,0,0
657,1.3864,12.446,0.14922,0,0,0,0
658,1.393,12.446,0.15079,0,0,0,0
659,1.399,12.447,0.15181,0,0,0,0
660,1.4048,12.447,0.15276,0,0,0,0
661,1.4103,12.447,0.1541,0,0,0,0
662,1.4167,12.45,0.15526,0,0,0,0
663,1.423,12.447,0.1565,0,0,0,0
664,1.4294,12.449,0.15789,0,0,0,0
665,1.4358,12.447,0.15913,0,0,0,0
666,1.4413,12.446,0.16045,0,0,0,0
667,1.4471,12.447,0.16169,0,0,0,0
668,1.4539,12.447,0.16298,0,0,0,0
669,1.4605,12.446,0.1641,0,0,0,0
670,1.4671,12.446,0.16545,0,0,0,0
671,1.473,12.446,0.16694,0,0,0,0
672,1.4789,12.444,0.16843,0,0,0,0
673,1.4853,12.444,0.17008,0,0,0,0
674,1.4922,12.443,0.17131,0,0,0,0
675,1.4986,12.442,0.17253,0,0,0,0
676,1.5047,12.442,0.17407,0,0,0,0
677,1.5108,12.44,0.17571,0,0,0,0
678,1.5172,12.44,0.17721,0,0,0,0
679,1.5239,12.438,0.17883,0,0,0,0
680,1.5308,12.438,0.18058,0,0,0,0
681,1.5367,12.436,0.18202,0,0,0,0
682,1.5427,12.434,0.1834,0,0,0,0
683,1.5493,12.433,0.18486,0,0,0,0
684,1.5564,12.43,0.18665,0,0,0,0
685,1.5628,12.429,0.18848,0,0,0,0
686,1.5692,12.427,0.18999,0,0,0,0
687,1.5755,12.423,0.19155,0,0,0,0
688,1.582,12.421,0.19306,0,0,0,0
689,1.589,12.419,0.19512,0,0,0,0
690,1.5957,12.414,0.19678,0,0,0,0
691,1.602,12.412,0.19845,0,0,0,0
692,1.6081,12.41,0.20056,0,0,0,0
693,1.6148,12.407,0.20249,0,0,0,0
694,1.6218,12.405,0.20423,0,0,0,0
695,1.629,12.398,0.20602,0,0,0,0
696,1.6354,12.396,0.20805,0,0,0,0
697,1.6416,12.393,0.20975,0,0,0,0
698,1.6484,12.389,0.21186,0,0,0,0
699,1.6553,12.384,0.21402,0,0,0,0
700,1.6628,12.381,0.21631,0,0,0,0
701,1.6692,12.377,0.21838,0,0,0,0
702,1.6754,12.373,0.2203,0,0,0,0
703,1.6824,12.368,0.22244,0,0,0,0
704,1.6895,12.364,0.2248,0,0,0,0
705,1.6963,12.358,0.22703,0,0,0,0
706,1.7033,12.355,0.22908,0,0,0,0
707,1.7098,12.347,0.23107,0,0,0,0
708,1.7166,12.342,0.23305,0,0,0,0
709,1.7237,12.336,0.23538,0,0,0,0
710,1.7311,12.332,0.23767,0,0,0,0
711,1.738,12.326,0.23986,0,0,0,0
712,1.7443,12.319,0.24196,0,0,0,0
713,1.7513,12.312,0.24429,0,0,0,0
714,1.7587,12.305,0.24651,0,0,0,0
715,1.7658,12.299,0.24913,0,0,0,0
716,1.7727,12.291,0.25163,0,0,0,0
717,1.7792,12.284,0.25412,0,0,0,0
718,1.7862,12.277,0.25677,0,0,0,0
719,1.7937,12.27,0.25943,0,0,0,0
720,1.8011,12.26,0.26191,0,0,0,0
721,1.8081,12.252,0.2643,0,0,0,0
722,1.8147,12.245,0.26691,0,0,0,0
723,1.8217,12.237,0.26958,0,0,0,0
724,1.8295,12.228,0.27229,0,0,0,0
725,1.8366,12.218,0.27486,0,0,0,0
726,1.8436,12.208,0.27801,0,0,0,0
727,1.8505,12.199,0.2808,0,0,0,0
728,1.8574,12.19,0.28338,0,0,0,0
729,1.8649,12.181,0.2862,0,0,0,0
730,1.8724,12.171,0.2893,0,0,0,0
731,1.8791,12.16,0.29243,0,0,0,0
732,1.8858,12.149,0.29523,0,0,0,0
733,1.8937,12.14,0.29842,0,0,0,0
734,1.9014,12.129,0.30143,0,0,0,0
735,1.9093,12.116,0.30455,0,0,0,0
736,1.9156,12.101,0.30724,0,0,0,0
737,1.9227,12.092,0.31032,0,0,0,0
738,1.9306,12.079,0.31332,0,0,0,0
739,1.9382,12.066,0.31625,0,0,0,0
740,1.9458,12.053,0.31972,0,0,0,0
741,1.953,12.037,0.32252,0,0,0,0
742,1.96,12.023,0.32605,0,0,0,0
743,1.9682,12.008,0.329,0,0,0,0
744,1.9761,11.994,0.33221,0,0,0,0
745,1.9833,11.974,0.33565,0,0,0,0
746,1.9909,11.96,0.33942,0,0,0,0
747,1.9987,11.941,0.34235,0,0,0,0
748,2.0067,11.924,0.34579,0,0,0,0
749,2.0145,11.906,0.34947,0,0,0,0
750,2.022,11.885,0.353,0,0,0,0
751,2.0297,11.861,0.35674,0,0,0,0
752,2.0386,11.833,0.36137,0,0,0,0