File: polyN_optimization/DP780_results/DATA/NT20_90_1.csv
Time[s],Displacement[mm],Force[kN],AxStrain_1,AxStrain_2,Thickness[mm],OuterWidth[mm],InnerWidth[mm]
0,0,-0.041208,0,0,1.4925,19.967,10.092
1,-0.000539,0.0032552,-0.00013601,0,0,0,0
2,0.00044,0.071442,-0.00018902,0,0,0,0
3,-0.000207,0.13017,-0.00020902,0,0,0,0
4,0.000391,0.17983,-0.00024203,0,0,0,0
5,0.000503,0.22599,-0.00013801,0,0,0,0
6,0.000954,0.26676,-4.0001e-05,0,0,0,0
7,0.001036,0.30925,2.9e-05,0,0,0,0
8,0.001234,0.35627,-0.00014601,0,0,0,0
9,0.001155,0.39573,9.9995e-05,0,0,0,0
10,0.00156,0.43937,9.8995e-05,0,0,0,0
11,0.00172,0.47947,-0.00018002,0,0,0,0
12,0.001808,0.51624,4.0999e-05,0,0,0,0
13,0.002123,0.55475,-7e-06,0,0,0,0
14,0.002044,0.59519,-0.00021002,0,0,0,0
15,0.001998,0.63474,-8.4004e-05,0,0,0,0
16,0.002573,0.67334,-8.8004e-05,0,0,0,0
17,0.002425,0.71207,-0.00017602,0,0,0,0
18,0.002788,0.75354,5.0999e-05,0,0,0,0
19,0.002696,0.78944,-2.7e-05,0,0,0,0
20,0.003172,0.82729,8.7996e-05,0,0,0,0
21,0.003019,0.86749,6.0998e-05,0,0,0,0
22,0.003507,0.90782,-2.7e-05,0,0,0,0
23,0.003685,0.94392,-1.4e-05,0,0,0,0
24,0.003883,0.98233,-0.00024003,0,0,0,0
25,0.003947,1.0186,-0.00017602,0,0,0,0
26,0.004023,1.0552,-0.00023703,0,0,0,0
27,0.004284,1.0918,-0.00010101,0,0,0,0
28,0.003884,1.1284,-3e-05,0,0,0,0
29,0.004224,1.1616,-0.00012201,0,0,0,0
30,0.004516,1.199,0.00010099,0,0,0,0
31,0.004581,1.2335,0.00010099,0,0,0,0
32,0.004797,1.2674,0.0004559,0,0,0,0
33,0.005628,1.3,7.7997e-05,0,0,0,0
34,0.00589,1.3309,-4.7001e-05,0,0,0,0
35,0.005528,1.3689,-0.00011501,0,0,0,0
36,0.005511,1.404,0,0,0,0,0
37,0.005635,1.4395,-9.8005e-05,0,0,0,0
38,0.005493,1.4721,8.7996e-05,0,0,0,0
39,0.005601,1.5033,7.0997e-05,0,0,0,0
40,0.005869,1.537,1.7e-05,0,0,0,0
41,0.006233,1.5722,0.00011799,0,0,0,0
42,0.006576,1.6046,0.00012499,0,0,0,0
43,0.006765,1.6377,4.3999e-05,0,0,0,0
44,0.007507,1.6701,-0.00018602,0,0,0,0
45,0.007557,1.7029,-0.00018902,0,0,0,0
46,0.007674,1.7355,-9.8005e-05,0,0,0,0
47,0.007184,1.7647,-0.00014501,0,0,0,0
48,0.007387,1.7966,-0.00018202,0,0,0,0
49,0.007629,1.8306,-7e-06,0,0,0,0
50,0.007536,1.864,-0.00010501,0,0,0,0
51,0.007935,1.8936,5.3999e-05,0,0,0,0
52,0.008058,1.9223,-7.4003e-05,0,0,0,0
53,0.008958,1.9541,0.00019598,0,0,0,0
54,0.009416,1.9852,0.00036193,0,0,0,0
55,0.009603,2.015,0.00019998,0,0,0,0
56,0.009893,2.0458,4e-06,0,0,0,0
57,0.009528,2.0744,0.00024697,0,0,0,0
58,0.009331,2.1076,0.00019298,0,0,0,0
59,0.009172,2.1387,0.00022997,0,0,0,0
60,0.009279,2.1765,0.00019598,0,0,0,0
61,0.009403,2.2008,0.00017898,0,0,0,0
62,0.00999,2.2305,0.00016199,0,0,0,0
63,0.010129,2.2611,7e-06,0,0,0,0
64,0.01081,2.2946,0.00035194,0,0,0,0
65,0.011488,2.3243,0.00017299,0,0,0,0
66,0.011918,2.3525,0.00037893,0,0,0,0
67,0.0118,2.3848,0.00015899,0,0,0,0
68,0.011418,2.4165,8.0997e-05,0,0,0,0
69,0.011612,2.4412,0.00018298,0,0,0,0
70,0.01135,2.4732,-4.7001e-05,0,0,0,0
71,0.011468,2.5027,0.00016599,0,0,0,0
72,0.011872,2.5306,0.00027096,0,0,0,0
73,0.011846,2.5596,0.00052386,0,0,0,0
74,0.012723,2.5911,0.00046289,0,0,0,0
75,0.012985,2.6255,0.00042291,0,0,0,0
76,0.013389,2.6488,0.00065578,0,0,0,0
77,0.014075,2.6806,0.00050787,0,0,0,0
78,0.014234,2.7089,0.00030795,0,0,0,0
79,0.013142,2.7353,0.0004499,0,0,0,0
80,0.013148,2.7642,0.00011899,0,0,0,0
81,0.013027,2.7943,0.00033594,0,0,0,0
82,0.013044,2.8246,0.00052486,0,0,0,0
83,0.013482,2.852,0.0004499,0,0,0,0
84,0.013797,2.8779,0.00055185,0,0,0,0
85,0.014466,2.9109,0.00088361,0,0,0,0
86,0.015294,2.9409,0.00083565,0,0,0,0
87,0.015326,2.9676,0.00057983,0,0,0,0
88,0.015836,2.9938,0.00068077,0,0,0,0
89,0.016082,3.0239,0.00084364,0,0,0,0
90,0.015912,3.0505,0.00070175,0,0,0,0
91,0.015423,3.0799,0.00055285,0,0,0,0
92,0.015153,3.1096,0.0004539,0,0,0,0
93,0.015128,3.1365,0.00030595,0,0,0,0
94,0.015494,3.1644,0.00064779,0,0,0,0
95,0.01554,3.1945,0.00060981,0,0,0,0
96,0.016427,3.2237,0.00067777,0,0,0,0
97,0.017114,3.2526,0.00081267,0,0,0,0
98,0.017625,3.2804,0.00071774,0,0,0,0
99,0.018073,3.3114,0.00053286,0,0,0,0
100,0.018692,3.3408,0.00050587,0,0,0,0
101,0.018313,3.367,0.00080568,0,0,0,0
102,0.01749,3.3955,0.0004449,0,0,0,0
103,0.017106,3.4257,0.00052586,0,0,0,0
104,0.016944,3.4547,0.00052986,0,0,0,0
105,0.017661,3.4822,0.00065778,0,0,0,0
106,0.018023,3.5104,0.00072474,0,0,0,0
107,0.018789,3.5412,0.00074872,0,0,0,0
108,0.019466,3.569,0.00085763,0,0,0,0
109,0.02059,3.5967,0.00081367,0,0,0,0
110,0.020586,3.6244,0.0008946,0,0,0,0
111,0.020575,3.6548,0.00088061,0,0,0,0
112,0.020323,3.6822,0.00088161,0,0,0,0
113,0.019963,3.7119,0.00067877,0,0,0,0
114,0.01977,3.7391,0.00050887,0,0,0,0
115,0.02,3.7666,0.00074572,0,0,0,0
116,0.02003,3.7953,0.00057683,0,0,0,0
117,0.020531,3.8216,0.00064479,0,0,0,0
118,0.021335,3.85,0.00091458,0,0,0,0
119,0.021872,3.8798,0.00071175,0,0,0,0
120,0.022173,3.9064,0.0007797,0,0,0,0
121,0.022269,3.9344,0.0007797,0,0,0,0
122,0.022635,3.9613,0.0010165,0,0,0,0
123,0.022631,3.9908,0.00081367,0,0,0,0
124,0.022525,4.0166,0.00067877,0,0,0,0
125,0.022418,4.0449,0.00084664,0,0,0,0
126,0.022416,4.0737,0.00074572,0,0,0,0
127,0.022783,4.1013,0.00071175,0,0,0,0
128,0.022879,4.1295,0.00071175,0,0,0,0
129,0.023484,4.1566,0.00088161,0,0,0,0
130,0.023917,4.1838,0.00091458,0,0,0,0
131,0.024351,4.2103,0.0010844,0,0,0,0
132,0.02499,4.238,0.0010834,0,0,0,0
133,0.02529,4.2639,0.001388,0,0,0,0
134,0.025049,4.2934,0.0012872,0,0,0,0
135,0.025317,4.3182,0.00094955,0,0,0,0
136,0.025312,4.3478,0.00094855,0,0,0,0
137,0.024735,4.3749,0.00074672,0,0,0,0
138,0.025338,4.4019,0.0010504,0,0,0,0
139,0.025164,4.4316,0.00094955,0,0,0,0
140,0.026004,4.4573,0.0010854,0,0,0,0
141,0.026642,4.4854,0.00098352,0,0,0,0
142,0.027043,4.5154,0.0012882,0,0,0,0
143,0.027447,4.5421,0.0014569,0,0,0,0
144,0.027676,4.5696,0.0010175,0,0,0,0
145,0.027944,4.5981,0.0015248,0,0,0,0
146,0.028345,4.625,0.00139,0,0,0,0
147,0.027938,4.6489,0.0012542,0,0,0,0
148,0.028269,4.6742,0.0011543,0,0,0,0
149,0.028331,4.7025,0.0011204,0,0,0,0
150,0.028495,4.7303,0.0012562,0,0,0,0
151,0.0292,4.7561,0.0012203,0,0,0,0
152,0.029028,4.7822,0.0014569,0,0,0,0
153,0.029834,4.8105,0.0011533,0,0,0,0
154,0.030371,4.8403,0.0016946,0,0,0,0
155,0.030469,4.8661,0.0013231,0,0,0,0
156,0.03077,4.8937,0.0018643,0,0,0,0
157,0.031208,4.9206,0.0013561,0,0,0,0
158,0.031207,4.9484,0.00139,0,0,0,0
159,0.030194,4.9744,0.0012552,0,0,0,0
160,0.031165,5.0011,0.0010524,0,0,0,0
161,0.031907,5.0269,0.0013221,0,0,0,0
162,0.032206,5.0523,0.0013561,0,0,0,0
163,0.032205,5.0834,0.0012213,0,0,0,0
164,0.032911,5.1076,0.0015248,0,0,0,0
165,0.032941,5.1356,0.0014579,0,0,0,0
166,0.03331,5.1611,0.0020309,0,0,0,0
167,0.033477,5.1902,0.0017604,0,0,0,0
168,0.034013,5.2182,0.0016596,0,0,0,0
169,0.033742,5.2452,0.0015248,0,0,0,0
170,0.034278,5.2734,0.001424,0,0,0,0
171,0.034883,5.2989,0.001424,0,0,0,0
172,0.035016,5.326,0.0012552,0,0,0,0
173,0.035519,5.3529,0.0013571,0,0,0,0
174,0.035683,5.3794,0.001424,0,0,0,0
175,0.035713,5.4065,0.0015588,0,0,0,0
176,0.036421,5.4339,0.0016606,0,0,0,0
177,0.036415,5.4607,0.0016267,0,0,0,0
178,0.03665,5.4866,0.0019311,0,0,0,0
179,0.036983,5.5138,0.0015278,0,0,0,0
180,0.03742,5.5417,0.0017634,0,0,0,0
181,0.037518,5.5704,0.0017964,0,0,0,0
182,0.037887,5.5993,0.0017984,0,0,0,0
183,0.038524,5.6226,0.0014949,0,0,0,0
184,0.038489,5.6476,0.0016287,0,0,0,0
185,0.039971,5.6787,0.0016287,0,0,0,0
186,0.039869,5.7013,0.0020339,0,0,0,0
187,0.040239,5.7284,0.0018313,0,0,0,0
188,0.040167,5.7535,0.0020679,0,0,0,0
189,0.040402,5.781,0.0018653,0,0,0,0
190,0.041106,5.81,0.0024719,0,0,0,0
191,0.04006,5.834,0.0021676,0,0,0,0
192,0.041206,5.8588,0.0021347,0,0,0,0
193,0.041912,5.8848,0.0023023,0,0,0,0
194,0.042418,5.91,0.0020659,0,0,0,0
195,0.043363,5.9376,0.002,0,0,0,0
196,0.043834,5.9647,0.0018982,0,0,0,0
197,0.045318,5.9871,0.0015937,0,0,0,0
198,0.044672,6.0148,0.0017964,0,0,0,0
199,0.044569,6.0416,0.0020319,0,0,0,0
200,0.044599,6.0662,0.0021337,0,0,0,0
201,0.045611,6.0913,0.0022355,0,0,0,0
202,0.0447,6.1173,0.0024051,0,0,0,0
203,0.045268,6.1414,0.0024041,0,0,0,0
204,0.046481,6.1701,0.002439,0,0,0,0
205,0.046683,6.1954,0.0021357,0,0,0,0
206,0.047456,6.2203,0.0021706,0,0,0,0
207,0.048436,6.2469,0.0021048,0,0,0,0
208,0.049005,6.272,0.0019341,0,0,0,0
209,0.049885,6.2974,0.002002,0,0,0,0
210,0.049916,6.3231,0.0024071,0,0,0,0
211,0.049914,6.3476,0.0023393,0,0,0,0
212,0.049609,6.3761,0.0027432,0,0,0,0
213,0.050316,6.4021,0.0026754,0,0,0,0
214,0.050146,6.4253,0.0025747,0,0,0,0
215,0.050414,6.4491,0.0029786,0,0,0,0
216,0.050988,6.4751,0.0025747,0,0,0,0
217,0.051762,6.5002,0.0022355,0,0,0,0
218,0.05257,6.5251,0.0024729,0,0,0,0
219,0.053515,6.5493,0.0023722,0,0,0,0
220,0.054121,6.5768,0.0022026,0,0,0,0
221,0.054592,6.6014,0.0022365,0,0,0,0
222,0.054894,6.624,0.0025737,0,0,0,0
223,0.055533,6.6512,0.0027093,0,0,0,0
224,0.055496,6.675,0.0026415,0,0,0,0
225,0.055732,6.7005,0.0031141,0,0,0,0
226,0.056134,6.7265,0.0029457,0,0,0,0
227,0.056673,6.7508,0.003149,0,0,0,0
228,0.056907,6.7726,0.002813,0,0,0,0
229,0.057851,6.7986,0.0033873,0,0,0,0
230,0.058863,6.8237,0.0029157,0,0,0,0
231,0.059639,6.8489,0.0029147,0,0,0,0
232,0.060348,6.8696,0.0029806,0,0,0,0
233,0.060956,6.8959,0.0030822,0,0,0,0
234,0.061394,6.9204,0.0029118,0,0,0,0
235,0.061866,6.9458,0.0030812,0,0,0,0
236,0.061934,6.97,0.0035188,0,0,0,0
237,0.062574,6.9931,0.0037549,0,0,0,0
238,0.062575,7.0178,0.0036862,0,0,0,0
239,0.063756,7.0414,0.0036533,0,0,0,0
240,0.06426,7.0657,0.0039223,0,0,0,0
241,0.064901,7.0897,0.0034849,0,0,0,0
242,0.065643,7.1126,0.0032836,0,0,0,0
243,0.06581,7.1385,0.0030822,0,0,0,0
244,0.066685,7.1623,0.00315,0,0,0,0
245,0.066784,7.1838,0.00315,0,0,0,0
246,0.067796,7.2074,0.0034869,0,0,0,0
247,0.067997,7.2318,0.0033195,0,0,0,0
248,0.068908,7.2576,0.0037241,0,0,0,0
249,0.069617,7.2816,0.0038924,0,0,0,0
250,0.070493,7.3039,0.0041275,0,0,0,0
251,0.071506,7.3263,0.0044979,0,0,0,0
252,0.072652,7.3495,0.0043963,0,0,0,0
253,0.072618,7.3757,0.0040926,0,0,0,0
254,0.073226,7.3995,0.0039582,0,0,0,0
255,0.073495,7.4212,0.0038566,0,0,0,0
256,0.07478,7.4437,0.0035856,0,0,0,0
257,0.074474,7.467,0.0037211,0,0,0,0
258,0.075082,7.4912,0.0039233,0,0,0,0
259,0.075828,7.5131,0.00399,0,0,0,0
260,0.077211,7.5338,0.0041922,0,0,0,0
261,0.078255,7.5583,0.004462,0,0,0,0
262,0.078794,7.5806,0.0046651,0,0,0,0
263,0.080248,7.6022,0.0046323,0,0,0,0
264,0.080854,7.6247,0.0047666,0,0,0,0
265,0.081224,7.6479,0.0045656,0,0,0,0
266,0.081762,7.6723,0.0044999,0,0,0,0
267,0.082842,7.6953,0.0043326,0,0,0,0
268,0.082706,7.7147,0.0043983,0,0,0,0
269,0.08311,7.7384,0.0042619,0,0,0,0
270,0.083346,7.761,0.0042609,0,0,0,0
271,0.084629,7.7839,0.0044979,0,0,0,0
272,0.085439,7.8075,0.0046989,0,0,0,0
273,0.086519,7.8276,0.0048651,0,0,0,0
274,0.087564,7.8583,0.0051348,0,0,0,0
275,0.088646,7.8751,0.0053029,0,0,0,0
276,0.089692,7.8963,0.0057057,0,0,0,0
277,0.090367,7.916,0.0054372,0,0,0,0
278,0.091177,7.937,0.0053706,0,0,0,0
279,0.091819,7.9579,0.0052024,0,0,0,0
280,0.092191,7.9826,0.0050353,0,0,0,0
281,0.093033,8.0066,0.0051368,0,0,0,0
282,0.093877,8.0262,0.004902,0,0,0,0
283,0.094957,8.0502,0.0053397,0,0,0,0
284,0.096003,8.0727,0.0051716,0,0,0,0
285,0.097219,8.093,0.0055764,0,0,0,0
286,0.098164,8.1172,0.0057445,0,0,0,0
287,0.099076,8.1373,0.0061143,0,0,0,0
288,0.099581,8.1611,0.006315,0,0,0,0
289,0.1009,8.186,0.0067174,0,0,0,0
290,0.1014,8.2067,0.0064134,0,0,0,0
291,0.10299,8.2248,0.0064144,0,0,0,0
292,0.1034,8.2487,0.006314,0,0,0,0
293,0.10485,8.2697,0.0060427,0,0,0,0
294,0.10613,8.2912,0.0059433,0,0,0,0
295,0.10715,8.3119,0.0058767,0,0,0,0
296,0.10799,8.3313,0.0061093,0,0,0,0
297,0.109,8.3504,0.006311,0,0,0,0
298,0.10978,8.3743,0.0062783,0,0,0,0
299,0.11059,8.3985,0.0069488,0,0,0,0
300,0.11126,8.4202,0.0069826,0,0,0,0
301,0.11224,8.4399,0.0071504,0,0,0,0
302,0.11336,8.4613,0.0071176,0,0,0,0
303,0.11451,8.4828,0.0073201,0,0,0,0
304,0.11579,8.5033,0.006918,0,0,0,0
305,0.11785,8.5227,0.0066846,0,0,0,0
306,0.119,8.5442,0.0068515,0,0,0,0
307,0.12038,8.5643,0.0067502,0,0,0,0
308,0.12183,8.5873,0.0066836,0,0,0,0
309,0.12254,8.6076,0.0071534,0,0,0,0
310,0.12386,8.6294,0.0072874,0,0,0,0
311,0.12423,8.6523,0.0077906,0,0,0,0
312,0.12565,8.6717,0.0080922,0,0,0,0
313,0.12666,8.6947,0.0084611,0,0,0,0
314,0.12801,8.711,0.0082251,0,0,0,0
315,0.12973,8.733,0.0081239,0,0,0,0
316,0.13085,8.7541,0.0078551,0,0,0,0
317,0.1324,8.775,0.0077558,0,0,0,0
318,0.13352,8.7947,0.0077221,0,0,0,0
319,0.13487,8.8148,0.0076546,0,0,0,0
320,0.135,8.8362,0.0075871,0,0,0,0
321,0.13703,8.8568,0.0080575,0,0,0,0
322,0.13933,8.877,0.0084918,0,0,0,0
323,0.14115,8.8981,0.0085593,0,0,0,0
324,0.1421,8.9178,0.0090271,0,0,0,0
325,0.14369,8.9377,0.0093977,0,0,0,0
326,0.14514,8.9593,0.0094987,0,0,0,0
327,0.14683,8.9776,0.0095661,0,0,0,0
328,0.1475,8.9997,0.0088636,0,0,0,0
329,0.14865,9.0197,0.0088309,0,0,0,0
330,0.14956,9.0366,0.008931,0,0,0,0
331,0.15068,9.0561,0.0086951,0,0,0,0
332,0.1527,9.0785,0.0089984,0,0,0,0
333,0.15432,9.0977,0.0093006,0,0,0,0
334,0.15595,9.1163,0.009368,0,0,0,0
335,0.15787,9.1358,0.0099701,0,0,0,0
336,0.15932,9.1564,0.010339,0,0,0,0
337,0.16081,9.1762,0.010507,0,0,0,0
338,0.16274,9.1962,0.010808,0,0,0,0
339,0.16375,9.2166,0.010642,0,0,0,0
340,0.16571,9.2379,0.01061,0,0,0,0
341,0.16706,9.2554,0.010038,0,0,0,0
342,0.16892,9.2747,0.010073,0,0,0,0
343,0.17071,9.2946,0.010006,0,0,0,0
344,0.17213,9.3147,0.010172,0,0,0,0
345,0.17371,9.3331,0.010572,0,0,0,0
346,0.17537,9.3524,0.010906,0,0,0,0
347,0.17702,9.3732,0.011473,0,0,0,0
348,0.1779,9.3916,0.011909,0,0,0,0
349,0.17979,9.4117,0.011874,0,0,0,0
350,0.18135,9.4306,0.011942,0,0,0,0
351,0.18341,9.4507,0.011909,0,0,0,0
352,0.185,9.4691,0.01191,0,0,0,0
353,0.1874,9.487,0.01154,0,0,0,0
354,0.18939,9.504,0.011473,0,0,0,0
355,0.19135,9.5241,0.011773,0,0,0,0
356,0.19361,9.5441,0.012108,0,0,0,0
357,0.1949,9.5645,0.012274,0,0,0,0
358,0.19682,9.583,0.012842,0,0,0,0
359,0.19841,9.6007,0.013042,0,0,0,0
360,0.20057,9.6199,0.013442,0,0,0,0
361,0.20233,9.6414,0.013842,0,0,0,0
362,0.20463,9.6592,0.013711,0,0,0,0
363,0.20591,9.6778,0.013443,0,0,0,0
364,0.2076,9.697,0.013145,0,0,0,0
365,0.20966,9.7143,0.013243,0,0,0,0
366,0.21118,9.7346,0.013244,0,0,0,0
367,0.21297,9.7531,0.013644,0,0,0,0
368,0.21446,9.7712,0.013677,0,0,0,0
369,0.21838,9.7892,0.014212,0,0,0,0
370,0.22081,9.8088,0.014776,0,0,0,0
371,0.2226,9.8305,0.01541,0,0,0,0
372,0.22487,9.8472,0.015078,0,0,0,0
373,0.22679,9.865,0.015146,0,0,0,0
374,0.22889,9.883,0.015279,0,0,0,0
375,0.23038,9.9021,0.015246,0,0,0,0
376,0.2321,9.9221,0.015047,0,0,0,0
377,0.23507,9.9393,0.015015,0,0,0,0
378,0.2375,9.9567,0.015414,0,0,0,0
379,0.23963,9.9736,0.015745,0,0,0,0
380,0.24166,9.9926,0.016011,0,0,0,0
381,0.24365,10.01,0.016377,0,0,0,0
382,0.24545,10.028,0.016942,0,0,0,0
383,0.24737,10.05,0.017275,0,0,0,0
384,0.24994,10.064,0.017242,0,0,0,0
385,0.25224,10.081,0.017075,0,0,0,0
386,0.25528,10.101,0.017241,0,0,0,0
387,0.25802,10.118,0.017009,0,0,0,0
388,0.25998,10.137,0.017141,0,0,0,0
389,0.26244,10.156,0.017239,0,0,0,0
390,0.26454,10.171,0.017673,0,0,0,0
391,0.2667,10.188,0.018104,0,0,0,0
392,0.26886,10.204,0.018534,0,0,0,0
393,0.2716,10.224,0.018933,0,0,0,0
394,0.27417,10.241,0.019096,0,0,0,0
395,0.27636,10.256,0.01943,0,0,0,0
396,0.27876,10.272,0.019199,0,0,0,0
397,0.28079,10.293,0.019397,0,0,0,0
398,0.28295,10.311,0.019163,0,0,0,0
399,0.28485,10.327,0.01913,0,0,0,0
400,0.28738,10.343,0.019595,0,0,0,0
401,0.29073,10.362,0.019858,0,0,0,0
402,0.29357,10.378,0.020157,0,0,0,0
403,0.29593,10.396,0.020884,0,0,0,0
404,0.29897,10.414,0.020951,0,0,0,0
405,0.30151,10.428,0.021116,0,0,0,0
406,0.30401,10.444,0.021151,0,0,0,0
407,0.30573,10.463,0.021615,0,0,0,0
408,0.30904,10.479,0.02125,0,0,0,0
409,0.31239,10.494,0.021151,0,0,0,0
410,0.31557,10.51,0.021514,0,0,0,0
411,0.3177,10.526,0.02191,0,0,0,0
412,0.31999,10.545,0.022043,0,0,0,0
413,0.32226,10.56,0.022373,0,0,0,0
414,0.32456,10.576,0.023,0,0,0,0
415,0.32719,10.593,0.023398,0,0,0,0
416,0.3301,10.61,0.02343,0,0,0,0
417,0.33328,10.626,0.023727,0,0,0,0
418,0.33588,10.641,0.023629,0,0,0,0
419,0.33862,10.659,0.023628,0,0,0,0
420,0.34125,10.675,0.023959,0,0,0,0
421,0.34409,10.689,0.02409,0,0,0,0
422,0.3469,10.707,0.024193,0,0,0,0
423,0.34957,10.719,0.024817,0,0,0,0
424,0.35308,10.734,0.025115,0,0,0,0
425,0.35612,10.749,0.025509,0,0,0,0
426,0.35927,10.766,0.025708,0,0,0,0
427,0.3619,10.783,0.026036,0,0,0,0
428,0.36474,10.798,0.026235,0,0,0,0
429,0.36745,10.813,0.026301,0,0,0,0
430,0.37059,10.829,0.026433,0,0,0,0
431,0.37397,10.846,0.026563,0,0,0,0
432,0.37715,10.861,0.027059,0,0,0,0
433,0.37988,10.873,0.02742,0,0,0,0
434,0.38282,10.889,0.02755,0,0,0,0
435,0.38519,10.907,0.028178,0,0,0,0
436,0.38796,10.921,0.028242,0,0,0,0
437,0.39097,10.939,0.02867,0,0,0,0
438,0.39408,10.953,0.028637,0,0,0,0
439,0.39797,10.967,0.028932,0,0,0,0
440,0.40141,10.981,0.028964,0,0,0,0
441,0.40439,10.996,0.029359,0,0,0,0
442,0.40706,11.011,0.029195,0,0,0,0
443,0.41057,11.027,0.029948,0,0,0,0
444,0.41378,11.041,0.030376,0,0,0,0
445,0.41713,11.058,0.030539,0,0,0,0
446,0.42088,11.075,0.030769,0,0,0,0
447,0.42416,11.086,0.031063,0,0,0,0
448,0.4272,11.101,0.031259,0,0,0,0
449,0.43058,11.114,0.031652,0,0,0,0
450,0.43393,11.129,0.031555,0,0,0,0
451,0.43677,11.147,0.031784,0,0,0,0
452,0.44028,11.16,0.032208,0,0,0,0
453,0.44376,11.172,0.032601,0,0,0,0
454,0.44734,11.189,0.032993,0,0,0,0
455,0.45038,11.2,0.033156,0,0,0,0
456,0.45343,11.214,0.033484,0,0,0,0
457,0.45701,11.227,0.034006,0,0,0,0
458,0.46063,11.241,0.03417,0,0,0,0
459,0.46424,11.258,0.034202,0,0,0,0
460,0.46749,11.271,0.034757,0,0,0,0
461,0.47083,11.285,0.034626,0,0,0,0
462,0.47435,11.297,0.035116,0,0,0,0
463,0.47746,11.312,0.035474,0,0,0,0
464,0.48087,11.324,0.035995,0,0,0,0
465,0.48442,11.336,0.036354,0,0,0,0
466,0.48865,11.351,0.036549,0,0,0,0
467,0.49216,11.363,0.03694,0,0,0,0
468,0.49561,11.377,0.037234,0,0,0,0
469,0.49926,11.391,0.037755,0,0,0,0
470,0.50237,11.404,0.037786,0,0,0,0
471,0.50585,11.417,0.037981,0,0,0,0
472,0.50967,11.43,0.038307,0,0,0,0
473,0.51379,11.443,0.038535,0,0,0,0
474,0.51744,11.456,0.038989,0,0,0,0
475,0.52096,11.467,0.039412,0,0,0,0
476,0.52424,11.478,0.039868,0,0,0,0
477,0.52768,11.493,0.040192,0,0,0,0
478,0.53113,11.507,0.040613,0,0,0,0
479,0.53509,11.518,0.040711,0,0,0,0
480,0.53918,11.53,0.04136,0,0,0,0
481,0.54296,11.544,0.041295,0,0,0,0
482,0.54627,11.555,0.041781,0,0,0,0
483,0.55009,11.567,0.042138,0,0,0,0
484,0.55391,11.581,0.042298,0,0,0,0
485,0.5577,11.592,0.043173,0,0,0,0
486,0.56193,11.604,0.043107,0,0,0,0
487,0.56612,11.617,0.043756,0,0,0,0
488,0.57014,11.629,0.044112,0,0,0,0
489,0.57362,11.64,0.044047,0,0,0,0
490,0.57768,11.652,0.044597,0,0,0,0
491,0.58129,11.664,0.044693,0,0,0,0
492,0.58582,11.678,0.045242,0,0,0,0
493,0.59008,11.689,0.045436,0,0,0,0
494,0.59431,11.699,0.04592,0,0,0,0
495,0.59786,11.71,0.046468,0,0,0,0
496,0.60188,11.72,0.046855,0,0,0,0
497,0.60563,11.731,0.047146,0,0,0,0
498,0.60996,11.744,0.047565,0,0,0,0
499,0.61445,11.757,0.047984,0,0,0,0
500,0.61841,11.764,0.048178,0,0,0,0
501,0.62206,11.775,0.04821,0,0,0,0
502,0.62567,11.79,0.048918,0,0,0,0
503,0.62953,11.799,0.049272,0,0,0,0
504,0.63358,11.811,0.049916,0,0,0,0
505,0.63801,11.822,0.050333,0,0,0,0
506,0.64244,11.834,0.05059,0,0,0,0
507,0.64636,11.842,0.050912,0,0,0,0
508,0.65025,11.855,0.050879,0,0,0,0
509,0.65414,11.865,0.051457,0,0,0,0
510,0.65799,11.875,0.052002,0,0,0,0
511,0.66269,11.887,0.052355,0,0,0,0
512,0.66735,11.897,0.053092,0,0,0,0
513,0.67165,11.905,0.053542,0,0,0,0
514,0.6759,11.915,0.05367,0,0,0,0
515,0.67949,11.927,0.054021,0,0,0,0
516,0.68381,11.934,0.05463,0,0,0,0
517,0.68854,11.945,0.054789,0,0,0,0
518,0.69331,11.955,0.055269,0,0,0,0
519,0.69794,11.964,0.055685,0,0,0,0
520,0.70203,11.978,0.056196,0,0,0,0
521,0.70615,11.988,0.056516,0,0,0,0
522,0.71031,11.997,0.057059,0,0,0,0
523,0.71532,12.007,0.057442,0,0,0,0
524,0.71985,12.017,0.05792,0,0,0,0
525,0.72444,12.024,0.058304,0,0,0,0
526,0.72867,12.034,0.058941,0,0,0,0
527,0.73266,12.045,0.059259,0,0,0,0
528,0.73688,12.056,0.059706,0,0,0,0
529,0.74141,12.062,0.059992,0,0,0,0
530,0.74608,12.072,0.060501,0,0,0,0
531,0.75094,12.081,0.061105,0,0,0,0
532,0.75507,12.091,0.061391,0,0,0,0
533,0.75916,12.1,0.061995,0,0,0,0
534,0.76342,12.11,0.062218,0,0,0,0
535,0.76795,12.117,0.06282,0,0,0,0
536,0.77302,12.126,0.063106,0,0,0,0
537,0.77765,12.135,0.063612,0,0,0,0
538,0.78194,12.144,0.063962,0,0,0,0
539,0.78603,12.154,0.064564,0,0,0,0
540,0.79059,12.166,0.065167,0,0,0,0
541,0.79529,12.171,0.065452,0,0,0,0
542,0.80026,12.179,0.065894,0,0,0,0
543,0.80516,12.187,0.066243,0,0,0,0
544,0.80996,12.195,0.06697,0,0,0,0
545,0.81378,12.202,0.067507,0,0,0,0
546,0.81888,12.209,0.067506,0,0,0,0
547,0.82297,12.221,0.068391,0,0,0,0
548,0.82886,12.227,0.068864,0,0,0,0
549,0.83322,12.234,0.069307,0,0,0,0
550,0.83866,12.242,0.069748,0,0,0,0
551,0.84302,12.251,0.070567,0,0,0,0
552,0.84768,12.26,0.070787,0,0,0,0
553,0.85225,12.268,0.07145,0,0,0,0
554,0.85826,12.275,0.071794,0,0,0,0
555,0.86327,12.285,0.072109,0,0,0,0
556,0.86786,12.292,0.072832,0,0,0,0
557,0.87205,12.299,0.073397,0,0,0,0
558,0.87672,12.308,0.074182,0,0,0,0
559,0.88209,12.317,0.074872,0,0,0,0
560,0.88743,12.322,0.075593,0,0,0,0
561,0.89237,12.327,0.076064,0,0,0,0
562,0.8969,12.336,0.076408,0,0,0,0
563,0.9016,12.344,0.07669,0,0,0,0
564,0.90626,12.348,0.077535,0,0,0,0
565,0.91153,12.355,0.077941,0,0,0,0
566,0.91711,12.365,0.078628,0,0,0,0
567,0.92205,12.37,0.079284,0,0,0,0
568,0.92692,12.377,0.080003,0,0,0,0
569,0.93144,12.384,0.08072,0,0,0,0
570,0.93638,12.389,0.081156,0,0,0,0
571,0.94155,12.395,0.081873,0,0,0,0
572,0.94676,12.4,0.082432,0,0,0,0
573,0.95213,12.407,0.08318,0,0,0,0
574,0.95656,12.413,0.083676,0,0,0,0
575,0.96149,12.42,0.084391,0,0,0,0
576,0.9667,12.428,0.085074,0,0,0,0
577,0.97234,12.433,0.08582,0,0,0,0
578,0.97792,12.438,0.086624,0,0,0,0
579,0.98276,12.444,0.087152,0,0,0,0
580,0.98732,12.447,0.088019,0,0,0,0
581,0.99276,12.453,0.08842,0,0,0,0
582,0.99753,12.46,0.089256,0,0,0,0
583,1.0028,12.465,0.090059,0,0,0,0
584,1.009,12.469,0.090429,0,0,0,0
585,1.0143,12.477,0.091448,0,0,0,0
586,1.0191,12.484,0.092126,0,0,0,0
587,1.0239,12.488,0.093142,0,0,0,0
588,1.0299,12.494,0.093974,0,0,0,0
589,1.0355,12.501,0.094527,0,0,0,0
590,1.0411,12.504,0.095388,0,0,0,0
591,1.0459,12.51,0.096064,0,0,0,0
592,1.051,12.515,0.09677,0,0,0,0
593,1.0566,12.521,0.097475,0,0,0,0
594,1.0626,12.53,0.09818,0,0,0,0
595,1.0679,12.537,0.099007,0,0,0,0
596,1.0732,12.535,0.099588,0,0,0,0
597,1.0782,12.542,0.10066,0,0,0,0
598,1.0836,12.547,0.10118,0,0,0,0
599,1.0895,12.549,0.10209,0,0,0,0
600,1.0956,12.553,0.10328,0,0,0,0
601,1.101,12.556,0.10395,0,0,0,0
602,1.1062,12.562,0.10481,0,0,0,0
603,1.1116,12.566,0.10526,0,0,0,0
604,1.1171,12.569,0.10608,0,0,0,0
605,1.1226,12.572,0.1069,0,0,0,0
606,1.1286,12.577,0.10794,0,0,0,0
607,1.1341,12.582,0.10851,0,0,0,0
608,1.1393,12.586,0.10957,0,0,0,0
609,1.145,12.59,0.11033,0,0,0,0
610,1.1503,12.593,0.1113,0,0,0,0
611,1.1562,12.597,0.11193,0,0,0,0
612,1.1621,12.6,0.11305,0,0,0,0
613,1.1672,12.604,0.11375,0,0,0,0
614,1.1723,12.608,0.11468,0,0,0,0
615,1.1781,12.61,0.1154,0,0,0,0
616,1.1842,12.616,0.11625,0,0,0,0
617,1.1904,12.618,0.11712,0,0,0,0
618,1.1957,12.622,0.1179,0,0,0,0
619,1.2011,12.625,0.11901,0,0,0,0
620,1.2067,12.627,0.11976,0,0,0,0
621,1.2125,12.629,0.12093,0,0,0,0
622,1.2186,12.633,0.12198,0,0,0,0
623,1.2248,12.635,0.12267,0,0,0,0
624,1.2301,12.638,0.12371,0,0,0,0
625,1.2358,12.639,0.12482,0,0,0,0
626,1.2414,12.644,0.1258,0,0,0,0
627,1.2479,12.646,0.1269,0,0,0,0
628,1.2538,12.645,0.12785,0,0,0,0
629,1.2594,12.65,0.12883,0,0,0,0
630,1.2651,12.652,0.12973,0,0,0,0
631,1.2708,12.655,0.13059,0,0,0,0
632,1.277,12.657,0.13156,0,0,0,0
633,1.2829,12.659,0.13269,0,0,0,0
634,1.2893,12.66,0.1339,0,0,0,0
635,1.2948,12.663,0.13511,0,0,0,0
636,1.3003,12.663,0.13606,0,0,0,0
637,1.3064,12.664,0.13712,0,0,0,0
638,1.3129,12.666,0.13824,0,0,0,0
639,1.3192,12.669,0.1393,0,0,0,0
640,1.325,12.67,0.14042,0,0,0,0
641,1.3304,12.672,0.14153,0,0,0,0
642,1.3367,12.672,0.143,0,0,0,0
643,1.3431,12.675,0.14388,0,0,0,0
644,1.3495,12.675,0.14502,0,0,0,0
645,1.3557,12.674,0.14645,0,0,0,0
646,1.3615,12.673,0.14712,0,0,0,0
647,1.3675,12.674,0.14861,0,0,0,0
648,1.3735,12.679,0.14977,0,0,0,0
649,1.3802,12.679,0.1512,0,0,0,0
650,1.386,12.68,0.15221,0,0,0,0
651,1.3921,12.679,0.15361,0,0,0,0
652,1.3982,12.678,0.15482,0,0,0,0
653,1.4045,12.678,0.15598,0,0,0,0
654,1.4108,12.679,0.15737,0,0,0,0
655,1.4169,12.678,0.15881,0,0,0,0
656,1.4232,12.676,0.16028,0,0,0,0
657,1.4293,12.677,0.16178,0,0,0,0
658,1.4355,12.678,0.16313,0,0,0,0
659,1.4421,12.676,0.1647,0,0,0,0
660,1.4487,12.677,0.16597,0,0,0,0
661,1.4547,12.675,0.16734,0,0,0,0
662,1.461,12.675,0.1686,0,0,0,0
663,1.4669,12.674,0.17011,0,0,0,0
664,1.4734,12.672,0.1715,0,0,0,0
665,1.4804,12.669,0.17321,0,0,0,0
666,1.4869,12.672,0.17463,0,0,0,0
667,1.493,12.672,0.17622,0,0,0,0
668,1.4997,12.669,0.17778,0,0,0,0
669,1.5059,12.667,0.17902,0,0,0,0
670,1.5127,12.663,0.18097,0,0,0,0
671,1.519,12.661,0.18224,0,0,0,0
672,1.5257,12.659,0.1841,0,0,0,0
673,1.5319,12.661,0.1855,0,0,0,0
674,1.5384,12.66,0.18718,0,0,0,0
675,1.5452,12.653,0.18887,0,0,0,0
676,1.5517,12.651,0.19074,0,0,0,0
677,1.5579,12.651,0.19255,0,0,0,0
678,1.5643,12.648,0.19392,0,0,0,0
679,1.5711,12.643,0.19562,0,0,0,0
680,1.5782,12.642,0.19692,0,0,0,0
681,1.5848,12.641,0.19864,0,0,0,0
682,1.5908,12.636,0.20069,0,0,0,0
683,1.5978,12.635,0.20262,0,0,0,0
684,1.6045,12.631,0.20428,0,0,0,0
685,1.6113,12.626,0.20615,0,0,0,0
686,1.6181,12.622,0.20821,0,0,0,0
687,1.6248,12.618,0.21027,0,0,0,0
688,1.6312,12.614,0.21216,0,0,0,0
689,1.6384,12.61,0.2144,0,0,0,0
690,1.6452,12.604,0.21652,0,0,0,0
691,1.6518,12.599,0.21851,0,0,0,0
692,1.6585,12.593,0.2206,0,0,0,0
693,1.6651,12.588,0.22287,0,0,0,0
694,1.6719,12.585,0.22528,0,0,0,0
695,1.6797,12.577,0.22741,0,0,0,0
696,1.6863,12.571,0.22953,0,0,0,0
697,1.693,12.568,0.23165,0,0,0,0
698,1.6995,12.561,0.23388,0,0,0,0
699,1.7068,12.557,0.23599,0,0,0,0
700,1.7141,12.55,0.2382,0,0,0,0
701,1.7209,12.542,0.24049,0,0,0,0
702,1.7275,12.538,0.24293,0,0,0,0
703,1.7344,12.53,0.24519,0,0,0,0
704,1.7415,12.522,0.24738,0,0,0,0
705,1.749,12.516,0.24965,0,0,0,0
706,1.7559,12.509,0.2522,0,0,0,0
707,1.7626,12.5,0.25467,0,0,0,0
708,1.7696,12.49,0.25724,0,0,0,0
709,1.777,12.483,0.2599,0,0,0,0
710,1.7848,12.474,0.26225,0,0,0,0
711,1.7914,12.466,0.26508,0,0,0,0
712,1.7982,12.454,0.26746,0,0,0,0
713,1.8052,12.449,0.27005,0,0,0,0
714,1.8121,12.439,0.27278,0,0,0,0
715,1.8199,12.431,0.27551,0,0,0,0
716,1.8269,12.42,0.27833,0,0,0,0
717,1.8339,12.412,0.28112,0,0,0,0
718,1.841,12.401,0.28377,0,0,0,0
719,1.8485,12.389,0.28673,0,0,0,0
720,1.856,12.382,0.28929,0,0,0,0
721,1.8631,12.37,0.2924,0,0,0,0
722,1.87,12.358,0.29533,0,0,0,0
723,1.8776,12.345,0.29779,0,0,0,0
724,1.885,12.334,0.30085,0,0,0,0
725,1.8927,12.323,0.30433,0,0,0,0
726,1.8994,12.307,0.30717,0,0,0,0
727,1.9066,12.298,0.3104,0,0,0,0
728,1.9141,12.284,0.31347,0,0,0,0
729,1.9217,12.268,0.31637,0,0,0,0
730,1.9296,12.255,0.31952,0,0,0,0
731,1.9365,12.238,0.3223,0,0,0,0
732,1.9441,12.224,0.32551,0,0,0,0
733,1.9519,12.209,0.329,0,0,0,0
734,1.9597,12.192,0.3325,0,0,0,0
735,1.9675,12.176,0.3365,0,0,0,0
736,1.9747,12.157,0.34,0,0,0,0
737,1.9823,12.141,0.34327,0,0,0,0
738,1.9909,12.122,0.34644,0,0,0,0
739,1.9986,12.103,0.34982,0,0,0,0
740,2.0058,12.08,0.35356,0,0,0,0
741,2.0136,12.062,0.35726,0,0,0,0
742,2.0221,12.038,0.36103,0,0,0,0
743,2.0298,12.016,0.3648,0,0,0,0
744,2.0382,11.994,0.36908,0,0,0,0
745,2.046,11.968,0.37335,0,0,0,0
746,2.0538,11.944,0.37712,0,0,0,0
747,2.0626,11.917,0.38098,0,0,0,0
748,2.0712,11.886,0.38584,0,0,0,0
748.5,2.0758,11.868,0.38826,0,0,0,0