File: polyN_optimization/DP780_results/DATA/NT20_90_2.csv
Time[s],Displacement[mm],Force[kN],AxStrain_1,AxStrain_2,Thickness[mm],OuterWidth[mm],InnerWidth[mm]
0,0,-0.031457,0,0,1.4938,19.97,10.044
1,0.000194,0.035448,-0.00024903,0,0,0,0
2,0.000374,0.10111,-3e-05,0,0,0,0
3,0.000728,0.15442,-5.7002e-05,0,0,0,0
4,0.000837,0.19964,-4.0001e-05,0,0,0,0
5,0.000894,0.24614,2.9e-05,0,0,0,0
6,0.001337,0.2875,-4.5001e-05,0,0,0,0
7,0.001436,0.32861,-0.00010501,0,0,0,0
8,0.001417,0.37191,-4.2001e-05,0,0,0,0
9,0.001946,0.41487,-5.7002e-05,0,0,0,0
10,0.001757,0.45667,-4.9001e-05,0,0,0,0
11,0.002337,0.49815,-0.00035006,0,0,0,0
12,0.002552,0.53802,-3e-05,0,0,0,0
13,0.002535,0.57821,-0.00017602,0,0,0,0
14,0.001609,0.61786,-3e-06,0,0,0,0
15,0.002089,0.6575,6.7998e-05,0,0,0,0
16,0.002623,0.69169,5.6998e-05,0,0,0,0
17,0.002413,0.73039,6.3998e-05,0,0,0,0
18,0.00262,0.77143,-9.1004e-05,0,0,0,0
19,0.002721,0.8096,-0.00013201,0,0,0,0
20,0.002447,0.84707,-8.1003e-05,0,0,0,0
21,0.003553,0.88583,-0.00015201,0,0,0,0
22,0.004012,0.92546,7.3997e-05,0,0,0,0
23,0.004404,0.96182,-0.00032105,0,0,0,0
24,0.004208,0.99852,-0.00012501,0,0,0,0
25,0.004046,1.0329,0.00030095,0,0,0,0
26,0.004087,1.0692,3.6999e-05,0,0,0,0
27,0.004293,1.1034,-0.00014501,0,0,0,0
28,0.004381,1.1407,-7.1003e-05,0,0,0,0
29,0.00457,1.1726,-0.00012801,0,0,0,0
30,0.004702,1.2108,-0.00027004,0,0,0,0
31,0.005459,1.2439,-0.00030105,0,0,0,0
32,0.005699,1.2782,-0.00012501,0,0,0,0
33,0.005808,1.3113,-0.00019602,0,0,0,0
34,0.006064,1.3459,-5.4001e-05,0,0,0,0
35,0.006044,1.3782,-0.00012201,0,0,0,0
36,0.006639,1.4118,-0.00036507,0,0,0,0
37,0.006085,1.4451,-7.8003e-05,0,0,0,0
38,0.006166,1.4782,-0.00027404,0,0,0,0
39,0.00617,1.5093,-0.00035506,0,0,0,0
40,0.006521,1.5441,1.4e-05,0,0,0,0
41,0.006842,1.5784,-0.00012201,0,0,0,0
42,0.007127,1.6102,-0.00016201,0,0,0,0
43,0.007691,1.6423,1.4e-05,0,0,0,0
44,0.008506,1.6704,-9.8005e-05,0,0,0,0
45,0.00855,1.703,0.00018298,0,0,0,0
46,0.008296,1.735,-1.7e-05,0,0,0,0
47,0.008175,1.7645,0.00010799,0,0,0,0
48,0.008036,1.7972,0.00013499,0,0,0,0
49,0.008121,1.8313,-0.00016901,0,0,0,0
50,0.007965,1.8593,-3.7001e-05,0,0,0,0
51,0.008584,1.8905,-0.00017201,0,0,0,0
52,0.008595,1.9224,2e-05,0,0,0,0
53,0.009318,1.9513,7.0997e-05,0,0,0,0
54,0.010021,1.983,-6.1002e-05,0,0,0,0
55,0.010305,2.0133,0.00016899,0,0,0,0
56,0.010518,2.0431,7e-06,0,0,0,0
57,0.010654,2.0738,9.7995e-05,0,0,0,0
58,0.010049,2.104,-9.1004e-05,0,0,0,0
59,0.009995,2.1326,0.00021298,0,0,0,0
60,0.009894,2.1625,0.00010499,0,0,0,0
61,0.009911,2.1915,0.00014899,0,0,0,0
62,0.010165,2.2217,7.7997e-05,0,0,0,0
63,0.01051,2.2521,8.4996e-05,0,0,0,0
64,0.011521,2.2812,0.00025697,0,0,0,0
65,0.011781,2.3116,0.00018598,0,0,0,0
66,0.012305,2.3428,4.3999e-05,0,0,0,0
67,0.012498,2.3721,0.00016899,0,0,0,0
68,0.012482,2.4003,0.00013199,0,0,0,0
69,0.012174,2.4292,0.00037193,0,0,0,0
70,0.012063,2.4595,0.00048688,0,0,0,0
71,0.011918,2.4879,0.00037193,0,0,0,0
72,0.012023,2.519,0.00030395,0,0,0,0
73,0.012013,2.5492,0.00032095,0,0,0,0
74,0.012636,2.5757,0.00036893,0,0,0,0
75,0.013197,2.6054,0.00049088,0,0,0,0
76,0.013995,2.634,0.00041291,0,0,0,0
77,0.014384,2.6613,0.00066978,0,0,0,0
78,0.014692,2.6881,0.00023997,0,0,0,0
79,0.014906,2.7147,0.0006318,0,0,0,0
80,0.014791,2.7446,0.00048388,0,0,0,0
81,0.014332,2.7742,0.00052386,0,0,0,0
82,0.014068,2.8014,0.00040892,0,0,0,0
83,0.014177,2.8284,0.00037193,0,0,0,0
84,0.014059,2.8584,0.00035894,0,0,0,0
85,0.014425,2.8844,0.00042991,0,0,0,0
86,0.015135,2.9128,0.00048388,0,0,0,0
87,0.015561,2.9415,0.00046989,0,0,0,0
88,0.016444,2.9675,0.0006328,0,0,0,0
89,0.017205,2.9964,0.00088261,0,0,0,0
90,0.016827,3.0234,0.00056484,0,0,0,0
91,0.016973,3.0505,0.00071674,0,0,0,0
92,0.016541,3.0792,0.00024397,0,0,0,0
93,0.01669,3.1078,0.00040592,0,0,0,0
94,0.016745,3.1359,0.00050387,0,0,0,0
95,0.01656,3.1637,0.00037893,0,0,0,0
96,0.016368,3.1906,0.00051387,0,0,0,0
97,0.016743,3.2181,0.00024997,0,0,0,0
98,0.017061,3.2444,0.00041691,0,0,0,0
99,0.01717,3.272,0.00035194,0,0,0,0
100,0.018235,3.3022,0.00029096,0,0,0,0
101,0.018847,3.3271,0.00042291,0,0,0,0
102,0.019308,3.3564,0.00058483,0,0,0,0
103,0.018876,3.3918,0.00042991,0,0,0,0
104,0.01946,3.4113,0.00059482,0,0,0,0
105,0.01842,3.4389,0.00051787,0,0,0,0
106,0.019117,3.4632,0.00031095,0,0,0,0
107,0.018743,3.4922,0.00046989,0,0,0,0
108,0.01922,3.5211,0.00024397,0,0,0,0
109,0.019507,3.5478,0.00045989,0,0,0,0
110,0.020447,3.5732,0.00025697,0,0,0,0
111,0.020478,3.5988,0.00057483,0,0,0,0
112,0.021057,3.628,0.0004399,0,0,0,0
113,0.021734,3.6569,0.00041591,0,0,0,0
114,0.021843,3.6803,0.00047389,0,0,0,0
115,0.021877,3.7053,0.00070975,0,0,0,0
116,0.02202,3.7324,0.00054085,0,0,0,0
117,0.022365,3.7578,0.00047389,0,0,0,0
118,0.022247,3.7865,0.00054085,0,0,0,0
119,0.021392,3.8139,0.00054085,0,0,0,0
120,0.021731,3.8419,0.00047389,0,0,0,0
121,0.021834,3.8691,0.0004399,0,0,0,0
122,0.02224,3.8946,0.00064279,0,0,0,0
123,0.022747,3.9187,0.00037293,0,0,0,0
124,0.023525,3.9449,0.00047389,0,0,0,0
125,0.023864,3.9713,0.00064279,0,0,0,0
126,0.024237,3.9994,0.00091258,0,0,0,0
127,0.024238,4.0265,0.00084564,0,0,0,0
128,0.024441,4.0497,0.0007777,0,0,0,0
129,0.024273,4.0754,0.00060881,0,0,0,0
130,0.023936,4.1044,0.00071075,0,0,0,0
131,0.023835,4.1279,0.0007787,0,0,0,0
132,0.024378,4.1546,0.00081167,0,0,0,0
133,0.024209,4.1777,0.0007777,0,0,0,0
134,0.024582,4.2018,0.00071175,0,0,0,0
135,0.025462,4.2286,0.00074572,0,0,0,0
136,0.025394,4.2552,0.00067777,0,0,0,0
137,0.026139,4.2803,0.0012512,0,0,0,0
138,0.026478,4.3072,0.00098152,0,0,0,0
139,0.026716,4.3338,0.00088061,0,0,0,0
140,0.026717,4.3596,0.0012512,0,0,0,0
141,0.026717,4.3854,0.0010834,0,0,0,0
142,0.026989,4.4097,0.00084664,0,0,0,0
143,0.027193,4.4362,0.00088061,0,0,0,0
144,0.027025,4.4608,0.00091458,0,0,0,0
145,0.026958,4.486,0.00081267,0,0,0,0
146,0.027534,4.5117,0.0010494,0,0,0,0
147,0.027703,4.5388,0.00091358,0,0,0,0
148,0.028414,4.5625,0.00088061,0,0,0,0
149,0.029024,4.5894,0.00098252,0,0,0,0
150,0.029193,4.6131,0.00091458,0,0,0,0
151,0.029531,4.6404,0.0007797,0,0,0,0
152,0.029566,4.6649,0.0014879,0,0,0,0
153,0.029634,4.6882,0.0010155,0,0,0,0
154,0.029906,4.7136,0.0011833,0,0,0,0
155,0.030177,4.7414,0.0011503,0,0,0,0
156,0.030143,4.7656,0.00098052,0,0,0,0
157,0.030279,4.79,0.0010824,0,0,0,0
158,0.030584,4.8145,0.00081167,0,0,0,0
159,0.030923,4.8382,0.00091358,0,0,0,0
160,0.031193,4.8657,0.00098152,0,0,0,0
161,0.031972,4.8916,0.0010824,0,0,0,0
162,0.031634,4.9155,0.0011833,0,0,0,0
163,0.032007,4.9427,0.0010155,0,0,0,0
164,0.032278,4.9682,0.0011843,0,0,0,0
165,0.03265,4.991,0.0011503,0,0,0,0
166,0.032921,5.015,0.0013531,0,0,0,0
167,0.033598,5.0359,0.0016227,0,0,0,0
168,0.033734,5.0617,0.0013191,0,0,0,0
169,0.034141,5.0874,0.0013191,0,0,0,0
170,0.033736,5.1102,0.0011164,0,0,0,0
171,0.034446,5.1355,0.0011503,0,0,0,0
172,0.034954,5.1613,0.0010834,0,0,0,0
173,0.034988,5.1839,0.00094855,0,0,0,0
174,0.035429,5.2093,0.0011513,0,0,0,0
175,0.035666,5.2343,0.0010504,0,0,0,0
176,0.035938,5.2599,0.0012532,0,0,0,0
177,0.035938,5.2842,0.0012862,0,0,0,0
178,0.036277,5.309,0.001387,0,0,0,0
179,0.036751,5.3343,0.0012532,0,0,0,0
180,0.037259,5.3571,0.001387,0,0,0,0
181,0.037395,5.3815,0.0014889,0,0,0,0
182,0.037801,5.4054,0.0012522,0,0,0,0
183,0.03841,5.4297,0.0011174,0,0,0,0
184,0.038681,5.4535,0.0011843,0,0,0,0
185,0.039155,5.4787,0.0010504,0,0,0,0
186,0.039528,5.5031,0.0012522,0,0,0,0
187,0.039461,5.526,0.0010494,0,0,0,0
188,0.039359,5.5491,0.0011843,0,0,0,0
189,0.039462,5.5725,0.0012183,0,0,0,0
190,0.039699,5.5971,0.0011174,0,0,0,0
191,0.039835,5.6182,0.0013191,0,0,0,0
192,0.04014,5.6413,0.0012512,0,0,0,0
193,0.040445,5.6637,0.0015208,0,0,0,0
194,0.04102,5.687,0.0014879,0,0,0,0
195,0.041494,5.7078,0.0011164,0,0,0,0
196,0.042103,5.732,0.0011843,0,0,0,0
197,0.042645,5.7555,0.0015558,0,0,0,0
198,0.043186,5.7771,0.0012522,0,0,0,0
199,0.043762,5.7996,0.0013531,0,0,0,0
200,0.043728,5.8231,0.001421,0,0,0,0
201,0.044271,5.8427,0.0012862,0,0,0,0
202,0.043968,5.8656,0.001422,0,0,0,0
203,0.044002,5.8903,0.0016247,0,0,0,0
204,0.044138,5.9111,0.0016576,0,0,0,0
205,0.044104,5.9337,0.0017934,0,0,0,0
206,0.044679,5.9547,0.0016576,0,0,0,0
207,0.044985,5.9775,0.0019281,0,0,0,0
208,0.045797,6.0007,0.0020289,0,0,0,0
209,0.046405,6.0192,0.0020299,0,0,0,0
210,0.047115,6.0427,0.0017934,0,0,0,0
211,0.047892,6.0657,0.0019281,0,0,0,0
212,0.048671,6.0866,0.0018273,0,0,0,0
213,0.048975,6.1079,0.0017924,0,0,0,0
214,0.04911,6.1295,0.0015907,0,0,0,0
215,0.049381,6.1494,0.0016906,0,0,0,0
216,0.049414,6.1721,0.0017924,0,0,0,0
217,0.049347,6.1922,0.0019611,0,0,0,0
218,0.049483,6.2138,0.0019271,0,0,0,0
219,0.049584,6.2338,0.002467,0,0,0,0
220,0.049652,6.2566,0.0022974,0,0,0,0
221,0.050125,6.2762,0.0022974,0,0,0,0
222,0.050769,6.2983,0.0023662,0,0,0,0
223,0.051006,6.3189,0.0020279,0,0,0,0
224,0.052089,6.3408,0.0021297,0,0,0,0
225,0.052766,6.3607,0.0020968,0,0,0,0
226,0.053341,6.3809,0.0021297,0,0,0,0
227,0.053815,6.4001,0.0022315,0,0,0,0
228,0.053986,6.4239,0.0020639,0,0,0,0
229,0.054595,6.4405,0.0020639,0,0,0,0
230,0.054596,6.463,0.0021317,0,0,0,0
231,0.054936,6.4833,0.0021986,0,0,0,0
232,0.054497,6.5013,0.0024011,0,0,0,0
233,0.055107,6.5228,0.0023672,0,0,0,0
234,0.05531,6.5455,0.0026026,0,0,0,0
235,0.05548,6.5659,0.0025687,0,0,0,0
236,0.05602,6.5834,0.0026355,0,0,0,0
237,0.056899,6.6069,0.0025348,0,0,0,0
238,0.057474,6.6266,0.0026016,0,0,0,0
239,0.057879,6.6476,0.0025009,0,0,0,0
240,0.058894,6.6679,0.0026355,0,0,0,0
241,0.0595,6.688,0.0022305,0,0,0,0
242,0.060042,6.7109,0.002467,0,0,0,0
243,0.060481,6.7342,0.0022984,0,0,0,0
244,0.061158,6.7528,0.0021637,0,0,0,0
245,0.061631,6.7724,0.0025019,0,0,0,0
246,0.06136,6.7944,0.002468,0,0,0,0
247,0.061733,6.8143,0.0027033,0,0,0,0
248,0.062613,6.835,0.0029068,0,0,0,0
249,0.062986,6.855,0.0029746,0,0,0,0
250,0.063393,6.8762,0.0030414,0,0,0,0
251,0.063427,6.8995,0.0029068,0,0,0,0
252,0.06424,6.9177,0.002839,0,0,0,0
253,0.06485,6.9351,0.0030414,0,0,0,0
254,0.065527,6.9572,0.0028051,0,0,0,0
255,0.065867,6.9765,0.0027033,0,0,0,0
256,0.066306,6.9962,0.0027722,0,0,0,0
257,0.066713,7.0187,0.0028051,0,0,0,0
258,0.066917,7.0399,0.0026355,0,0,0,0
259,0.06783,7.0613,0.0029387,0,0,0,0
260,0.068338,7.0799,0.0029058,0,0,0,0
261,0.068676,7.1007,0.0031421,0,0,0,0
262,0.069116,7.1214,0.0032427,0,0,0,0
263,0.070095,7.1403,0.0034779,0,0,0,0
264,0.070738,7.163,0.0036473,0,0,0,0
265,0.071145,7.1854,0.0036473,0,0,0,0
266,0.071854,7.2072,0.0036473,0,0,0,0
267,0.072563,7.2292,0.0038157,0,0,0,0
268,0.073002,7.2465,0.0036483,0,0,0,0
269,0.073407,7.2676,0.0035467,0,0,0,0
270,0.073645,7.2896,0.0035138,0,0,0,0
271,0.074321,7.3091,0.0032776,0,0,0,0
272,0.074728,7.3308,0.0033115,0,0,0,0
273,0.075439,7.3534,0.0035477,0,0,0,0
274,0.075981,7.3741,0.0036822,0,0,0,0
275,0.076455,7.3948,0.0037828,0,0,0,0
276,0.077438,7.4156,0.0039522,0,0,0,0
277,0.07825,7.4338,0.0040856,0,0,0,0
278,0.07957,7.4558,0.0041852,0,0,0,0
279,0.080179,7.4771,0.0044889,0,0,0,0
280,0.08089,7.4991,0.0041852,0,0,0,0
281,0.081263,7.5198,0.0042529,0,0,0,0
282,0.08194,7.5389,0.0041852,0,0,0,0
283,0.082312,7.5611,0.0040508,0,0,0,0
284,0.082381,7.5815,0.003748,0,0,0,0
285,0.082684,7.6041,0.0040518,0,0,0,0
286,0.083258,7.6283,0.0040518,0,0,0,0
287,0.08407,7.6477,0.0041205,0,0,0,0
288,0.084916,7.6688,0.0041882,0,0,0,0
289,0.086267,7.6894,0.0042221,0,0,0,0
290,0.087518,7.711,0.0046591,0,0,0,0
291,0.088702,7.7314,0.0047935,0,0,0,0
292,0.089479,7.7572,0.0050622,0,0,0,0
293,0.090258,7.778,0.0051627,0,0,0,0
294,0.090867,7.7968,0.0051288,0,0,0,0
295,0.091577,7.8187,0.0049597,0,0,0,0
296,0.092018,7.8392,0.0047587,0,0,0,0
297,0.092864,7.8612,0.0048243,0,0,0,0
298,0.093608,7.8839,0.0047238,0,0,0,0
299,0.094287,7.9051,0.0047238,0,0,0,0
300,0.094693,7.9258,0.004691,0,0,0,0
301,0.095843,7.9497,0.0046571,0,0,0,0
302,0.096892,7.9691,0.0047587,0,0,0,0
303,0.097772,7.9916,0.0049278,0,0,0,0
304,0.098584,8.0127,0.0053646,0,0,0,0
305,0.099531,8.0321,0.0057345,0,0,0,0
306,0.10024,8.0567,0.0057345,0,0,0,0
307,0.10119,8.0783,0.0059701,0,0,0,0
308,0.10176,8.0956,0.0059363,0,0,0,0
309,0.10308,8.1169,0.0059691,0,0,0,0
310,0.10413,8.1392,0.0056003,0,0,0,0
311,0.10525,8.1623,0.0056351,0,0,0,0
312,0.10589,8.1831,0.005466,0,0,0,0
313,0.10741,8.2029,0.0056679,0,0,0,0
314,0.10866,8.2277,0.0057007,0,0,0,0
315,0.10951,8.2489,0.0060029,0,0,0,0
316,0.11002,8.2671,0.0062385,0,0,0,0
317,0.11083,8.2906,0.0063727,0,0,0,0
318,0.11161,8.3107,0.0068078,0,0,0,0
319,0.11299,8.3304,0.0071097,0,0,0,0
320,0.11363,8.3538,0.0071097,0,0,0,0
321,0.11492,8.3763,0.0070094,0,0,0,0
322,0.11624,8.398,0.0069428,0,0,0,0
323,0.11827,8.4188,0.0068088,0,0,0,0
324,0.11955,8.4402,0.0066747,0,0,0,0
325,0.12097,8.4608,0.0067422,0,0,0,0
326,0.12216,8.4835,0.006775,0,0,0,0
327,0.12327,8.505,0.0068098,0,0,0,0
328,0.12425,8.5264,0.0069776,0,0,0,0
329,0.12554,8.549,0.0073469,0,0,0,0
330,0.12608,8.5669,0.007984,0,0,0,0
331,0.12709,8.5892,0.0078174,0,0,0,0
332,0.12851,8.6088,0.0082529,0,0,0,0
333,0.12973,8.6319,0.0084869,0,0,0,0
334,0.13146,8.6549,0.0080168,0,0,0,0
335,0.13267,8.6757,0.0078501,0,0,0,0
336,0.13399,8.695,0.0079503,0,0,0,0
337,0.13538,8.7139,0.0076149,0,0,0,0
338,0.13646,8.7431,0.0077816,0,0,0,0
339,0.13798,8.7596,0.0079493,0,0,0,0
340,0.13937,8.7767,0.0082846,0,0,0,0
341,0.14086,8.7978,0.0084175,0,0,0,0
342,0.14255,8.8165,0.0086535,0,0,0,0
343,0.14424,8.8403,0.0091213,0,0,0,0
344,0.1461,8.8623,0.0095235,0,0,0,0
345,0.14732,8.8803,0.0094225,0,0,0,0
346,0.14921,8.9018,0.0093898,0,0,0,0
347,0.14982,8.9256,0.0090549,0,0,0,0
348,0.15121,8.9433,0.0091213,0,0,0,0
349,0.15225,8.9643,0.0089221,0,0,0,0
350,0.1535,8.9837,0.0088874,0,0,0,0
351,0.1554,9.0053,0.0092243,0,0,0,0
352,0.15712,9.0281,0.0093244,0,0,0,0
353,0.15918,9.0446,0.0098256,0,0,0,0
354,0.16104,9.0632,0.010229,0,0,0,0
355,0.16256,9.0874,0.010563,0,0,0,0
356,0.16439,9.1084,0.010964,0,0,0,0
357,0.16584,9.1292,0.010997,0,0,0,0
358,0.1675,9.1498,0.01093,0,0,0,0
359,0.16895,9.1676,0.010797,0,0,0,0
360,0.17081,9.1874,0.010563,0,0,0,0
361,0.17264,9.2094,0.010362,0,0,0,0
362,0.17467,9.2306,0.010396,0,0,0,0
363,0.17626,9.2508,0.010663,0,0,0,0
364,0.17805,9.2713,0.010964,0,0,0,0
365,0.17947,9.2912,0.011665,0,0,0,0
366,0.18058,9.313,0.012066,0,0,0,0
367,0.18217,9.3311,0.012466,0,0,0,0
368,0.1841,9.3527,0.012432,0,0,0,0
369,0.18603,9.373,0.012598,0,0,0,0
370,0.18806,9.3919,0.012331,0,0,0,0
371,0.19073,9.4127,0.012197,0,0,0,0
372,0.19269,9.431,0.012099,0,0,0,0
373,0.19475,9.4514,0.012198,0,0,0,0
374,0.19685,9.4728,0.012099,0,0,0,0
375,0.19861,9.4934,0.012632,0,0,0,0
376,0.2005,9.5144,0.013166,0,0,0,0
377,0.20229,9.5307,0.013533,0,0,0,0
378,0.20442,9.5489,0.013866,0,0,0,0
379,0.20682,9.572,0.014565,0,0,0,0
380,0.20902,9.5899,0.0146,0,0,0,0
381,0.21108,9.6084,0.014333,0,0,0,0
382,0.21267,9.6286,0.014333,0,0,0,0
383,0.21453,9.6484,0.014034,0,0,0,0
384,0.21622,9.6672,0.014267,0,0,0,0
385,0.21835,9.6837,0.014234,0,0,0,0
386,0.22025,9.7044,0.0146,0,0,0,0
387,0.22251,9.7253,0.0149,0,0,0,0
388,0.22531,9.7438,0.015432,0,0,0,0
389,0.22816,9.7628,0.015966,0,0,0,0
390,0.23025,9.7791,0.016232,0,0,0,0
391,0.23214,9.7983,0.016498,0,0,0,0
392,0.23414,9.8189,0.016266,0,0,0,0
393,0.23647,9.836,0.016399,0,0,0,0
394,0.2383,9.8542,0.016199,0,0,0,0
395,0.2411,9.8744,0.016132,0,0,0,0
396,0.24374,9.8918,0.016132,0,0,0,0
397,0.24607,9.9104,0.016565,0,0,0,0
398,0.24837,9.932,0.016896,0,0,0,0
399,0.25026,9.9498,0.017129,0,0,0,0
400,0.25205,9.9677,0.017628,0,0,0,0
401,0.25411,9.9866,0.018324,0,0,0,0
402,0.25628,10.003,0.018391,0,0,0,0
403,0.25908,10.022,0.018522,0,0,0,0
404,0.26165,10.041,0.018356,0,0,0,0
405,0.26422,10.057,0.01829,0,0,0,0
406,0.26696,10.077,0.018622,0,0,0,0
407,0.26936,10.094,0.01839,0,0,0,0
408,0.27128,10.112,0.01819,0,0,0,0
409,0.27396,10.129,0.01882,0,0,0,0
410,0.27619,10.147,0.01902,0,0,0,0
411,0.27909,10.164,0.019715,0,0,0,0
412,0.28163,10.182,0.020147,0,0,0,0
413,0.28491,10.199,0.020544,0,0,0,0
414,0.28748,10.216,0.02061,0,0,0,0
415,0.28944,10.235,0.020642,0,0,0,0
416,0.29184,10.251,0.020544,0,0,0,0
417,0.29458,10.268,0.02061,0,0,0,0
418,0.29684,10.286,0.020677,0,0,0,0
419,0.29924,10.304,0.020742,0,0,0,0
420,0.30201,10.322,0.021173,0,0,0,0
421,0.30489,10.337,0.021636,0,0,0,0
422,0.30746,10.356,0.022032,0,0,0,0
423,0.30965,10.374,0.022595,0,0,0,0
424,0.31222,10.39,0.022958,0,0,0,0
425,0.31537,10.409,0.023058,0,0,0,0
426,0.31844,10.424,0.023124,0,0,0,0
427,0.32118,10.441,0.02319,0,0,0,0
428,0.32446,10.457,0.023387,0,0,0,0
429,0.32737,10.473,0.023487,0,0,0,0
430,0.3295,10.489,0.023917,0,0,0,0
431,0.33274,10.504,0.023884,0,0,0,0
432,0.33531,10.521,0.024511,0,0,0,0
433,0.33819,10.536,0.024873,0,0,0,0
434,0.34143,10.554,0.025204,0,0,0,0
435,0.34437,10.572,0.025697,0,0,0,0
436,0.34752,10.589,0.02583,0,0,0,0
437,0.35008,10.605,0.026027,0,0,0,0
438,0.35255,10.62,0.026093,0,0,0,0
439,0.35573,10.638,0.026192,0,0,0,0
440,0.35739,10.652,0.026323,0,0,0,0
441,0.36111,10.671,0.026882,0,0,0,0
442,0.36465,10.688,0.026817,0,0,0,0
443,0.36817,10.702,0.027344,0,0,0,0
444,0.37064,10.717,0.027706,0,0,0,0
445,0.37375,10.732,0.028166,0,0,0,0
446,0.37638,10.747,0.028527,0,0,0,0
447,0.37966,10.762,0.028625,0,0,0,0
448,0.38331,10.778,0.028724,0,0,0,0
449,0.38625,10.794,0.029019,0,0,0,0
450,0.39004,10.807,0.02915,0,0,0,0
451,0.39305,10.823,0.029512,0,0,0,0
452,0.39626,10.838,0.029741,0,0,0,0
453,0.39923,10.855,0.02997,0,0,0,0
454,0.40221,10.871,0.030429,0,0,0,0
455,0.40501,10.885,0.030528,0,0,0,0
456,0.40887,10.902,0.031118,0,0,0,0
457,0.41252,10.916,0.031576,0,0,0,0
458,0.41573,10.928,0.031544,0,0,0,0
459,0.41833,10.944,0.031773,0,0,0,0
460,0.42131,10.957,0.0321,0,0,0,0
461,0.42411,10.969,0.032394,0,0,0,0
462,0.42701,10.984,0.032656,0,0,0,0
463,0.4307,10.999,0.032851,0,0,0,0
464,0.43445,11.015,0.033276,0,0,0,0
465,0.43814,11.032,0.033571,0,0,0,0
466,0.44121,11.047,0.034061,0,0,0,0
467,0.44402,11.058,0.034061,0,0,0,0
468,0.44729,11.073,0.034812,0,0,0,0
469,0.45098,11.088,0.034682,0,0,0,0
470,0.45436,11.102,0.035041,0,0,0,0
471,0.45852,11.116,0.035203,0,0,0,0
472,0.46237,11.129,0.035529,0,0,0,0
473,0.46568,11.144,0.035954,0,0,0,0
474,0.46896,11.159,0.036117,0,0,0,0
475,0.47203,11.174,0.036573,0,0,0,0
476,0.47579,11.185,0.037029,0,0,0,0
477,0.47964,11.199,0.037159,0,0,0,0
478,0.48359,11.211,0.037485,0,0,0,0
479,0.48741,11.226,0.037746,0,0,0,0
480,0.49025,11.24,0.037973,0,0,0,0
481,0.4935,11.256,0.038233,0,0,0,0
482,0.49674,11.266,0.038428,0,0,0,0
483,0.50056,11.279,0.03898,0,0,0,0
484,0.50394,11.294,0.039306,0,0,0,0
485,0.50803,11.304,0.039469,0,0,0,0
486,0.51185,11.318,0.039891,0,0,0,0
487,0.51526,11.33,0.040573,0,0,0,0
488,0.51864,11.345,0.040865,0,0,0,0
489,0.52216,11.357,0.041189,0,0,0,0
490,0.52642,11.368,0.041156,0,0,0,0
491,0.53014,11.384,0.041384,0,0,0,0
492,0.53426,11.394,0.041837,0,0,0,0
493,0.53811,11.406,0.041903,0,0,0,0
494,0.54156,11.419,0.04242,0,0,0,0
495,0.54497,11.432,0.043004,0,0,0,0
496,0.54886,11.444,0.043328,0,0,0,0
497,0.55312,11.458,0.04391,0,0,0,0
498,0.55741,11.468,0.044234,0,0,0,0
499,0.5613,11.48,0.044331,0,0,0,0
500,0.56509,11.491,0.044783,0,0,0,0
501,0.56826,11.503,0.044589,0,0,0,0
502,0.57157,11.519,0.045042,0,0,0,0
503,0.57617,11.528,0.045203,0,0,0,0
504,0.57962,11.539,0.045333,0,0,0,0
505,0.58425,11.552,0.045979,0,0,0,0
506,0.58773,11.564,0.046559,0,0,0,0
507,0.59148,11.574,0.047139,0,0,0,0
508,0.5951,11.586,0.047591,0,0,0,0
509,0.59885,11.598,0.048139,0,0,0,0
510,0.60301,11.609,0.048589,0,0,0,0
511,0.6071,11.622,0.048525,0,0,0,0
512,0.61112,11.63,0.048686,0,0,0,0
513,0.61531,11.644,0.048976,0,0,0,0
514,0.61879,11.657,0.049362,0,0,0,0
515,0.62271,11.666,0.049941,0,0,0,0
516,0.62714,11.678,0.050488,0,0,0,0
517,0.63157,11.691,0.050809,0,0,0,0
518,0.63623,11.699,0.051676,0,0,0,0
519,0.64009,11.71,0.052157,0,0,0,0
520,0.64408,11.719,0.052317,0,0,0,0
521,0.6481,11.731,0.053023,0,0,0,0
522,0.65239,11.743,0.053023,0,0,0,0
523,0.65678,11.753,0.053376,0,0,0,0
524,0.66169,11.763,0.053792,0,0,0,0
525,0.66591,11.773,0.054112,0,0,0,0
526,0.6698,11.783,0.054689,0,0,0,0
527,0.67351,11.792,0.055392,0,0,0,0
528,0.67788,11.811,0.055712,0,0,0,0
529,0.68251,11.815,0.056351,0,0,0,0
530,0.68703,11.826,0.056735,0,0,0,0
531,0.69156,11.834,0.057149,0,0,0,0
532,0.69559,11.844,0.057501,0,0,0,0
533,0.6992,11.855,0.058043,0,0,0,0
534,0.70339,11.863,0.058266,0,0,0,0
535,0.70792,11.872,0.058872,0,0,0,0
536,0.71249,11.886,0.059095,0,0,0,0
537,0.71654,11.893,0.059509,0,0,0,0
538,0.72097,11.901,0.060146,0,0,0,0
539,0.72479,11.911,0.060719,0,0,0,0
540,0.72884,11.921,0.061418,0,0,0,0
541,0.73314,11.929,0.061926,0,0,0,0
542,0.73801,11.94,0.062371,0,0,0,0
543,0.74267,11.95,0.062688,0,0,0,0
544,0.74706,11.958,0.06326,0,0,0,0
545,0.75102,11.967,0.063419,0,0,0,0
546,0.75548,11.975,0.063672,0,0,0,0
547,0.7598,11.986,0.064433,0,0,0,0
548,0.76423,11.994,0.064813,0,0,0,0
549,0.76951,12.001,0.065036,0,0,0,0
550,0.77417,12.011,0.06589,0,0,0,0
551,0.77846,12.023,0.066554,0,0,0,0
552,0.78276,12.032,0.067029,0,0,0,0
553,0.78749,12.041,0.067534,0,0,0,0
554,0.79246,12.049,0.06804,0,0,0,0
555,0.79753,12.057,0.068418,0,0,0,0
556,0.8026,12.064,0.068671,0,0,0,0
557,0.80695,12.073,0.069333,0,0,0,0
558,0.81128,12.082,0.069838,0,0,0,0
559,0.81608,12.089,0.07031,0,0,0,0
560,0.82115,12.098,0.070846,0,0,0,0
561,0.82622,12.105,0.071507,0,0,0,0
562,0.83105,12.114,0.071916,0,0,0,0
563,0.83565,12.125,0.07267,0,0,0,0
564,0.83964,12.132,0.073173,0,0,0,0
565,0.84457,12.138,0.073833,0,0,0,0
566,0.84951,12.149,0.074115,0,0,0,0
567,0.85488,12.152,0.074586,0,0,0,0
568,0.85968,12.16,0.075056,0,0,0,0
569,0.86411,12.17,0.075433,0,0,0,0
570,0.86874,12.174,0.07631,0,0,0,0
571,0.87313,12.183,0.076748,0,0,0,0
572,0.87786,12.189,0.077405,0,0,0,0
573,0.88324,12.196,0.078125,0,0,0,0
574,0.88844,12.206,0.078875,0,0,0,0
575,0.8927,12.21,0.079063,0,0,0,0
576,0.89716,12.219,0.079936,0,0,0,0
577,0.90206,12.226,0.080124,0,0,0,0
578,0.907,12.234,0.080872,0,0,0,0
579,0.9122,12.24,0.081308,0,0,0,0
580,0.91724,12.247,0.082025,0,0,0,0
581,0.92194,12.254,0.082741,0,0,0,0
582,0.92677,12.261,0.083394,0,0,0,0
583,0.9312,12.269,0.084234,0,0,0,0
584,0.93711,12.274,0.084544,0,0,0,0
585,0.94215,12.28,0.085289,0,0,0,0
586,0.94712,12.289,0.0856,0,0,0,0
587,0.95171,12.295,0.085879,0,0,0,0
588,0.95661,12.302,0.086902,0,0,0,0
589,0.96175,12.306,0.087522,0,0,0,0
590,0.96719,12.313,0.088388,0,0,0,0
591,0.97246,12.32,0.089131,0,0,0,0
592,0.97764,12.324,0.089656,0,0,0,0
593,0.9823,12.332,0.090274,0,0,0,0
594,0.98733,12.336,0.091108,0,0,0,0
595,0.99244,12.341,0.091971,0,0,0,0
596,0.99815,12.348,0.092525,0,0,0,0
597,1.0039,12.356,0.092957,0,0,0,0
598,1.0087,12.361,0.093634,0,0,0,0
599,1.0136,12.365,0.094372,0,0,0,0
600,1.0186,12.373,0.094896,0,0,0,0
601,1.0243,12.377,0.095726,0,0,0,0
602,1.0305,12.383,0.096677,0,0,0,0
603,1.0358,12.386,0.097168,0,0,0,0
604,1.0409,12.391,0.097873,0,0,0,0
605,1.0458,12.396,0.098608,0,0,0,0
606,1.0507,12.401,0.099374,0,0,0,0
607,1.0567,12.406,0.10002,0,0,0,0
608,1.0625,12.411,0.10078,0,0,0,0
609,1.0675,12.418,0.10142,0,0,0,0
610,1.0728,12.422,0.10246,0,0,0,0
611,1.0778,12.425,0.10319,0,0,0,0
612,1.0829,12.43,0.10395,0,0,0,0
613,1.0889,12.434,0.10508,0,0,0,0
614,1.0945,12.438,0.10569,0,0,0,0
615,1.0995,12.443,0.10669,0,0,0,0
616,1.1048,12.445,0.10724,0,0,0,0
617,1.11,12.449,0.10806,0,0,0,0
618,1.1155,12.452,0.10882,0,0,0,0
619,1.1212,12.457,0.10979,0,0,0,0
620,1.1269,12.461,0.11042,0,0,0,0
621,1.1321,12.467,0.11154,0,0,0,0
622,1.1369,12.473,0.11248,0,0,0,0
623,1.1425,12.476,0.11326,0,0,0,0
624,1.1485,12.481,0.11408,0,0,0,0
625,1.1546,12.484,0.11477,0,0,0,0
626,1.1602,12.487,0.11567,0,0,0,0
627,1.165,12.491,0.11661,0,0,0,0
628,1.1703,12.495,0.11739,0,0,0,0
629,1.1762,12.498,0.11814,0,0,0,0
630,1.1821,12.503,0.11928,0,0,0,0
631,1.1883,12.508,0.12012,0,0,0,0
632,1.1933,12.509,0.12096,0,0,0,0
633,1.1985,12.514,0.12219,0,0,0,0
634,1.2043,12.514,0.12296,0,0,0,0
635,1.2105,12.518,0.12386,0,0,0,0
636,1.2167,12.522,0.12464,0,0,0,0
637,1.2222,12.524,0.12583,0,0,0,0
638,1.2276,12.527,0.12675,0,0,0,0
639,1.2328,12.53,0.12774,0,0,0,0
640,1.2388,12.532,0.12875,0,0,0,0
641,1.2446,12.537,0.12985,0,0,0,0
642,1.251,12.539,0.13079,0,0,0,0
643,1.2565,12.541,0.13171,0,0,0,0
644,1.262,12.544,0.1326,0,0,0,0
645,1.2673,12.546,0.13355,0,0,0,0
646,1.2738,12.546,0.13444,0,0,0,0
647,1.2801,12.549,0.13541,0,0,0,0
648,1.286,12.55,0.13653,0,0,0,0
649,1.2914,12.552,0.13795,0,0,0,0
650,1.2971,12.554,0.13904,0,0,0,0
651,1.3031,12.557,0.14021,0,0,0,0
652,1.3097,12.558,0.14115,0,0,0,0
653,1.3155,12.561,0.14247,0,0,0,0
654,1.321,12.561,0.1435,0,0,0,0
655,1.3268,12.562,0.14508,0,0,0,0
656,1.3326,12.564,0.14587,0,0,0,0
657,1.3392,12.564,0.14686,0,0,0,0
658,1.345,12.567,0.14838,0,0,0,0
659,1.3511,12.567,0.14963,0,0,0,0
660,1.3575,12.57,0.15068,0,0,0,0
661,1.3628,12.571,0.15192,0,0,0,0
662,1.369,12.573,0.15297,0,0,0,0
663,1.3755,12.573,0.15442,0,0,0,0
664,1.3822,12.573,0.15584,0,0,0,0
665,1.3875,12.573,0.15728,0,0,0,0
666,1.3938,12.572,0.15852,0,0,0,0
667,1.3999,12.572,0.15968,0,0,0,0
668,1.4064,12.573,0.16086,0,0,0,0
669,1.4129,12.572,0.16229,0,0,0,0
670,1.4186,12.574,0.16379,0,0,0,0
671,1.4245,12.572,0.16517,0,0,0,0
672,1.43,12.572,0.16654,0,0,0,0
673,1.4373,12.572,0.16777,0,0,0,0
674,1.4434,12.572,0.1692,0,0,0,0
675,1.45,12.57,0.17048,0,0,0,0
676,1.4558,12.569,0.17191,0,0,0,0
677,1.4619,12.57,0.17316,0,0,0,0
678,1.4687,12.571,0.17466,0,0,0,0
679,1.4749,12.57,0.17605,0,0,0,0
680,1.4817,12.568,0.17753,0,0,0,0
681,1.4875,12.567,0.17857,0,0,0,0
682,1.4935,12.566,0.17982,0,0,0,0
683,1.5,12.565,0.18137,0,0,0,0
684,1.5067,12.564,0.18303,0,0,0,0
685,1.5134,12.565,0.18435,0,0,0,0
686,1.5197,12.562,0.18596,0,0,0,0
687,1.5255,12.56,0.18772,0,0,0,0
688,1.5323,12.558,0.18954,0,0,0,0
689,1.5394,12.555,0.19102,0,0,0,0
690,1.5461,12.551,0.19253,0,0,0,0
691,1.5522,12.552,0.19415,0,0,0,0
692,1.5584,12.553,0.19584,0,0,0,0
693,1.5654,12.548,0.19768,0,0,0,0
694,1.5719,12.545,0.19956,0,0,0,0
695,1.5789,12.542,0.20117,0,0,0,0
696,1.585,12.541,0.20247,0,0,0,0
697,1.5914,12.538,0.20429,0,0,0,0
698,1.5981,12.532,0.20611,0,0,0,0
699,1.6051,12.529,0.20795,0,0,0,0
700,1.6118,12.527,0.21014,0,0,0,0
701,1.6181,12.522,0.21222,0,0,0,0
702,1.6247,12.518,0.21416,0,0,0,0
703,1.631,12.514,0.21634,0,0,0,0
704,1.6388,12.511,0.21833,0,0,0,0
705,1.6454,12.505,0.22029,0,0,0,0
706,1.6519,12.502,0.22251,0,0,0,0
707,1.6584,12.501,0.22476,0,0,0,0
708,1.665,12.494,0.22683,0,0,0,0
709,1.6725,12.49,0.22888,0,0,0,0
710,1.6797,12.483,0.23098,0,0,0,0
711,1.6861,12.48,0.23291,0,0,0,0
712,1.6926,12.475,0.23494,0,0,0,0
713,1.6995,12.469,0.23718,0,0,0,0
714,1.707,12.463,0.23934,0,0,0,0
715,1.7139,12.454,0.24134,0,0,0,0
716,1.7203,12.451,0.24404,0,0,0,0
717,1.727,12.445,0.24619,0,0,0,0
718,1.7339,12.442,0.24835,0,0,0,0
719,1.7417,12.433,0.25054,0,0,0,0
720,1.7487,12.424,0.25259,0,0,0,0
721,1.7552,12.421,0.25529,0,0,0,0
722,1.7616,12.415,0.25799,0,0,0,0
723,1.7685,12.405,0.26024,0,0,0,0
724,1.7759,12.396,0.26297,0,0,0,0
725,1.7832,12.387,0.26541,0,0,0,0
726,1.7894,12.385,0.26779,0,0,0,0
727,1.7963,12.378,0.27017,0,0,0,0
728,1.8037,12.368,0.27268,0,0,0,0
729,1.8115,12.359,0.27566,0,0,0,0
730,1.8183,12.349,0.27779,0,0,0,0
731,1.8252,12.34,0.2811,0,0,0,0
732,1.8321,12.331,0.28388,0,0,0,0
733,1.8393,12.323,0.28668,0,0,0,0
734,1.8467,12.315,0.28904,0,0,0,0
735,1.8543,12.305,0.29149,0,0,0,0
736,1.8608,12.295,0.2945,0,0,0,0
737,1.868,12.283,0.2974,0,0,0,0
738,1.8755,12.274,0.30046,0,0,0,0
739,1.8833,12.263,0.30354,0,0,0,0
740,1.8901,12.251,0.30625,0,0,0,0
741,1.8975,12.24,0.30934,0,0,0,0
742,1.9041,12.226,0.31215,0,0,0,0
743,1.9119,12.215,0.31524,0,0,0,0
744,1.92,12.204,0.31845,0,0,0,0
745,1.9274,12.189,0.32179,0,0,0,0
746,1.9341,12.177,0.32498,0,0,0,0
747,1.9416,12.163,0.32813,0,0,0,0
748,1.9498,12.147,0.33122,0,0,0,0
749,1.9576,12.133,0.33454,0,0,0,0
750,1.9648,12.118,0.33812,0,0,0,0
751,1.9717,12.102,0.34183,0,0,0,0
752,1.9799,12.085,0.3456,0,0,0,0
753,1.9877,12.07,0.34969,0,0,0,0
754,1.9954,12.051,0.35272,0,0,0,0
755,2.0029,12.034,0.35659,0,0,0,0
756,2.0104,12.014,0.36032,0,0,0,0
757,2.0184,11.996,0.36386,0,0,0,0
758,2.0266,11.976,0.36767,0,0,0,0
759,2.0343,11.955,0.37096,0,0,0,0
760,2.0415,11.939,0.3752,0,0,0,0
761,2.0492,11.915,0.37893,0,0,0,0
762,2.0578,11.891,0.38342,0,0,0,0
763,2.0658,11.867,0.38675,0,0,0,0
764,2.0738,11.844,0.39097,0,0,0,0
765,2.0821,11.818,0.39537,0,0,0,0