File: polyN_optimization/DP780_results/DATA/NT6_00_2.csv
Time[s],Displacement[mm],Force[kN],AxStrain_1,AxStrain_2,Thickness[mm],OuterWidth[mm],InnerWidth[mm]
0,0,-0.029384,0,0,1.4945,19.959,10.065
0.5,0.000252,0.0035403,4.9999e-05,0,0,0,0
1,-9.3e-05,0.036988,5.0999e-05,0,0,0,0
1.5,0.000432,0.072496,7.3997e-05,0,0,0,0
2,-5.9e-05,0.10483,-3e-05,0,0,0,0
2.5,0.000148,0.13287,0.00023697,0,0,0,0
3,2.4e-05,0.15864,-2.5e-05,0,0,0,0
3.5,0.000312,0.18314,9.5995e-05,0,0,0,0
4,0.00047,0.20581,0.00028596,0,0,0,0
4.5,0.000602,0.22896,-0.00019802,0,0,0,0
5,0.000452,0.25231,0.00014199,0,0,0,0
5.5,0.000687,0.27427,9.3996e-05,0,0,0,0
6,0.000562,0.29386,5.9998e-05,0,0,0,0
6.5,0.000827,0.31495,8.8996e-05,0,0,0,0
7,0.000781,0.33807,9.3996e-05,0,0,0,0
7.5,0.00081,0.3604,0.00014699,0,0,0,0
8,0.00102,0.38137,-3.8001e-05,0,0,0,0
8.5,0.001229,0.40198,0.00014799,0,0,0,0
9,0.001147,0.42352,3.3999e-05,0,0,0,0
9.5,0.001281,0.4438,0.00015299,0,0,0,0
10,0.001735,0.46522,0.00016999,0,0,0,0
10.5,0.001595,0.48651,0.00019298,0,0,0,0
11,0.001629,0.50772,0.00012899,0,0,0,0
11.5,0.001712,0.52764,0.00016499,0,0,0,0
12,0.001785,0.54734,0.00021598,0,0,0,0
12.5,0.001531,0.56672,0.00021598,0,0,0,0
13,0.001778,0.58664,-0.00014901,0,0,0,0
13.5,0.001869,0.6068,0.00028096,0,0,0,0
14,0.001704,0.62617,0.00013199,0,0,0,0
14.5,0.001626,0.64647,1e-05,0,0,0,0
15,0.001829,0.66664,0.00010099,0,0,0,0
15.5,0.001765,0.68657,3e-05,0,0,0,0
16,0.001805,0.70627,0.00012899,0,0,0,0
16.5,0.001927,0.72644,6.7998e-05,0,0,0,0
17,0.002137,0.74672,8.4996e-05,0,0,0,0
17.5,0.00215,0.76675,-2.7e-05,0,0,0,0
18,0.002204,0.78544,0.00029696,0,0,0,0
18.5,0.002323,0.8038,0.00018898,0,0,0,0
19,0.002427,0.82397,0.00019898,0,0,0,0
19.5,0.00235,0.84458,0.00031095,0,0,0,0
20,0.002796,0.86383,0.00017898,0,0,0,0
20.5,0.002468,0.88309,0.00035494,0,0,0,0
21,0.002894,0.90029,0.00023297,0,0,0,0
21.5,0.002853,0.91877,0.00030795,0,0,0,0
22,0.003296,0.93879,0.00021298,0,0,0,0
22.5,0.003273,0.95999,8.4996e-05,0,0,0,0
23,0.003401,0.97753,0.00016199,0,0,0,0
23.5,0.003465,0.99474,0.00041891,0,0,0,0
24,0.003536,1.0133,0.00034794,0,0,0,0
24.5,0.003526,1.0329,0.00020598,0,0,0,0
25,0.003577,1.0508,0.00011799,0,0,0,0
25.5,0.003331,1.0682,0.00039892,0,0,0,0
26,0.0033,1.0875,0.00035794,0,0,0,0
26.5,0.003446,1.1099,0.00012199,0,0,0,0
27,0.00375,1.13,0.00035794,0,0,0,0
27.5,0.003591,1.1475,0.00024297,0,0,0,0
28,0.003622,1.164,0.00027396,0,0,0,0
28.5,0.003912,1.1826,0.00021598,0,0,0,0
29,0.003973,1.2001,0.00038892,0,0,0,0
29.5,0.004183,1.218,0.00029696,0,0,0,0
30,0.003913,1.2352,0.00020298,0,0,0,0
30.5,0.004325,1.2522,0.00020298,0,0,0,0
31,0.00444,1.2689,0.00040192,0,0,0,0
31.5,0.004535,1.2868,0.00041591,0,0,0,0
32,0.004833,1.3038,0.00014199,0,0,0,0
32.5,0.005336,1.3224,0.00026996,0,0,0,0
33,0.00511,1.3412,0.00030395,0,0,0,0
33.5,0.005222,1.3586,1.4e-05,0,0,0,0
34,0.005347,1.3745,0.00045989,0,0,0,0
34.5,0.00555,1.3939,0.00024697,0,0,0,0
35,0.005584,1.4111,0.00017898,0,0,0,0
35.5,0.00529,1.4248,0.00022597,0,0,0,0
36,0.005919,1.4391,5.6998e-05,0,0,0,0
36.5,0.005148,1.4566,0.00020298,0,0,0,0
37,0.00479,1.4741,0.0004429,0,0,0,0
37.5,0.005504,1.4917,0.00016199,0,0,0,0
38,0.005078,1.509,0.00025397,0,0,0,0
38.5,0.00523,1.5247,0.00014499,0,0,0,0
39,0.005328,1.5401,0.00026996,0,0,0,0
39.5,0.005666,1.5568,0.00014899,0,0,0,0
40,0.005826,1.5748,0.00020998,0,0,0,0
40.5,0.005981,1.5932,0.00036793,0,0,0,0
41,0.006204,1.6095,0.00038892,0,0,0,0
41.5,0.006407,1.625,0.00029096,0,0,0,0
42,0.006492,1.6399,6.0998e-05,0,0,0,0
42.5,0.006922,1.6561,0.00029396,0,0,0,0
43,0.007013,1.6726,0.00017598,0,0,0,0
43.5,0.006966,1.6895,0.00021598,0,0,0,0
44,0.007271,1.7057,0.00034094,0,0,0,0
44.5,0.007271,1.7226,0.00030795,0,0,0,0
45,0.006936,1.7389,0.00034794,0,0,0,0
45.5,0.007065,1.7541,0.00014499,0,0,0,0
46,0.007042,1.7679,0.00048288,0,0,0,0
46.5,0.00688,1.7824,0.00036493,0,0,0,0
47,0.006853,1.7979,0.00033494,0,0,0,0
47.5,0.006911,1.8142,0.00037493,0,0,0,0
48,0.006745,1.8299,0.00025397,0,0,0,0
48.5,0.006823,1.8459,0.00058483,0,0,0,0
49,0.007256,1.8619,5.0999e-05,0,0,0,0
49.5,0.007324,1.8779,0.00053686,0,0,0,0
50,0.007243,1.8934,0.00032795,0,0,0,0
50.5,0.007443,1.9116,0.00022997,0,0,0,0
51,0.007545,1.9289,0.00053086,0,0,0,0
51.5,0.00768,1.9441,0.00051687,0,0,0,0
52,0.00833,1.9587,0.00029396,0,0,0,0
52.5,0.00812,1.9743,0.00019598,0,0,0,0
53,0.008516,1.9895,0.00041591,0,0,0,0
53.5,0.008824,2.0051,0.00059782,0,0,0,0
54,0.008787,2.0209,0.00015899,0,0,0,0
54.5,0.009153,2.0348,0.00046989,0,0,0,0
55,0.009099,2.0506,0.0004559,0,0,0,0
55.5,0.009012,2.0675,0.00036793,0,0,0,0
56,0.008674,2.084,0.00052386,0,0,0,0
56.5,0.008505,2.0995,0.00016899,0,0,0,0
57,0.008357,2.1143,0.00048388,0,0,0,0
57.5,0.008557,2.1276,0.00041291,0,0,0,0
58,0.00874,2.1427,0.00035194,0,0,0,0
58.5,0.008761,2.1597,0.00056784,0,0,0,0
59,0.00868,2.1759,0.00065578,0,0,0,0
59.5,0.008762,2.1915,0.00022997,0,0,0,0
60,0.008785,2.2065,0.00058183,0,0,0,0
60.5,0.00903,2.2204,0.00025697,0,0,0,0
61,0.009287,2.2339,0.00042291,0,0,0,0
61.5,0.009385,2.2483,0.00053386,0,0,0,0
62,0.009467,2.2644,0.00031395,0,0,0,0
62.5,0.009822,2.2813,0.00061881,0,0,0,0
63,0.010141,2.2974,0.00054785,0,0,0,0
63.5,0.010365,2.3116,0.00055784,0,0,0,0
64,0.010788,2.3265,0.0004569,0,0,0,0
64.5,0.010781,2.3415,0.0004359,0,0,0,0
65,0.010714,2.3562,0.00047988,0,0,0,0
65.5,0.010576,2.37,0.00048988,0,0,0,0
66,0.010749,2.3838,0.0004459,0,0,0,0
66.5,0.010351,2.3987,0.00041591,0,0,0,0
67,0.010345,2.4146,0.00030095,0,0,0,0
67.5,0.010092,2.4308,0.00058183,0,0,0,0
68,0.010305,2.4445,0.00041891,0,0,0,0
68.5,0.010309,2.4579,0.00046989,0,0,0,0
69,0.010154,2.4728,0.00064879,0,0,0,0
69.5,0.01025,2.4886,0.00067977,0,0,0,0
70,0.010419,2.5025,0.00048688,0,0,0,0
70.5,0.010585,2.5154,0.00054085,0,0,0,0
71,0.010691,2.5292,0.00050387,0,0,0,0
71.5,0.010698,2.5433,0.00049688,0,0,0,0
72,0.011145,2.5572,0.0004569,0,0,0,0
72.5,0.011206,2.5713,0.00053086,0,0,0,0
73,0.011724,2.5866,0.00066578,0,0,0,0
73.5,0.012131,2.6013,0.00064279,0,0,0,0
74,0.012638,2.6169,0.00064279,0,0,0,0
74.5,0.012412,2.6324,0.00064279,0,0,0,0
75,0.012578,2.646,0.0006258,0,0,0,0
75.5,0.012711,2.6585,0.00078469,0,0,0,0
76,0.012485,2.6731,0.00067277,0,0,0,0
76.5,0.012557,2.689,0.00065578,0,0,0,0
77,0.012537,2.7039,0.00059482,0,0,0,0
77.5,0.012304,2.7191,0.00057883,0,0,0,0
78,0.012471,2.7338,0.00054485,0,0,0,0
78.5,0.012005,2.7485,0.0004359,0,0,0,0
79,0.012202,2.7613,0.00070275,0,0,0,0
79.5,0.011891,2.7722,0.00060881,0,0,0,0
80,0.012118,2.785,0.0006328,0,0,0,0
80.5,0.012356,2.7991,0.00070975,0,0,0,0
81,0.01235,2.8133,0.00062181,0,0,0,0
81.5,0.01256,2.8265,0.00070375,0,0,0,0
82,0.012889,2.8428,0.0006388,0,0,0,0
82.5,0.013136,2.8586,0.00066578,0,0,0,0
83,0.013177,2.8742,0.00061581,0,0,0,0
83.5,0.013615,2.8877,0.00066578,0,0,0,0
84,0.013777,2.9007,0.00067977,0,0,0,0
84.5,0.014143,2.9134,0.00084564,0,0,0,0
85,0.014316,2.9278,0.00070375,0,0,0,0
85.5,0.01454,2.9414,0.00066278,0,0,0,0
86,0.014851,2.9537,0.0006258,0,0,0,0
86.5,0.014595,2.9669,0.00060881,0,0,0,0
87,0.014529,2.9812,0.00076071,0,0,0,0
87.5,0.014648,2.9952,0.0006398,0,0,0,0
88,0.014574,3.0087,0.00064579,0,0,0,0
88.5,0.01468,3.0224,0.00069976,0,0,0,0
89,0.014515,3.0369,0.00076071,0,0,0,0
89.5,0.014377,3.051,0.00067977,0,0,0,0
90,0.014236,3.0659,0.00070075,0,0,0,0
90.5,0.014166,3.0792,0.00055185,0,0,0,0
91,0.01416,3.0928,0.00081467,0,0,0,0
91.5,0.014427,3.105,0.0004539,0,0,0,0
92,0.01436,3.1182,0.0004499,0,0,0,0
92.5,0.014682,3.1312,0.00047089,0,0,0,0
93,0.014477,3.145,0.00053486,0,0,0,0
93.5,0.014728,3.1592,0.00059882,0,0,0,0
94,0.015381,3.1732,0.00081167,0,0,0,0
94.5,0.01569,3.1871,0.00052086,0,0,0,0
95,0.015927,3.1987,0.00048088,0,0,0,0
95.5,0.016249,3.212,0.00047089,0,0,0,0
96,0.01677,3.2258,0.00043391,0,0,0,0
96.5,0.016362,3.2397,0.00041991,0,0,0,0
97,0.017117,3.2522,0.00069376,0,0,0,0
97.5,0.016702,3.2661,0.00070675,0,0,0,0
98,0.016764,3.2805,0.00082566,0,0,0,0
98.5,0.016792,3.2945,0.00068077,0,0,0,0
99,0.016699,3.3083,0.00058583,0,0,0,0
99.5,0.017057,3.3222,0.0006268,0,0,0,0
100,0.016507,3.336,0.00074172,0,0,0,0
100.5,0.016241,3.3484,0.00052486,0,0,0,0
101,0.016424,3.3616,0.00070375,0,0,0,0
101.5,0.016108,3.3756,0.00048788,0,0,0,0
102,0.016433,3.3901,0.00066378,0,0,0,0
102.5,0.016404,3.4031,0.00066778,0,0,0,0
103,0.016685,3.416,0.00053586,0,0,0,0
103.5,0.016371,3.429,0.00067677,0,0,0,0
104,0.016487,3.4424,0.0006268,0,0,0,0
104.5,0.017107,3.4565,0.00060981,0,0,0,0
105,0.01724,3.4695,0.00055585,0,0,0,0
105.5,0.017586,3.4817,0.00060282,0,0,0,0
106,0.017931,3.4948,0.00075472,0,0,0,0
106.5,0.018031,3.5088,0.00061681,0,0,0,0
107,0.018298,3.5226,0.00074472,0,0,0,0
107.5,0.018438,3.5356,0.00095454,0,0,0,0
108,0.018737,3.5495,0.00080568,0,0,0,0
108.5,0.018694,3.5632,0.00081367,0,0,0,0
109,0.019091,3.5764,0.00091458,0,0,0,0
109.5,0.018601,3.5885,0.00047489,0,0,0,0
110,0.018684,3.6015,0.0007797,0,0,0,0
110.5,0.01862,3.6155,0.00067777,0,0,0,0
111,0.018645,3.6286,0.00050887,0,0,0,0
111.5,0.018998,3.6419,0.00091358,0,0,0,0
112,0.018789,3.6551,0.00081267,0,0,0,0
112.5,0.018487,3.6688,0.0007797,0,0,0,0
113,0.018352,3.6806,0.00074572,0,0,0,0
113.5,0.018319,3.6941,0.00074472,0,0,0,0
114,0.018321,3.7082,0.00057683,0,0,0,0
114.5,0.01849,3.7228,0.00074572,0,0,0,0
115,0.018661,3.7348,0.0007797,0,0,0,0
115.5,0.018662,3.7466,0.00088061,0,0,0,0
116,0.019069,3.7587,0.00074572,0,0,0,0
116.5,0.019542,3.771,0.00071175,0,0,0,0
117,0.019612,3.7842,0.00081267,0,0,0,0
117.5,0.019951,3.798,0.00098152,0,0,0,0
118,0.020053,3.8127,0.00094755,0,0,0,0
118.5,0.02019,3.8256,0.00084664,0,0,0,0
119,0.020327,3.8379,0.0007797,0,0,0,0
119.5,0.020631,3.8501,0.00084664,0,0,0,0
120,0.020668,3.8639,0.0011843,0,0,0,0
120.5,0.020836,3.8779,0.00098252,0,0,0,0
121,0.020737,3.8906,0.00057683,0,0,0,0
121.5,0.020772,3.904,0.00091458,0,0,0,0
122,0.02084,3.9171,0.00091458,0,0,0,0
122.5,0.020504,3.931,0.00074572,0,0,0,0
123,0.02037,3.9421,0.00084664,0,0,0,0
123.5,0.020372,3.9534,0.0010834,0,0,0,0
124,0.020271,3.9643,0.00091458,0,0,0,0
124.5,0.020171,3.9773,0.00081367,0,0,0,0
125,0.020308,3.9905,0.00081267,0,0,0,0
125.5,0.020309,4.0038,0.00061081,0,0,0,0
126,0.020716,4.0181,0.00091458,0,0,0,0
126.5,0.020751,4.0326,0.00088061,0,0,0,0
127,0.020989,4.0455,0.00091458,0,0,0,0
127.5,0.021295,4.0582,0.00084664,0,0,0,0
128,0.021634,4.0721,0.00098252,0,0,0,0
128.5,0.021906,4.0852,0.00081367,0,0,0,0
129,0.022177,4.0955,0.00088061,0,0,0,0
129.5,0.021976,4.1075,0.00084664,0,0,0,0
130,0.02245,4.1218,0.00084764,0,0,0,0
130.5,0.02252,4.1351,0.0010155,0,0,0,0
131,0.022589,4.1474,0.00088161,0,0,0,0
131.5,0.022725,4.161,0.0011174,0,0,0,0
132,0.02276,4.1746,0.00094855,0,0,0,0
132.5,0.02283,4.1874,0.0010834,0,0,0,0
133,0.022694,4.1993,0.00094855,0,0,0,0
133.5,0.022697,4.2108,0.00094955,0,0,0,0
134,0.022597,4.2218,0.0007807,0,0,0,0
134.5,0.022564,4.2351,0.00084764,0,0,0,0
135,0.022363,4.2495,0.00084764,0,0,0,0
135.5,0.02223,4.262,0.0010165,0,0,0,0
136,0.022671,4.2738,0.00088161,0,0,0,0
136.5,0.022367,4.2864,0.00071175,0,0,0,0
137,0.022808,4.3007,0.00067877,0,0,0,0
137.5,0.022911,4.314,0.0011174,0,0,0,0
138,0.023115,4.3262,0.00088161,0,0,0,0
138.5,0.023354,4.3377,0.00084864,0,0,0,0
139,0.023727,4.3508,0.00094855,0,0,0,0
139.5,0.023626,4.3646,0.00091458,0,0,0,0
140,0.024035,4.3773,0.00067877,0,0,0,0
140.5,0.024136,4.3896,0.00091558,0,0,0,0
141,0.024375,4.4021,0.0011853,0,0,0,0
141.5,0.024511,4.4149,0.00091458,0,0,0,0
142,0.024716,4.4271,0.0011174,0,0,0,0
142.5,0.024649,4.4389,0.0010165,0,0,0,0
143,0.024888,4.451,0.00094955,0,0,0,0
143.5,0.024822,4.4633,0.00098352,0,0,0,0
144,0.024755,4.4766,0.0012193,0,0,0,0
144.5,0.024723,4.4902,0.0011184,0,0,0,0
145,0.024589,4.504,0.0011513,0,0,0,0
145.5,0.024726,4.5164,0.00088261,0,0,0,0
146,0.02439,4.5291,0.00057783,0,0,0,0
146.5,0.024323,4.5433,0.0010165,0,0,0,0
147,0.024731,4.5564,0.00071275,0,0,0,0
147.5,0.024665,4.5678,0.00094955,0,0,0,0
148,0.024868,4.579,0.00098352,0,0,0,0
148.5,0.025243,4.5911,0.00088261,0,0,0,0
149,0.025447,4.6032,0.00081467,0,0,0,0
149.5,0.025584,4.6163,0.00091658,0,0,0,0
150,0.02589,4.6292,0.00094955,0,0,0,0
150.5,0.025959,4.6417,0.00081467,0,0,0,0
151,0.026297,4.654,0.00098352,0,0,0,0
151.5,0.026231,4.6661,0.00081467,0,0,0,0
152,0.026809,4.6778,0.0010175,0,0,0,0
152.5,0.026912,4.69,0.00084864,0,0,0,0
153,0.02688,4.7029,0.0012203,0,0,0,0
153.5,0.026984,4.7156,0.001389,0,0,0,0
154,0.027053,4.7301,0.0010185,0,0,0,0
154.5,0.027021,4.7438,0.0010854,0,0,0,0
155,0.027258,4.7562,0.0010185,0,0,0,0
155.5,0.027701,4.7671,0.0010864,0,0,0,0
156,0.027599,4.779,0.0010185,0,0,0,0
156.5,0.027635,4.792,0.00088261,0,0,0,0
157,0.027401,4.8041,0.0010524,0,0,0,0
157.5,0.027167,4.8162,0.0012213,0,0,0,0
158,0.027472,4.8285,0.0010524,0,0,0,0
158.5,0.027441,4.8416,0.0010854,0,0,0,0
159,0.027205,4.8534,0.0010185,0,0,0,0
159.5,0.027477,4.8671,0.00071375,0,0,0,0
160,0.027852,4.881,0.00078269,0,0,0,0
160.5,0.028124,4.8929,0.00091658,0,0,0,0
161,0.028329,4.9038,0.0010185,0,0,0,0
161.5,0.028567,4.9167,0.0010185,0,0,0,0
162,0.028502,4.9304,0.0010524,0,0,0,0
162.5,0.02884,4.9428,0.0010524,0,0,0,0
163,0.029079,4.955,0.0011204,0,0,0,0
163.5,0.029385,4.9669,0.0011883,0,0,0,0
164,0.029285,4.9802,0.0011204,0,0,0,0
164.5,0.029254,4.9929,0.0013231,0,0,0,0
165,0.029426,5.0048,0.0012562,0,0,0,0
165.5,0.029698,5.0164,0.0011893,0,0,0,0
166,0.0297,5.0291,0.0010874,0,0,0,0
166.5,0.029836,5.0416,0.0011553,0,0,0,0
167,0.029602,5.0525,0.0011214,0,0,0,0
167.5,0.029773,5.0662,0.00098651,0,0,0,0
168,0.030012,5.0799,0.0011893,0,0,0,0
168.5,0.03025,5.0924,0.00095255,0,0,0,0
169,0.029948,5.1033,0.0010215,0,0,0,0
169.5,0.029815,5.1185,0.0012233,0,0,0,0
170,0.030188,5.1338,0.0012243,0,0,0,0
170.5,0.030224,5.146,0.0010894,0,0,0,0
171,0.030666,5.1564,0.0010225,0,0,0,0
171.5,0.030734,5.167,0.0012243,0,0,0,0
172,0.031006,5.1781,0.0011553,0,0,0,0
172.5,0.03138,5.19,0.0011234,0,0,0,0
173,0.031382,5.205,0.0014609,0,0,0,0
173.5,0.031384,5.2191,0.001427,0,0,0,0
174,0.031621,5.2303,0.0015957,0,0,0,0
174.5,0.031793,5.2416,0.0012243,0,0,0,0
175,0.031896,5.2542,0.0015628,0,0,0,0
175.5,0.032066,5.2685,0.0014949,0,0,0,0
176,0.032475,5.2819,0.0015628,0,0,0,0
176.5,0.032544,5.2952,0.0015298,0,0,0,0
177,0.032411,5.3075,0.0012592,0,0,0,0
177.5,0.032819,5.3233,0.0012252,0,0,0,0
178,0.032956,5.3364,0.0012262,0,0,0,0
178.5,0.032992,5.3466,0.001395,0,0,0,0
179,0.033093,5.3574,0.0012592,0,0,0,0
179.5,0.033266,5.3728,0.0012262,0,0,0,0
180,0.033504,5.3858,0.00099051,0,0,0,0
180.5,0.033269,5.398,0.0010235,0,0,0,0
181,0.033407,5.4107,0.0010924,0,0,0,0
181.5,0.033577,5.4245,0.0011573,0,0,0,0
182,0.033851,5.4374,0.0012262,0,0,0,0
182.5,0.033953,5.4499,0.0011923,0,0,0,0
183,0.03426,5.4621,0.0010564,0,0,0,0
183.5,0.034126,5.4755,0.0012942,0,0,0,0
184,0.034296,5.4881,0.0012592,0,0,0,0
184.5,0.034569,5.5012,0.0011254,0,0,0,0
185,0.034537,5.5131,0.0015628,0,0,0,0
185.5,0.034843,5.5247,0.0012932,0,0,0,0
186,0.034879,5.5366,0.0012262,0,0,0,0
186.5,0.035016,5.5507,0.001428,0,0,0,0
187,0.034984,5.5634,0.0016307,0,0,0,0
187.5,0.035391,5.5758,0.0012922,0,0,0,0
188,0.035563,5.5898,0.0013271,0,0,0,0
188.5,0.03553,5.6027,0.0014619,0,0,0,0
189,0.035803,5.6141,0.0012602,0,0,0,0
189.5,0.036143,5.6249,0.0010904,0,0,0,0
190,0.036381,5.6386,0.0012922,0,0,0,0
190.5,0.036621,5.652,0.0012243,0,0,0,0
191,0.036723,5.6659,0.0011234,0,0,0,0
191.5,0.03676,5.6785,0.001428,0,0,0,0
192,0.0371,5.6906,0.0011583,0,0,0,0
192.5,0.037271,5.7022,0.001393,0,0,0,0
193,0.036799,5.7143,0.0012922,0,0,0,0
193.5,0.037106,5.7268,0.0012582,0,0,0,0
194,0.037345,5.739,0.0013261,0,0,0,0
194.5,0.037516,5.7533,0.001427,0,0,0,0
195,0.037653,5.7667,0.0013261,0,0,0,0
195.5,0.037621,5.7806,0.0016976,0,0,0,0
196,0.037726,5.7929,0.0015278,0,0,0,0
196.5,0.037897,5.804,0.0015618,0,0,0,0
197,0.038068,5.8154,0.0017654,0,0,0,0
197.5,0.038173,5.8286,0.0016636,0,0,0,0
198,0.038613,5.8432,0.0018323,0,0,0,0
198.5,0.038716,5.8545,0.0016297,0,0,0,0
199,0.038955,5.8661,0.0017315,0,0,0,0
199.5,0.03923,5.8778,0.0018313,0,0,0,0
200,0.039468,5.8911,0.0015618,0,0,0,0
200.5,0.039774,5.904,0.0014609,0,0,0,0
201,0.03998,5.9175,0.0014609,0,0,0,0
201.5,0.04032,5.9299,0.0015957,0,0,0,0
202,0.040661,5.9409,0.0015628,0,0,0,0
202.5,0.040797,5.9525,0.0015957,0,0,0,0
203,0.040867,5.9657,0.0016287,0,0,0,0
203.5,0.04087,5.9801,0.0015278,0,0,0,0
204,0.041244,5.9935,0.0016966,0,0,0,0
204.5,0.041314,6.006,0.0021028,0,0,0,0
205,0.041046,6.0176,0.0019671,0,0,0,0
205.5,0.041555,6.03,0.0017644,0,0,0,0
206,0.041319,6.0429,0.0019002,0,0,0,0
206.5,0.041492,6.0563,0.0021696,0,0,0,0
207,0.041426,6.069,0.002002,0,0,0,0
207.5,0.041867,6.0807,0.0018323,0,0,0,0
208,0.041905,6.0934,0.0023393,0,0,0,0
208.5,0.042041,6.106,0.0021716,0,0,0,0
209,0.042043,6.1186,0.0022046,0,0,0,0
209.5,0.042416,6.1308,0.0020699,0,0,0,0
210,0.042554,6.1422,0.002003,0,0,0,0
210.5,0.042894,6.1543,0.0021726,0,0,0,0
211,0.042998,6.1673,0.0019361,0,0,0,0
211.5,0.043507,6.1819,0.002003,0,0,0,0
212,0.044219,6.1956,0.002004,0,0,0,0
212.5,0.044153,6.2092,0.0019711,0,0,0,0
213,0.044427,6.221,0.0018363,0,0,0,0
213.5,0.044866,6.2346,0.0020729,0,0,0,0
214,0.044802,6.2479,0.0021746,0,0,0,0
214.5,0.044768,6.26,0.0019042,0,0,0,0
215,0.044636,6.2726,0.0018363,0,0,0,0
215.5,0.045112,6.286,0.0019042,0,0,0,0
216,0.045249,6.3003,0.0019731,0,0,0,0
216.5,0.045149,6.313,0.0019052,0,0,0,0
217,0.045456,6.3261,0.0020748,0,0,0,0
217.5,0.045424,6.339,0.0021756,0,0,0,0
218,0.045461,6.352,0.0023772,0,0,0,0
218.5,0.045529,6.3629,0.0020738,0,0,0,0
219,0.045634,6.3741,0.0021417,0,0,0,0
219.5,0.046107,6.3859,0.0021417,0,0,0,0
220,0.046313,6.3989,0.0022445,0,0,0,0
220.5,0.04672,6.4123,0.0020409,0,0,0,0
221,0.046687,6.4254,0.0019401,0,0,0,0
221.5,0.047197,6.4387,0.0022774,0,0,0,0
222,0.047774,6.4528,0.0020399,0,0,0,0
222.5,0.04852,6.4666,0.0019731,0,0,0,0
223,0.048589,6.4788,0.0020399,0,0,0,0
223.5,0.048997,6.4916,0.0021407,0,0,0,0
224,0.049103,6.5037,0.0020748,0,0,0,0
224.5,0.049509,6.5162,0.0021397,0,0,0,0
225,0.049613,6.5296,0.0022405,0,0,0,0
225.5,0.049818,6.5427,0.0021068,0,0,0,0
226,0.049855,6.5545,0.0021726,0,0,0,0
226.5,0.049789,6.5674,0.0022076,0,0,0,0
227,0.049758,6.5825,0.0022056,0,0,0,0
227.5,0.050166,6.5952,0.0022066,0,0,0,0
228,0.050103,6.6054,0.0025098,0,0,0,0
228.5,0.049934,6.6166,0.0026445,0,0,0,0
229,0.050141,6.6293,0.0025438,0,0,0,0
229.5,0.050446,6.6428,0.0026445,0,0,0,0
230,0.050515,6.6554,0.0026774,0,0,0,0
230.5,0.050754,6.6689,0.0026106,0,0,0,0
231,0.051263,6.6814,0.0025777,0,0,0,0
231.5,0.051639,6.6947,0.0028798,0,0,0,0
232,0.052214,6.7083,0.0025428,0,0,0,0
232.5,0.052454,6.7226,0.0026116,0,0,0,0
233,0.052827,6.7367,0.0025438,0,0,0,0
233.5,0.053369,6.7485,0.0025428,0,0,0,0
234,0.053912,6.7601,0.0026445,0,0,0,0
234.5,0.05398,6.7721,0.0023063,0,0,0,0
235,0.05412,6.7866,0.0024769,0,0,0,0
235.5,0.054695,6.8001,0.002442,0,0,0,0
236,0.0549,6.8127,0.0023073,0,0,0,0
236.5,0.055104,6.8243,0.0027143,0,0,0,0
237,0.055275,6.8377,0.0024101,0,0,0,0
237.5,0.055073,6.8512,0.0027472,0,0,0,0
238,0.055312,6.8632,0.0028828,0,0,0,0
238.5,0.055414,6.876,0.002816,0,0,0,0
239,0.055618,6.8893,0.0029177,0,0,0,0
239.5,0.055586,6.9027,0.0028848,0,0,0,0
240,0.055523,6.9152,0.0030862,0,0,0,0
240.5,0.055726,6.9278,0.0028858,0,0,0,0
241,0.0563,6.9403,0.003155,0,0,0,0
241.5,0.056473,6.9534,0.003156,0,0,0,0
242,0.056912,6.9672,0.0027871,0,0,0,0
242.5,0.057254,6.9801,0.00282,0,0,0,0
243,0.058099,6.9935,0.0030553,0,0,0,0
243.5,0.058406,7.0061,0.002819,0,0,0,0
244,0.05878,7.0181,0.00282,0,0,0,0
244.5,0.058951,7.03,0.0027522,0,0,0,0
245,0.059393,7.0436,0.0027861,0,0,0,0
245.5,0.059629,7.0573,0.0029177,0,0,0,0
246,0.060038,7.0697,0.0029177,0,0,0,0
246.5,0.060242,7.0819,0.0030204,0,0,0,0
247,0.060312,7.0948,0.002818,0,0,0,0
247.5,0.060686,7.1077,0.0030194,0,0,0,0
248,0.060959,7.1201,0.0030882,0,0,0,0
248.5,0.061096,7.1325,0.0030872,0,0,0,0
249,0.061098,7.1471,0.003153,0,0,0,0
249.5,0.061372,7.1621,0.0032537,0,0,0,0
250,0.061476,7.1754,0.0033215,0,0,0,0
250.5,0.061647,7.1876,0.0035905,0,0,0,0
251,0.062123,7.2005,0.0035557,0,0,0,0
251.5,0.062262,7.2126,0.0035228,0,0,0,0
252,0.062432,7.2249,0.0038595,0,0,0,0
252.5,0.062807,7.2378,0.0036583,0,0,0,0
253,0.063384,7.2514,0.0037918,0,0,0,0
253.5,0.06349,7.2647,0.0036912,0,0,0,0
254,0.06393,7.2785,0.0036234,0,0,0,0
254.5,0.064237,7.2906,0.0035905,0,0,0,0
255,0.064849,7.3031,0.0033544,0,0,0,0
255.5,0.065053,7.3171,0.003456,0,0,0,0
256,0.065393,7.3315,0.0035905,0,0,0,0
256.5,0.065531,7.3439,0.0034899,0,0,0,0
257,0.065837,7.3548,0.003457,0,0,0,0
257.5,0.066144,7.3665,0.0033554,0,0,0,0
258,0.066483,7.3789,0.0036264,0,0,0,0
258.5,0.066857,7.3932,0.0035597,0,0,0,0
259,0.067267,7.4082,0.0037609,0,0,0,0
259.5,0.067435,7.4212,0.0035925,0,0,0,0
260,0.06791,7.4327,0.0041643,0,0,0,0
260.5,0.068011,7.4455,0.0040677,0,0,0,0
261,0.068454,7.4598,0.0041006,0,0,0,0
261.5,0.06893,7.4715,0.004235,0,0,0,0
262,0.069134,7.4834,0.0044043,0,0,0,0
262.5,0.069443,7.4967,0.0043057,0,0,0,0
263,0.069577,7.5108,0.0044053,0,0,0,0
263.5,0.069918,7.5231,0.0041026,0,0,0,0
264,0.07029,7.5345,0.0041374,0,0,0,0
264.5,0.070867,7.546,0.0040687,0,0,0,0
265,0.070835,7.5591,0.004237,0,0,0,0
265.5,0.071207,7.5733,0.0039333,0,0,0,0
266,0.071447,7.5871,0.0039343,0,0,0,0
266.5,0.072022,7.6006,0.0041364,0,0,0,0
267,0.07226,7.614,0.0039323,0,0,0,0
267.5,0.072701,7.6279,0.0040339,0,0,0,0
268,0.073043,7.6397,0.0043356,0,0,0,0
268.5,0.073449,7.6509,0.0043694,0,0,0,0
269,0.073621,7.6642,0.0041324,0,0,0,0
269.5,0.074467,7.6782,0.0043007,0,0,0,0
270,0.074739,7.6911,0.0044342,0,0,0,0
270.5,0.075314,7.7033,0.0046362,0,0,0,0
271,0.075756,7.7158,0.004905,0,0,0,0
271.5,0.076435,7.7272,0.0050393,0,0,0,0
272,0.076637,7.74,0.0049378,0,0,0,0
272.5,0.077216,7.754,0.0052751,0,0,0,0
273,0.07759,7.7678,0.0051059,0,0,0,0
273.5,0.078066,7.7793,0.0051736,0,0,0,0
274,0.078135,7.79,0.0052064,0,0,0,0
274.5,0.078576,7.803,0.0050393,0,0,0,0
275,0.078545,7.817,0.0050055,0,0,0,0
275.5,0.078611,7.83,0.0049716,0,0,0,0
276,0.078751,7.8422,0.0047358,0,0,0,0
276.5,0.079258,7.8544,0.0048373,0,0,0,0
277,0.079463,7.8654,0.0049059,0,0,0,0
277.5,0.080007,7.8773,0.0048044,0,0,0,0
278,0.080378,7.8904,0.0050064,0,0,0,0
278.5,0.080651,7.9034,0.0048034,0,0,0,0
279,0.08126,7.9158,0.0050433,0,0,0,0
279.5,0.081635,7.9286,0.0050423,0,0,0,0
280,0.082042,7.9413,0.0050074,0,0,0,0
280.5,0.083025,7.9535,0.0053119,0,0,0,0
281,0.082923,7.967,0.0051428,0,0,0,0
281.5,0.083872,7.9801,0.0055814,0,0,0,0
282,0.084652,7.9914,0.0056818,0,0,0,0
282.5,0.084888,8.0029,0.0057166,0,0,0,0
283,0.08533,8.0166,0.0056172,0,0,0,0
283.5,0.085975,8.0316,0.0059194,0,0,0,0
284,0.086515,8.0444,0.0059532,0,0,0,0
284.5,0.086992,8.0565,0.0060894,0,0,0,0
285,0.087297,8.0686,0.0057196,0,0,0,0
285.5,0.0874,8.0809,0.0057862,0,0,0,0
286,0.087705,8.0932,0.0057524,0,0,0,0
286.5,0.088181,8.1055,0.0056858,0,0,0,0
287,0.088216,8.1187,0.0056838,0,0,0,0
287.5,0.088723,8.1312,0.0054819,0,0,0,0
288,0.088626,8.145,0.0054481,0,0,0,0
288.5,0.089033,8.1574,0.0053805,0,0,0,0
289,0.089439,8.1709,0.0056152,0,0,0,0
289.5,0.090117,8.1824,0.005481,0,0,0,0
290,0.090422,8.1947,0.0057146,0,0,0,0
290.5,0.09137,8.2072,0.0059493,0,0,0,0
291,0.091644,8.2218,0.0059831,0,0,0,0
291.5,0.09266,8.2341,0.0061838,0,0,0,0
292,0.092934,8.2454,0.0062832,0,0,0,0
292.5,0.093711,8.2571,0.006318,0,0,0,0
293,0.09412,8.2708,0.0067531,0,0,0,0
293.5,0.094664,8.284,0.0067869,0,0,0,0
294,0.095376,8.2966,0.0068207,0,0,0,0
294.5,0.09602,8.3092,0.007056,0,0,0,0
295,0.096291,8.3216,0.0066528,0,0,0,0
295.5,0.096939,8.3321,0.006922,0,0,0,0
296,0.097208,8.3442,0.0068207,0,0,0,0
296.5,0.097684,8.3572,0.006619,0,0,0,0
297,0.098126,8.3723,0.0068207,0,0,0,0
297.5,0.098433,8.3853,0.0065863,0,0,0,0
298,0.099313,8.3977,0.0066876,0,0,0,0
298.5,0.099586,8.4088,0.0064184,0,0,0,0
299,0.099959,8.4226,0.0065207,0,0,0,0
299.5,0.10077,8.4354,0.0065197,0,0,0,0
300,0.10132,8.4458,0.0064531,0,0,0,0
300.5,0.10155,8.4575,0.0067224,0,0,0,0
301,0.10237,8.4697,0.0067224,0,0,0,0
301.5,0.10294,8.4825,0.006925,0,0,0,0
302,0.10308,8.4946,0.0071265,0,0,0,0
302.5,0.10379,8.5084,0.0070928,0,0,0,0
303,0.10457,8.5199,0.0074631,0,0,0,0
303.5,0.10504,8.5317,0.0074293,0,0,0,0
304,0.10562,8.5448,0.0075991,0,0,0,0
304.5,0.10599,8.5574,0.007867,0,0,0,0
305,0.1065,8.5686,0.0079682,0,0,0,0
305.5,0.10728,8.5801,0.0078342,0,0,0,0
306,0.10778,8.5924,0.0077687,0,0,0,0
306.5,0.10856,8.6042,0.0077023,0,0,0,0
307,0.10935,8.6165,0.0079027,0,0,0,0
307.5,0.10995,8.6293,0.0078025,0,0,0,0
308,0.11043,8.6426,0.0076685,0,0,0,0
308.5,0.11141,8.6544,0.0075345,0,0,0,0
309,0.11236,8.665,0.007602,0,0,0,0
309.5,0.11286,8.6756,0.007468,0,0,0,0
310,0.11357,8.6878,0.0076685,0,0,0,0
310.5,0.11429,8.7006,0.0077003,0,0,0,0
311,0.11456,8.7129,0.007868,0,0,0,0
311.5,0.11476,8.7242,0.0080356,0,0,0,0
312,0.11564,8.735,0.0079682,0,0,0,0
312.5,0.11628,8.7488,0.0083699,0,0,0,0
313,0.11652,8.7648,0.0083689,0,0,0,0
313.5,0.11689,8.7771,0.0086703,0,0,0,0
314,0.1176,8.7857,0.008702,0,0,0,0
314.5,0.11778,8.7961,0.0090033,0,0,0,0
315,0.11879,8.8096,0.0094056,0,0,0,0
315.5,0.11893,8.8214,0.0092719,0,0,0,0
316,0.11974,8.8322,0.0092382,0,0,0,0
316.5,0.12042,8.8441,0.0092719,0,0,0,0
317,0.12123,8.8568,0.0092719,0,0,0,0
317.5,0.12201,8.869,0.0094383,0,0,0,0
318,0.12292,8.8804,0.0092045,0,0,0,0
318.5,0.1239,8.8913,0.009038,0,0,0,0
319,0.12492,8.9027,0.0088031,0,0,0,0
319.5,0.12553,8.915,0.0088021,0,0,0,0
320,0.12593,8.9274,0.0088021,0,0,0,0
320.5,0.12688,8.9401,0.0092035,0,0,0,0
321,0.12783,8.9533,0.009037,0,0,0,0
321.5,0.1281,8.9651,0.0092035,0,0,0,0
322,0.12919,8.975,0.0092699,0,0,0,0
322.5,0.12953,8.9848,0.009572,0,0,0,0
323,0.13031,8.9974,0.010075,0,0,0,0
323.5,0.13078,9.01,0.010074,0,0,0,0
324,0.13169,9.0217,0.010239,0,0,0,0
324.5,0.13241,9.0319,0.010508,0,0,0,0
325,0.13285,9.0435,0.010709,0,0,0,0
325.5,0.13373,9.0553,0.010776,0,0,0,0
326,0.13461,9.0684,0.01061,0,0,0,0
326.5,0.13559,9.0802,0.010879,0,0,0,0
327,0.1361,9.0925,0.010676,0,0,0,0
327.5,0.13681,9.1041,0.010709,0,0,0,0
328,0.13759,9.1159,0.010711,0,0,0,0
328.5,0.13813,9.1268,0.010377,0,0,0,0
329,0.13898,9.1385,0.010479,0,0,0,0
329.5,0.13966,9.1504,0.010446,0,0,0,0
330,0.14017,9.1623,0.010513,0,0,0,0
330.5,0.14094,9.1733,0.01028,0,0,0,0
331,0.14182,9.185,0.010446,0,0,0,0
331.5,0.14267,9.1967,0.010346,0,0,0,0
332,0.14352,9.2087,0.01058,0,0,0,0
332.5,0.14433,9.22,0.010715,0,0,0,0
333,0.14494,9.2318,0.010815,0,0,0,0
333.5,0.14589,9.2431,0.011014,0,0,0,0
334,0.14687,9.255,0.011349,0,0,0,0
334.5,0.14795,9.2664,0.011517,0,0,0,0
335,0.14877,9.2763,0.011885,0,0,0,0
335.5,0.14965,9.2854,0.012186,0,0,0,0
336,0.15049,9.296,0.012353,0,0,0,0
336.5,0.15161,9.307,0.012254,0,0,0,0
337,0.15242,9.3176,0.012286,0,0,0,0
337.5,0.15313,9.3306,0.012218,0,0,0,0
338,0.15404,9.3443,0.012254,0,0,0,0
338.5,0.15476,9.3572,0.012255,0,0,0,0
339,0.15533,9.3662,0.012221,0,0,0,0
339.5,0.15597,9.377,0.012019,0,0,0,0
340,0.15638,9.3887,0.01182,0,0,0,0
340.5,0.15726,9.4003,0.011922,0,0,0,0
341,0.15797,9.4106,0.012121,0,0,0,0
341.5,0.15852,9.4222,0.011921,0,0,0,0
342,0.15929,9.4348,0.012019,0,0,0,0
342.5,0.16024,9.4452,0.011921,0,0,0,0
343,0.16126,9.4557,0.012322,0,0,0,0
343.5,0.162,9.4676,0.012385,0,0,0,0
344,0.16319,9.4798,0.012686,0,0,0,0
344.5,0.16437,9.4896,0.013251,0,0,0,0
345,0.16505,9.4992,0.013352,0,0,0,0
345.5,0.16586,9.5102,0.013284,0,0,0,0
346,0.1667,9.5215,0.013817,0,0,0,0
346.5,0.16772,9.5322,0.013851,0,0,0,0
347,0.16856,9.5428,0.013885,0,0,0,0
347.5,0.16944,9.5536,0.014117,0,0,0,0
348,0.17036,9.564,0.01425,0,0,0,0
348.5,0.17117,9.5754,0.014184,0,0,0,0
349,0.17208,9.5881,0.013918,0,0,0,0
349.5,0.17313,9.5984,0.013916,0,0,0,0
350,0.17388,9.6074,0.013918,0,0,0,0
350.5,0.17496,9.6174,0.013951,0,0,0,0
351,0.17628,9.6304,0.013751,0,0,0,0
351.5,0.17719,9.6417,0.013717,0,0,0,0
352,0.17817,9.6534,0.013916,0,0,0,0
352.5,0.17915,9.6632,0.014016,0,0,0,0
353,0.18034,9.6749,0.013883,0,0,0,0
353.5,0.18146,9.6863,0.014283,0,0,0,0
354,0.18217,9.6968,0.014316,0,0,0,0
354.5,0.18284,9.7059,0.014683,0,0,0,0
355,0.18345,9.7171,0.014914,0,0,0,0
355.5,0.18464,9.7289,0.015346,0,0,0,0
356,0.18504,9.7403,0.015481,0,0,0,0
356.5,0.18599,9.7504,0.015414,0,0,0,0
357,0.18687,9.7606,0.015413,0,0,0,0
357.5,0.18745,9.7705,0.015779,0,0,0,0
358,0.18843,9.7805,0.015878,0,0,0,0
358.5,0.18958,9.7903,0.015646,0,0,0,0
359,0.19026,9.8012,0.015879,0,0,0,0
359.5,0.19174,9.8122,0.015779,0,0,0,0
360,0.19289,9.8234,0.015713,0,0,0,0
360.5,0.19401,9.8346,0.015813,0,0,0,0
361,0.19512,9.8473,0.015513,0,0,0,0
361.5,0.196,9.8577,0.01568,0,0,0,0
362,0.19746,9.8678,0.015548,0,0,0,0
362.5,0.19851,9.8776,0.015714,0,0,0,0
363,0.19925,9.8873,0.015613,0,0,0,0
363.5,0.20017,9.8958,0.015847,0,0,0,0
364,0.20138,9.9059,0.015946,0,0,0,0
364.5,0.2023,9.917,0.015913,0,0,0,0
365,0.20328,9.9272,0.016311,0,0,0,0
365.5,0.20426,9.9378,0.016544,0,0,0,0
366,0.20558,9.949,0.016978,0,0,0,0
366.5,0.20653,9.9602,0.017043,0,0,0,0
367,0.20784,9.9702,0.01741,0,0,0,0
367.5,0.2091,9.9805,0.017541,0,0,0,0
368,0.21025,9.9899,0.017475,0,0,0,0
368.5,0.21163,10,0.017608,0,0,0,0
369,0.21265,10.013,0.017741,0,0,0,0
369.5,0.21363,10.024,0.017742,0,0,0,0
370,0.21475,10.031,0.017511,0,0,0,0
370.5,0.21552,10.039,0.01751,0,0,0,0
371,0.21661,10.052,0.017644,0,0,0,0
371.5,0.21756,10.063,0.017776,0,0,0,0
372,0.21833,10.073,0.017479,0,0,0,0
372.5,0.21918,10.082,0.01748,0,0,0,0
373,0.22023,10.093,0.017546,0,0,0,0
373.5,0.22124,10.103,0.017645,0,0,0,0
374,0.22216,10.113,0.017611,0,0,0,0
374.5,0.22297,10.124,0.017945,0,0,0,0
375,0.22456,10.135,0.018142,0,0,0,0
375.5,0.22584,10.146,0.018309,0,0,0,0
376,0.22709,10.156,0.018476,0,0,0,0
376.5,0.22831,10.165,0.018741,0,0,0,0
377,0.22977,10.175,0.018973,0,0,0,0
377.5,0.23115,10.186,0.019104,0,0,0,0
378,0.23234,10.197,0.019338,0,0,0,0
378.5,0.23311,10.206,0.019304,0,0,0,0
379,0.23444,10.215,0.019303,0,0,0,0
379.5,0.23548,10.223,0.019271,0,0,0,0
380,0.23643,10.233,0.019636,0,0,0,0
380.5,0.23782,10.243,0.019338,0,0,0,0
381,0.23893,10.253,0.01957,0,0,0,0
381.5,0.24012,10.262,0.019404,0,0,0,0
382,0.24137,10.272,0.019439,0,0,0,0
382.5,0.24262,10.283,0.019605,0,0,0,0
383,0.24384,10.292,0.019538,0,0,0,0
383.5,0.24502,10.301,0.019705,0,0,0,0
384,0.24664,10.31,0.019803,0,0,0,0
384.5,0.24786,10.321,0.019967,0,0,0,0
385,0.24911,10.332,0.020103,0,0,0,0
385.5,0.25043,10.342,0.020236,0,0,0,0
386,0.25107,10.351,0.020563,0,0,0,0
386.5,0.25236,10.362,0.020563,0,0,0,0
387,0.25344,10.372,0.020927,0,0,0,0
387.5,0.25456,10.38,0.021294,0,0,0,0
388,0.25564,10.389,0.021257,0,0,0,0
388.5,0.25628,10.399,0.02139,0,0,0,0
389,0.25753,10.408,0.021522,0,0,0,0
389.5,0.25871,10.416,0.021587,0,0,0,0
390,0.25977,10.425,0.021622,0,0,0,0
390.5,0.26108,10.434,0.021719,0,0,0,0
391,0.26243,10.446,0.021752,0,0,0,0
391.5,0.26358,10.457,0.021753,0,0,0,0
392,0.26517,10.467,0.021851,0,0,0,0
392.5,0.26605,10.476,0.021752,0,0,0,0
393,0.26774,10.488,0.02195,0,0,0,0
393.5,0.26862,10.497,0.021951,0,0,0,0
394,0.27055,10.504,0.02205,0,0,0,0
394.5,0.27153,10.511,0.022116,0,0,0,0
395,0.27261,10.52,0.022248,0,0,0,0
395.5,0.27373,10.53,0.022413,0,0,0,0
396,0.27515,10.539,0.022743,0,0,0,0
396.5,0.27653,10.547,0.023041,0,0,0,0
397,0.27779,10.557,0.02314,0,0,0,0
397.5,0.27897,10.567,0.023403,0,0,0,0
398,0.28069,10.577,0.02337,0,0,0,0
398.5,0.28218,10.587,0.023667,0,0,0,0
399,0.28357,10.597,0.023634,0,0,0,0
399.5,0.28522,10.606,0.023798,0,0,0,0
400,0.28644,10.615,0.023931,0,0,0,0
400.5,0.28783,10.624,0.024029,0,0,0,0
401,0.28904,10.635,0.024061,0,0,0,0
401.5,0.2903,10.644,0.024359,0,0,0,0
402,0.29158,10.652,0.024292,0,0,0,0
402.5,0.29276,10.66,0.024327,0,0,0,0
403,0.29408,10.669,0.024391,0,0,0,0
403.5,0.2953,10.679,0.024392,0,0,0,0
404,0.29618,10.688,0.024589,0,0,0,0
404.5,0.29753,10.697,0.024755,0,0,0,0
405,0.29899,10.704,0.02482,0,0,0,0
405.5,0.30034,10.713,0.025084,0,0,0,0
406,0.30155,10.723,0.02515,0,0,0,0
406.5,0.30298,10.732,0.025315,0,0,0,0
407,0.3047,10.74,0.02548,0,0,0,0
407.5,0.30602,10.747,0.025644,0,0,0,0
408,0.30737,10.753,0.025775,0,0,0,0
408.5,0.30852,10.762,0.025776,0,0,0,0
409,0.30987,10.774,0.026039,0,0,0,0
409.5,0.31119,10.785,0.026105,0,0,0,0
410,0.31227,10.793,0.026237,0,0,0,0
410.5,0.31376,10.801,0.026367,0,0,0,0
411,0.31494,10.81,0.026467,0,0,0,0
411.5,0.3165,10.818,0.026235,0,0,0,0
412,0.31772,10.828,0.026598,0,0,0,0
412.5,0.31914,10.838,0.026829,0,0,0,0
413,0.32072,10.845,0.02706,0,0,0,0
413.5,0.32228,10.853,0.026992,0,0,0,0
414,0.32377,10.862,0.027026,0,0,0,0
414.5,0.32566,10.869,0.027321,0,0,0,0
415,0.32745,10.877,0.02742,0,0,0,0
415.5,0.32857,10.886,0.027551,0,0,0,0
416,0.33006,10.896,0.027553,0,0,0,0
416.5,0.33144,10.906,0.027849,0,0,0,0
417,0.33283,10.916,0.02798,0,0,0,0
417.5,0.33418,10.925,0.028112,0,0,0,0
418,0.33547,10.933,0.028242,0,0,0,0
418.5,0.33702,10.94,0.028342,0,0,0,0
419,0.33848,10.948,0.02867,0,0,0,0
419.5,0.33976,10.957,0.028571,0,0,0,0
420,0.34125,10.965,0.0288,0,0,0,0
420.5,0.34287,10.974,0.028473,0,0,0,0
421,0.34436,10.983,0.028833,0,0,0,0
421.5,0.34608,10.991,0.028998,0,0,0,0
422,0.34767,10.999,0.02903,0,0,0,0
422.5,0.34926,11.008,0.029261,0,0,0,0
423,0.35058,11.015,0.029492,0,0,0,0
423.5,0.35203,11.021,0.029688,0,0,0,0
424,0.35335,11.03,0.029819,0,0,0,0
424.5,0.35474,11.039,0.029885,0,0,0,0
425,0.35595,11.046,0.030147,0,0,0,0
425.5,0.35737,11.054,0.030114,0,0,0,0
426,0.359,11.064,0.030082,0,0,0,0
426.5,0.36011,11.075,0.030508,0,0,0,0
427,0.36153,11.083,0.030934,0,0,0,0
427.5,0.36312,11.091,0.030966,0,0,0,0
428,0.36471,11.1,0.031065,0,0,0,0
428.5,0.36637,11.109,0.031195,0,0,0,0
429,0.36806,11.116,0.03136,0,0,0,0
429.5,0.36982,11.124,0.03136,0,0,0,0
430,0.37147,11.132,0.031589,0,0,0,0
430.5,0.37276,11.141,0.031556,0,0,0,0
431,0.37421,11.149,0.03185,0,0,0,0
431.5,0.3761,11.157,0.032016,0,0,0,0
432,0.37759,11.165,0.032015,0,0,0,0
432.5,0.37871,11.173,0.032309,0,0,0,0
433,0.38026,11.182,0.032409,0,0,0,0
433.5,0.38185,11.19,0.03254,0,0,0,0
434,0.38347,11.198,0.032539,0,0,0,0
434.5,0.38523,11.203,0.032997,0,0,0,0
435,0.38669,11.211,0.03316,0,0,0,0
435.5,0.38878,11.218,0.033292,0,0,0,0
436,0.39088,11.226,0.033422,0,0,0,0
436.5,0.3927,11.235,0.033618,0,0,0,0
437,0.39439,11.243,0.033782,0,0,0,0
437.5,0.39619,11.252,0.033749,0,0,0,0
438,0.39774,11.26,0.034042,0,0,0,0
438.5,0.39899,11.268,0.034238,0,0,0,0
439,0.40058,11.276,0.034468,0,0,0,0
439.5,0.40193,11.283,0.034401,0,0,0,0
440,0.40338,11.29,0.034631,0,0,0,0
440.5,0.40534,11.298,0.034663,0,0,0,0
441,0.4071,11.305,0.034926,0,0,0,0
441.5,0.40852,11.312,0.035218,0,0,0,0
442,0.41035,11.321,0.035153,0,0,0,0
442.5,0.41214,11.33,0.035384,0,0,0,0
443,0.41383,11.338,0.035708,0,0,0,0
443.5,0.41576,11.347,0.036067,0,0,0,0
444,0.41711,11.355,0.036035,0,0,0,0
444.5,0.4188,11.362,0.036165,0,0,0,0
445,0.42036,11.368,0.03633,0,0,0,0
445.5,0.42161,11.375,0.036557,0,0,0,0
446,0.4231,11.383,0.036491,0,0,0,0
446.5,0.42485,11.392,0.03672,0,0,0,0
447,0.42651,11.401,0.036883,0,0,0,0
447.5,0.42773,11.409,0.037144,0,0,0,0
448,0.42945,11.415,0.037209,0,0,0,0
448.5,0.43121,11.421,0.037405,0,0,0,0
449,0.43344,11.427,0.037435,0,0,0,0
449.5,0.43503,11.434,0.037664,0,0,0,0
450,0.43709,11.443,0.037827,0,0,0,0
450.5,0.43875,11.452,0.037991,0,0,0,0
451,0.44013,11.46,0.038478,0,0,0,0
451.5,0.44209,11.466,0.038444,0,0,0,0
452,0.44382,11.472,0.038706,0,0,0,0
452.5,0.44558,11.478,0.038738,0,0,0,0
453,0.447,11.483,0.039031,0,0,0,0
453.5,0.44875,11.49,0.039258,0,0,0,0
454,0.45028,11.498,0.039356,0,0,0,0
454.5,0.45207,11.507,0.039616,0,0,0,0
455,0.45409,11.515,0.039844,0,0,0,0
455.5,0.45568,11.523,0.039876,0,0,0,0
456,0.45832,11.53,0.040006,0,0,0,0
456.5,0.45998,11.537,0.040267,0,0,0,0
457,0.46177,11.543,0.040299,0,0,0,0
457.5,0.46376,11.55,0.040461,0,0,0,0
458,0.46542,11.557,0.040915,0,0,0,0
458.5,0.46718,11.564,0.040558,0,0,0,0
459,0.4687,11.57,0.041044,0,0,0,0
459.5,0.47052,11.577,0.041077,0,0,0,0
460,0.47225,11.582,0.041499,0,0,0,0
460.5,0.47384,11.589,0.04179,0,0,0,0
461,0.47573,11.598,0.041856,0,0,0,0
461.5,0.47749,11.607,0.042177,0,0,0,0
462,0.47948,11.614,0.042503,0,0,0,0
462.5,0.48144,11.619,0.042535,0,0,0,0
463,0.48351,11.626,0.042828,0,0,0,0
463.5,0.48529,11.633,0.043084,0,0,0,0
464,0.48719,11.639,0.043085,0,0,0,0
464.5,0.48881,11.645,0.043539,0,0,0,0
465,0.49074,11.653,0.043668,0,0,0,0
465.5,0.49253,11.66,0.043668,0,0,0,0
466,0.49419,11.667,0.043831,0,0,0,0
466.5,0.49588,11.674,0.043799,0,0,0,0
467,0.49733,11.68,0.04425,0,0,0,0
467.5,0.49899,11.687,0.044349,0,0,0,0
468,0.50075,11.694,0.044575,0,0,0,0
468.5,0.50281,11.7,0.044832,0,0,0,0
469,0.50457,11.707,0.044898,0,0,0,0
469.5,0.50642,11.714,0.045285,0,0,0,0
470,0.50825,11.722,0.045608,0,0,0,0
470.5,0.51041,11.727,0.045576,0,0,0,0
471,0.51203,11.732,0.045866,0,0,0,0
471.5,0.51389,11.738,0.046155,0,0,0,0
472,0.51572,11.746,0.04651,0,0,0,0
472.5,0.51734,11.753,0.046705,0,0,0,0
473,0.5193,11.76,0.046962,0,0,0,0
473.5,0.52082,11.769,0.047156,0,0,0,0
474,0.52305,11.775,0.047382,0,0,0,0
474.5,0.52471,11.78,0.047509,0,0,0,0
475,0.52704,11.784,0.047671,0,0,0,0
475.5,0.52897,11.79,0.047833,0,0,0,0
476,0.53082,11.797,0.047897,0,0,0,0
476.5,0.53319,11.805,0.048122,0,0,0,0
477,0.53546,11.811,0.048381,0,0,0,0
477.5,0.53725,11.816,0.04851,0,0,0,0
478,0.5389,11.822,0.04851,0,0,0,0
478.5,0.5409,11.829,0.049121,0,0,0,0
479,0.54276,11.837,0.049088,0,0,0,0
479.5,0.54475,11.842,0.049666,0,0,0,0
480,0.54648,11.845,0.049859,0,0,0,0
480.5,0.54861,11.85,0.050309,0,0,0,0
481,0.5504,11.857,0.050245,0,0,0,0
481.5,0.55236,11.865,0.050695,0,0,0,0
482,0.55455,11.871,0.050983,0,0,0,0
482.5,0.55709,11.878,0.051241,0,0,0,0
483,0.55939,11.885,0.051626,0,0,0,0
483.5,0.56141,11.892,0.051819,0,0,0,0
484,0.56341,11.897,0.05185,0,0,0,0
484.5,0.5651,11.902,0.052202,0,0,0,0
485,0.56719,11.907,0.052396,0,0,0,0
485.5,0.56919,11.913,0.052588,0,0,0,0
486,0.57088,11.919,0.052651,0,0,0,0
486.5,0.57291,11.925,0.052876,0,0,0,0
487,0.57503,11.932,0.053101,0,0,0,0
487.5,0.5771,11.937,0.053486,0,0,0,0
488,0.57905,11.943,0.053454,0,0,0,0
488.5,0.58159,11.95,0.053966,0,0,0,0
489,0.58369,11.956,0.054064,0,0,0,0
489.5,0.58582,11.96,0.054447,0,0,0,0
490,0.58781,11.965,0.054831,0,0,0,0
490.5,0.5897,11.97,0.055342,0,0,0,0
491,0.59163,11.976,0.05563,0,0,0,0
491.5,0.59339,11.981,0.055758,0,0,0,0
492,0.59575,11.988,0.056045,0,0,0,0
492.5,0.59748,11.993,0.056397,0,0,0,0
493,0.59944,11.998,0.056714,0,0,0,0
493.5,0.60113,12.004,0.056907,0,0,0,0
494,0.60342,12.011,0.057002,0,0,0,0
494.5,0.60569,12.017,0.057224,0,0,0,0
495,0.60762,12.022,0.057513,0,0,0,0
495.5,0.61025,12.028,0.057545,0,0,0,0
496,0.61218,12.035,0.057896,0,0,0,0
496.5,0.61438,12.041,0.057992,0,0,0,0
497,0.6165,12.047,0.058565,0,0,0,0
497.5,0.6186,12.053,0.058564,0,0,0,0
498,0.62043,12.057,0.058979,0,0,0,0
498.5,0.62222,12.06,0.059458,0,0,0,0
499,0.62421,12.064,0.059616,0,0,0,0
499.5,0.62624,12.068,0.059903,0,0,0,0
500,0.6285,12.074,0.060413,0,0,0,0
500.5,0.63053,12.081,0.060698,0,0,0,0
501,0.63273,12.085,0.06108,0,0,0,0
501.5,0.63513,12.09,0.060954,0,0,0,0
502,0.6377,12.096,0.061335,0,0,0,0
502.5,0.63976,12.102,0.061811,0,0,0,0
503,0.64189,12.107,0.062034,0,0,0,0
503.5,0.64381,12.113,0.062224,0,0,0,0
504,0.6458,12.119,0.062383,0,0,0,0
504.5,0.648,12.124,0.062699,0,0,0,0
505,0.6502,12.129,0.062985,0,0,0,0
505.5,0.65236,12.133,0.063302,0,0,0,0
506,0.65439,12.138,0.063397,0,0,0,0
506.5,0.65659,12.144,0.063905,0,0,0,0
507,0.65909,12.15,0.064158,0,0,0,0
507.5,0.66155,12.154,0.064729,0,0,0,0
508,0.66409,12.158,0.064792,0,0,0,0
508.5,0.66625,12.162,0.065331,0,0,0,0
509,0.66858,12.168,0.065425,0,0,0,0
509.5,0.67041,12.174,0.065742,0,0,0,0
510,0.67281,12.178,0.066121,0,0,0,0
510.5,0.67463,12.183,0.066628,0,0,0,0
511,0.67693,12.187,0.066754,0,0,0,0
511.5,0.67886,12.191,0.06707,0,0,0,0
512,0.68136,12.197,0.067289,0,0,0,0
512.5,0.68339,12.203,0.067575,0,0,0,0
513,0.68585,12.208,0.068048,0,0,0,0
513.5,0.68832,12.21,0.068111,0,0,0,0
514,0.69059,12.215,0.068554,0,0,0,0
514.5,0.69292,12.221,0.068775,0,0,0,0
515,0.69539,12.226,0.068964,0,0,0,0
515.5,0.69741,12.231,0.0695,0,0,0,0
516,0.69995,12.236,0.069753,0,0,0,0
516.5,0.70194,12.241,0.070194,0,0,0,0
517,0.70421,12.245,0.070414,0,0,0,0
517.5,0.70627,12.248,0.070729,0,0,0,0
518,0.70846,12.253,0.071074,0,0,0,0
518.5,0.71107,12.258,0.071233,0,0,0,0
519,0.71296,12.262,0.071547,0,0,0,0
519.5,0.7158,12.266,0.071735,0,0,0,0
520,0.71827,12.271,0.072113,0,0,0,0
520.5,0.72083,12.274,0.072616,0,0,0,0
521,0.72296,12.277,0.072867,0,0,0,0
521.5,0.72522,12.282,0.073055,0,0,0,0
522,0.72739,12.289,0.073337,0,0,0,0
522.5,0.72965,12.296,0.073715,0,0,0,0
523,0.73188,12.3,0.074186,0,0,0,0
523.5,0.73412,12.303,0.07453,0,0,0,0
524,0.73617,12.307,0.075032,0,0,0,0
524.5,0.73857,12.31,0.075189,0,0,0,0
525,0.74108,12.313,0.075691,0,0,0,0
525.5,0.74354,12.318,0.076162,0,0,0,0
526,0.74601,12.324,0.076286,0,0,0,0
526.5,0.74837,12.328,0.076693,0,0,0,0
527,0.75087,12.329,0.076944,0,0,0,0
527.5,0.75314,12.332,0.077257,0,0,0,0
528,0.75568,12.337,0.077506,0,0,0,0
528.5,0.75767,12.341,0.077882,0,0,0,0
529,0.7599,12.345,0.078038,0,0,0,0
529.5,0.76213,12.348,0.078476,0,0,0,0
530,0.76433,12.352,0.078631,0,0,0,0
530.5,0.7668,12.358,0.078975,0,0,0,0
531,0.76909,12.364,0.079287,0,0,0,0
531.5,0.77169,12.368,0.079568,0,0,0,0
532,0.77443,12.371,0.080223,0,0,0,0
532.5,0.7768,12.374,0.080566,0,0,0,0
533,0.7796,12.378,0.081066,0,0,0,0
533.5,0.78193,12.382,0.081626,0,0,0,0
534,0.78406,12.385,0.08197,0,0,0,0
534.5,0.7865,12.387,0.082373,0,0,0,0
535,0.78849,12.391,0.082777,0,0,0,0
535.5,0.79099,12.394,0.082965,0,0,0,0
536,0.79359,12.397,0.083524,0,0,0,0
536.5,0.79596,12.401,0.083866,0,0,0,0
537,0.79839,12.405,0.084364,0,0,0,0
537.5,0.80099,12.408,0.084612,0,0,0,0
538,0.80336,12.41,0.085047,0,0,0,0
538.5,0.8062,12.413,0.08514,0,0,0,0
539,0.80856,12.418,0.085605,0,0,0,0
539.5,0.81117,12.424,0.08576,0,0,0,0
540,0.81336,12.428,0.086628,0,0,0,0
540.5,0.8159,12.431,0.086566,0,0,0,0
541,0.8184,12.433,0.087062,0,0,0,0
541.5,0.82083,12.435,0.087403,0,0,0,0
542,0.82296,12.438,0.087928,0,0,0,0
542.5,0.82539,12.441,0.088393,0,0,0,0
543,0.82823,12.445,0.088889,0,0,0,0
543.5,0.83093,12.449,0.089228,0,0,0,0
544,0.83364,12.452,0.089661,0,0,0,0
544.5,0.83617,12.453,0.090186,0,0,0,0
545,0.83898,12.455,0.090618,0,0,0,0
545.5,0.84128,12.459,0.09102,0,0,0,0
546,0.84398,12.462,0.091359,0,0,0,0
546.5,0.84644,12.466,0.091667,0,0,0,0
547,0.84878,12.471,0.092223,0,0,0,0
547.5,0.85121,12.475,0.092499,0,0,0,0
548,0.85367,12.479,0.092623,0,0,0,0
548.5,0.85594,12.481,0.093238,0,0,0,0
549,0.85902,12.483,0.093763,0,0,0,0
549.5,0.86192,12.483,0.093947,0,0,0,0
550,0.86469,12.486,0.094314,0,0,0,0
550.5,0.86757,12.49,0.094775,0,0,0,0
551,0.87014,12.494,0.095514,0,0,0,0
551.5,0.87274,12.497,0.096096,0,0,0,0
552,0.87514,12.5,0.096373,0,0,0,0
552.5,0.8773,12.503,0.096926,0,0,0,0
553,0.88021,12.506,0.097109,0,0,0,0
553.5,0.88274,12.511,0.097783,0,0,0,0
554,0.88548,12.512,0.098152,0,0,0,0
554.5,0.88825,12.512,0.098458,0,0,0,0
555,0.89116,12.515,0.099163,0,0,0,0
555.5,0.89379,12.519,0.099347,0,0,0,0
556,0.89659,12.521,0.10008,0,0,0,0
556.5,0.8994,12.522,0.1006,0,0,0,0
557,0.90183,12.524,0.10106,0,0,0,0
557.5,0.9044,12.528,0.10179,0,0,0,0
558,0.90731,12.532,0.10255,0,0,0,0
558.5,0.90981,12.534,0.10277,0,0,0,0
559,0.91214,12.535,0.10344,0,0,0,0
559.5,0.91505,12.537,0.1039,0,0,0,0
560,0.91734,12.54,0.10417,0,0,0,0
560.5,0.92056,12.543,0.10502,0,0,0,0
561,0.9237,12.548,0.1052,0,0,0,0
561.5,0.9263,12.551,0.10569,0,0,0,0
562,0.92927,12.55,0.10624,0,0,0,0
562.5,0.93181,12.549,0.10685,0,0,0,0
563,0.93427,12.55,0.10748,0,0,0,0
563.5,0.93708,12.553,0.10794,0,0,0,0
564,0.93985,12.555,0.10855,0,0,0,0
564.5,0.94229,12.556,0.10918,0,0,0,0
565,0.94472,12.558,0.10958,0,0,0,0
565.5,0.948,12.56,0.11036,0,0,0,0
566,0.9508,12.561,0.111,0,0,0,0
566.5,0.95374,12.562,0.11139,0,0,0,0
567,0.95668,12.565,0.11206,0,0,0,0
567.5,0.95915,12.567,0.11239,0,0,0,0
568,0.96229,12.569,0.1133,0,0,0,0
568.5,0.96517,12.571,0.11387,0,0,0,0
569,0.96773,12.573,0.11459,0,0,0,0
569.5,0.97033,12.574,0.11516,0,0,0,0
570,0.9729,12.574,0.11592,0,0,0,0
570.5,0.97571,12.576,0.11634,0,0,0,0
571,0.97865,12.578,0.11721,0,0,0,0
571.5,0.98155,12.579,0.11769,0,0,0,0
572,0.9848,12.579,0.11832,0,0,0,0
572.5,0.9874,12.58,0.11904,0,0,0,0
573,0.99041,12.582,0.11958,0,0,0,0
573.5,0.99311,12.584,0.12009,0,0,0,0
574,0.99592,12.585,0.12093,0,0,0,0
574.5,0.99872,12.586,0.12156,0,0,0,0
575,1.0013,12.589,0.12231,0,0,0,0
575.5,1.0044,12.591,0.12279,0,0,0,0
576,1.007,12.591,0.12356,0,0,0,0
576.5,1.0098,12.591,0.12401,0,0,0,0
577,1.0129,12.592,0.12473,0,0,0,0
577.5,1.0162,12.593,0.12532,0,0,0,0
578,1.0188,12.593,0.12592,0,0,0,0
578.5,1.0219,12.593,0.12646,0,0,0,0
579,1.0245,12.594,0.12729,0,0,0,0
579.5,1.0277,12.595,0.12792,0,0,0,0
580,1.0302,12.596,0.12857,0,0,0,0
580.5,1.0329,12.597,0.12919,0,0,0,0
581,1.036,12.599,0.13017,0,0,0,0
581.5,1.0384,12.6,0.13065,0,0,0,0
582,1.0417,12.601,0.13154,0,0,0,0
582.5,1.0445,12.601,0.13222,0,0,0,0
583,1.048,12.601,0.13287,0,0,0,0
583.5,1.0512,12.601,0.13367,0,0,0,0
584,1.0539,12.601,0.13447,0,0,0,0
584.5,1.0569,12.602,0.13506,0,0,0,0
585,1.0595,12.605,0.13582,0,0,0,0
585.5,1.0624,12.605,0.13683,0,0,0,0
586,1.0651,12.603,0.13736,0,0,0,0
586.5,1.0678,12.6,0.13815,0,0,0,0
587,1.0711,12.6,0.13901,0,0,0,0
587.5,1.0741,12.6,0.13971,0,0,0,0
588,1.0772,12.599,0.14074,0,0,0,0
588.5,1.0808,12.6,0.14162,0,0,0,0
589,1.0839,12.6,0.14227,0,0,0,0
589.5,1.0871,12.599,0.143,0,0,0,0
590,1.0898,12.599,0.14364,0,0,0,0
590.5,1.0929,12.601,0.14455,0,0,0,0
591,1.0959,12.6,0.1454,0,0,0,0
591.5,1.0985,12.599,0.14595,0,0,0,0
592,1.1018,12.597,0.14683,0,0,0,0
592.5,1.1046,12.598,0.1477,0,0,0,0
593,1.108,12.599,0.14852,0,0,0,0
593.5,1.1114,12.6,0.14931,0,0,0,0
594,1.1147,12.599,0.15024,0,0,0,0
594.5,1.1178,12.598,0.15085,0,0,0,0
595,1.121,12.597,0.15181,0,0,0,0
595.5,1.1239,12.595,0.15274,0,0,0,0
596,1.1267,12.594,0.15349,0,0,0,0
596.5,1.1295,12.594,0.15471,0,0,0,0
597,1.1331,12.594,0.1554,0,0,0,0
597.5,1.1361,12.592,0.15627,0,0,0,0
598,1.1392,12.591,0.15708,0,0,0,0
598.5,1.1427,12.591,0.15806,0,0,0,0
599,1.1461,12.59,0.15904,0,0,0,0
599.5,1.1496,12.587,0.15996,0,0,0,0
600,1.1528,12.584,0.16097,0,0,0,0
600.5,1.156,12.583,0.16189,0,0,0,0
601,1.1589,12.582,0.16278,0,0,0,0
601.5,1.1621,12.581,0.16364,0,0,0,0
602,1.1651,12.579,0.1647,0,0,0,0
602.5,1.1681,12.578,0.16574,0,0,0,0
603,1.1715,12.577,0.16662,0,0,0,0
603.5,1.175,12.575,0.16771,0,0,0,0
604,1.1785,12.573,0.16874,0,0,0,0
604.5,1.1816,12.57,0.16977,0,0,0,0
605,1.1849,12.566,0.17045,0,0,0,0
605.5,1.1885,12.563,0.17179,0,0,0,0
606,1.1916,12.563,0.1727,0,0,0,0
606.5,1.1948,12.563,0.17372,0,0,0,0
607,1.1978,12.562,0.1748,0,0,0,0
607.5,1.2009,12.56,0.17585,0,0,0,0
608,1.2041,12.556,0.17679,0,0,0,0
608.5,1.2077,12.553,0.17809,0,0,0,0
609,1.2109,12.552,0.17919,0,0,0,0
609.5,1.2148,12.55,0.18049,0,0,0,0
610,1.2183,12.546,0.18156,0,0,0,0
610.5,1.2211,12.54,0.183,0,0,0,0
611,1.2248,12.538,0.18412,0,0,0,0
611.5,1.2278,12.536,0.18522,0,0,0,0
612,1.231,12.532,0.18648,0,0,0,0
612.5,1.2341,12.527,0.18766,0,0,0,0
613,1.2375,12.525,0.18878,0,0,0,0
613.5,1.2413,12.523,0.18971,0,0,0,0
614,1.2449,12.519,0.19085,0,0,0,0
614.5,1.2483,12.515,0.19186,0,0,0,0
615,1.2518,12.514,0.19311,0,0,0,0
615.5,1.2552,12.511,0.19437,0,0,0,0
616,1.2588,12.507,0.19565,0,0,0,0
616.5,1.2619,12.503,0.19703,0,0,0,0
617,1.2652,12.501,0.19812,0,0,0,0
617.5,1.2684,12.496,0.19942,0,0,0,0
618,1.2719,12.491,0.20075,0,0,0,0
618.5,1.2756,12.485,0.20216,0,0,0,0
619,1.2792,12.48,0.20332,0,0,0,0
619.5,1.2829,12.476,0.20472,0,0,0,0
620,1.2866,12.472,0.20629,0,0,0,0
620.5,1.29,12.466,0.20764,0,0,0,0
621,1.2933,12.46,0.20876,0,0,0,0
621.5,1.2967,12.457,0.21027,0,0,0,0
622,1.3003,12.453,0.21175,0,0,0,0
622.5,1.3035,12.447,0.21325,0,0,0,0
623,1.3069,12.44,0.21484,0,0,0,0
623.5,1.3107,12.435,0.21634,0,0,0,0
624,1.3148,12.432,0.21789,0,0,0,0
624.5,1.3184,12.427,0.21928,0,0,0,0
625,1.3221,12.422,0.22063,0,0,0,0
625.5,1.3256,12.417,0.22207,0,0,0,0
626,1.329,12.41,0.22356,0,0,0,0
626.5,1.3326,12.402,0.22504,0,0,0,0
627,1.3362,12.397,0.2265,0,0,0,0
627.5,1.3396,12.392,0.22798,0,0,0,0
628,1.3432,12.388,0.22938,0,0,0,0
628.5,1.3471,12.382,0.2307,0,0,0,0
629,1.351,12.376,0.23169,0,0,0,0
629.5,1.3547,12.37,0.23343,0,0,0,0
630,1.3583,12.365,0.23472,0,0,0,0
630.5,1.3621,12.358,0.23611,0,0,0,0
631,1.3656,12.349,0.23771,0,0,0,0
631.5,1.3691,12.34,0.23909,0,0,0,0
632,1.3728,12.333,0.24071,0,0,0,0
632.5,1.3767,12.328,0.24257,0,0,0,0
633,1.3802,12.323,0.24379,0,0,0,0
633.5,1.3844,12.316,0.24533,0,0,0,0
634,1.3886,12.308,0.24679,0,0,0,0
634.5,1.3922,12.299,0.24855,0,0,0,0
635,1.3959,12.291,0.24995,0,0,0,0
635.5,1.3997,12.283,0.25161,0,0,0,0
636,1.4032,12.275,0.25355,0,0,0,0
636.5,1.4072,12.267,0.25531,0,0,0,0
637,1.4108,12.257,0.25688,0,0,0,0
637.5,1.4144,12.247,0.2585,0,0,0,0
638,1.4184,12.237,0.2604,0,0,0,0
638.5,1.4225,12.229,0.26197,0,0,0,0
639,1.4267,12.22,0.26342,0,0,0,0
639.5,1.4304,12.211,0.26545,0,0,0,0
640,1.4343,12.203,0.2669,0,0,0,0
640.5,1.4377,12.192,0.26882,0,0,0,0
641,1.4417,12.183,0.27042,0,0,0,0
641.5,1.4452,12.172,0.27202,0,0,0,0
642,1.4495,12.161,0.2739,0,0,0,0
642.5,1.4533,12.15,0.27572,0,0,0,0
643,1.4575,12.14,0.27724,0,0,0,0
643.5,1.4621,12.13,0.2789,0,0,0,0
644,1.4665,12.121,0.28095,0,0,0,0
644.5,1.4693,12.109,0.28279,0,0,0,0
645,1.4727,12.098,0.28462,0,0,0,0
645.5,1.4774,12.086,0.28633,0,0,0,0
646,1.4806,12.073,0.28823,0,0,0,0
646.5,1.4849,12.06,0.2899,0,0,0,0
647,1.4892,12.049,0.2921,0,0,0,0
647.5,1.493,12.036,0.29375,0,0,0,0
648,1.4976,12.023,0.29591,0,0,0,0
648.5,1.5014,12.01,0.29785,0,0,0,0
649,1.5055,12,0.29991,0,0,0,0
649.5,1.5096,11.988,0.30182,0,0,0,0
650,1.5136,11.972,0.30354,0,0,0,0
650.5,1.5174,11.954,0.30561,0,0,0,0
651,1.5216,11.939,0.30755,0,0,0,0
651.5,1.5258,11.924,0.30945,0,0,0,0
652,1.5303,11.908,0.31141,0,0,0,0
652.5,1.5346,11.891,0.31349,0,0,0,0
653,1.5398,11.872,0.31576,0,0,0,0