File: polyN_optimization/DP780_results/DATA/NT6_90_3.csv
Time[s],Displacement[mm],Force[kN],AxStrain_1,AxStrain_2,Thickness[mm],OuterWidth[mm],InnerWidth[mm]
0,0,-0.047864,0,0,1.5007,19.95,10.075
1,0.000506,0.0068672,-0.00010401,0,0,0,0
2,0.00091,0.079322,-7.6003e-05,0,0,0,0
3,0.001154,0.13527,-0.00025803,0,0,0,0
4,0.001278,0.18474,-2.3e-05,0,0,0,0
5,0.00148,0.23131,-0.00018002,0,0,0,0
6,0.001591,0.27541,-0.00012501,0,0,0,0
7,0.001876,0.317,-0.00014601,0,0,0,0
8,0.001986,0.36165,-7.7003e-05,0,0,0,0
9,0.001887,0.40758,0.00016099,0,0,0,0
10,0.002502,0.44849,3.1e-05,0,0,0,0
11,0.002659,0.48834,-4.1001e-05,0,0,0,0
12,0.002754,0.52856,3.8999e-05,0,0,0,0
13,0.00318,0.57175,0.00012999,0,0,0,0
14,0.003387,0.61023,0.00022797,0,0,0,0
15,0.00339,0.64819,6.0998e-05,0,0,0,0
16,0.003522,0.68691,0.00029396,0,0,0,0
17,0.003381,0.7261,3.3999e-05,0,0,0,0
18,0.003597,0.76767,4.3999e-05,0,0,0,0
19,0.003452,0.81097,-1.3e-05,0,0,0,0
20,0.003651,0.85005,9.0996e-05,0,0,0,0
21,0.00377,0.89207,7e-06,0,0,0,0
22,0.004057,0.9306,0.00017898,0,0,0,0
23,0.00424,0.97173,6.7998e-05,0,0,0,0
24,0.00449,1.0116,9.0996e-05,0,0,0,0
25,0.005021,1.0482,0.00012199,0,0,0,0
26,0.006066,1.09,0.00017598,0,0,0,0
27,0.006184,1.1295,8.4996e-05,0,0,0,0
28,0.006391,1.1695,-1e-05,0,0,0,0
29,0.00628,1.2053,4.6999e-05,0,0,0,0
30,0.006155,1.2429,-5.4001e-05,0,0,0,0
31,0.006209,1.2776,-0.00010101,0,0,0,0
32,0.006182,1.3155,-7.4003e-05,0,0,0,0
33,0.00625,1.3536,-0.00017201,0,0,0,0
34,0.006237,1.3877,3e-06,0,0,0,0
35,0.006585,1.4217,0.00015599,0,0,0,0
36,0.007089,1.4567,0.00023697,0,0,0,0
37,0.007603,1.4921,0.00018298,0,0,0,0
38,0.008188,1.5238,0.00055085,0,0,0,0
39,0.008432,1.5593,0.00040892,0,0,0,0
40,0.008294,1.5949,0.00025997,0,0,0,0
41,0.008362,1.6274,0.0004499,0,0,0,0
42,0.007849,1.6595,0.00022697,0,0,0,0
43,0.007772,1.6925,0.00020598,0,0,0,0
44,0.00787,1.7255,0.00014899,0,0,0,0
45,0.00803,1.7575,0.00026696,0,0,0,0
46,0.008328,1.7888,0.00042591,0,0,0,0
47,0.00888,1.8208,0.00020598,0,0,0,0
48,0.00949,1.8543,0.00040892,0,0,0,0
49,0.009876,1.887,0.00042991,0,0,0,0
50,0.010597,1.9188,0.00040292,0,0,0,0
51,0.010466,1.9479,0.00041591,0,0,0,0
52,0.010203,1.9803,0.00023997,0,0,0,0
53,0.009971,2.009,0.00012599,0,0,0,0
54,0.009603,2.0425,0.00021298,0,0,0,0
55,0.009621,2.0739,0.00018298,0,0,0,0
56,0.009767,2.1065,0.00022697,0,0,0,0
57,0.010164,2.1369,0.00019598,0,0,0,0
58,0.010747,2.1686,0.00028096,0,0,0,0
59,0.011191,2.1989,0.00038193,0,0,0,0
60,0.011722,2.2289,0.00033494,0,0,0,0
61,0.012299,2.2609,0.00050687,0,0,0,0
62,0.01203,2.2903,0.00035194,0,0,0,0
63,0.012045,2.3221,0.00047988,0,0,0,0
64,0.011489,2.3507,0.00037593,0,0,0,0
65,0.011558,2.3804,0.00032195,0,0,0,0
66,0.011296,2.4115,0.00045989,0,0,0,0
67,0.01137,2.4401,0.0004369,0,0,0,0
68,0.011851,2.4713,0.00059182,0,0,0,0
69,0.012552,2.501,0.00070075,0,0,0,0
70,0.013355,2.5305,0.00068377,0,0,0,0
71,0.013677,2.5595,0.0006368,0,0,0,0
72,0.014419,2.5882,0.00061281,0,0,0,0
73,0.014495,2.6175,0.00069776,0,0,0,0
74,0.014247,2.6456,0.00061381,0,0,0,0
75,0.013737,2.6749,0.00043091,0,0,0,0
76,0.013394,2.705,0.00028896,0,0,0,0
77,0.01323,2.734,0.00025597,0,0,0,0
78,0.0133,2.7641,0.00019098,0,0,0,0
79,0.013606,2.7946,0.00035994,0,0,0,0
80,0.0142,2.8225,0.00039792,0,0,0,0
81,0.015027,2.8495,0.00056684,0,0,0,0
82,0.015625,2.8792,0.00046189,0,0,0,0
83,0.016307,2.9098,0.00047489,0,0,0,0
84,0.016793,2.9378,0.00042091,0,0,0,0
85,0.016424,2.9654,0.0004579,0,0,0,0
86,0.016325,2.9934,0.0004579,0,0,0,0
87,0.015551,3.0219,0.00041791,0,0,0,0
88,0.015749,3.0527,0.00043091,0,0,0,0
89,0.015407,3.0804,0.00034294,0,0,0,0
90,0.01573,3.1076,0.00059982,0,0,0,0
91,0.016216,3.1385,0.00050887,0,0,0,0
92,0.016905,3.165,0.00068776,0,0,0,0
93,0.01752,3.1919,0.00074172,0,0,0,0
94,0.018327,3.2221,0.00079968,0,0,0,0
95,0.018377,3.2492,0.00087462,0,0,0,0
96,0.018377,3.2788,0.00076271,0,0,0,0
97,0.018244,3.308,0.00076671,0,0,0,0
98,0.017894,3.3365,0.00059182,0,0,0,0
99,0.017522,3.3652,0.00059182,0,0,0,0
100,0.017229,3.3935,0.00054785,0,0,0,0
101,0.017432,3.421,0.00048088,0,0,0,0
102,0.017585,3.4501,0.00050087,0,0,0,0
103,0.018339,3.4787,0.00056584,0,0,0,0
104,0.019178,3.5076,0.00071474,0,0,0,0
105,0.019868,3.5388,0.00062381,0,0,0,0
106,0.020278,3.5662,0.00054685,0,0,0,0
107,0.020457,3.5946,0.00059282,0,0,0,0
108,0.0205,3.6209,0.00073873,0,0,0,0
109,0.020081,3.6493,0.00038693,0,0,0,0
110,0.019906,3.6779,0.00046389,0,0,0,0
111,0.019313,3.7048,0.00034894,0,0,0,0
112,0.019276,3.7345,0.00047389,0,0,0,0
113,0.019385,3.7632,0.00038892,0,0,0,0
114,0.019878,3.7897,0.00051087,0,0,0,0
115,0.020569,3.8179,0.00069376,0,0,0,0
116,0.021229,3.8465,0.00064979,0,0,0,0
117,0.02167,3.8753,0.00070975,0,0,0,0
118,0.022181,3.9037,0.00092357,0,0,0,0
119,0.022335,3.9306,0.00068077,0,0,0,0
120,0.022384,3.9597,0.00061281,0,0,0,0
121,0.021919,3.9844,0.00068077,0,0,0,0
122,0.021788,4.0142,0.00071375,0,0,0,0
123,0.021434,4.0434,0.00057983,0,0,0,0
124,0.02171,4.0692,0.00061381,0,0,0,0
125,0.02195,4.0966,0.00068177,0,0,0,0
126,0.02263,4.1243,0.00074972,0,0,0,0
127,0.023346,4.1539,0.00068277,0,0,0,0
128,0.023382,4.1796,0.00081767,0,0,0,0
129,0.024095,4.2092,0.00098751,0,0,0,0
130,0.024301,4.2353,0.00088661,0,0,0,0
131,0.024644,4.2626,0.00075172,0,0,0,0
132,0.024478,4.2893,0.00071774,0,0,0,0
133,0.024144,4.3177,0.00065179,0,0,0,0
134,0.023946,4.3438,0.00058483,0,0,0,0
135,0.023918,4.3727,0.00058383,0,0,0,0
136,0.02389,4.4036,0.00054985,0,0,0,0
137,0.024505,4.4285,0.00054985,0,0,0,0
138,0.025153,4.452,0.00058383,0,0,0,0
139,0.0257,4.4801,0.00064979,0,0,0,0
140,0.026146,4.5088,0.00085364,0,0,0,0
141,0.026522,4.5389,0.0010884,0,0,0,0
142,0.026595,4.564,0.00095454,0,0,0,0
143,0.026703,4.5924,0.00081866,0,0,0,0
144,0.026607,4.62,0.00081866,0,0,0,0
145,0.026477,4.6475,0.00068277,0,0,0,0
146,0.026347,4.6712,0.00071674,0,0,0,0
147,0.026148,4.6988,0.00071674,0,0,0,0
148,0.026425,4.7258,0.00078469,0,0,0,0
149,0.026971,4.7524,0.00075072,0,0,0,0
150,0.027281,4.7815,0.0010554,0,0,0,0
151,0.027591,4.8072,0.0010225,0,0,0,0
152,0.028003,4.8338,0.0011583,0,0,0,0
153,0.028381,4.8613,0.0012252,0,0,0,0
154,0.028388,4.8891,0.0010914,0,0,0,0
155,0.028563,4.9159,0.00092357,0,0,0,0
156,0.028637,4.9421,0.00085663,0,0,0,0
157,0.028476,4.9704,0.00085663,0,0,0,0
158,0.028518,4.996,0.00075671,0,0,0,0
159,0.028627,5.0218,0.00072474,0,0,0,0
160,0.029107,5.0491,0.00079169,0,0,0,0
161,0.029553,5.0792,0.00082566,0,0,0,0
162,0.029796,5.102,0.0008946,0,0,0,0
163,0.030309,5.129,0.0010305,0,0,0,0
164,0.030519,5.1555,0.0011324,0,0,0,0
165,0.030626,5.1815,0.0011653,0,0,0,0
166,0.030767,5.2114,0.0010974,0,0,0,0
167,0.031075,5.2382,0.00085963,0,0,0,0
168,0.031048,5.2668,0.00096054,0,0,0,0
169,0.030919,5.2916,0.00085863,0,0,0,0
170,0.031128,5.3178,0.00079069,0,0,0,0
171,0.031101,5.3461,0.00082366,0,0,0,0
172,0.031548,5.3744,0.00092457,0,0,0,0
173,0.031893,5.4012,0.0011274,0,0,0,0
174,0.03234,5.4278,0.0011613,0,0,0,0
175,0.032822,5.4558,0.0012272,0,0,0,0
176,0.032763,5.4834,0.0013631,0,0,0,0
177,0.032939,5.5124,0.0011274,0,0,0,0
178,0.033252,5.5383,0.0010934,0,0,0,0
179,0.033597,5.5634,0.0011613,0,0,0,0
180,0.033809,5.5917,0.0010944,0,0,0,0
181,0.034018,5.617,0.0010275,0,0,0,0
182,0.034397,5.642,0.00095954,0,0,0,0
183,0.034539,5.667,0.0010614,0,0,0,0
184,0.034749,5.6953,0.0011304,0,0,0,0
185,0.035231,5.7229,0.0013002,0,0,0,0
186,0.035369,5.7508,0.001403,0,0,0,0
187,0.035614,5.7763,0.0013341,0,0,0,0
188,0.035652,5.8024,0.0015049,0,0,0,0
189,0.035795,5.8278,0.001405,0,0,0,0
190,0.036038,5.855,0.0012023,0,0,0,0
191,0.036146,5.8815,0.0012382,0,0,0,0
192,0.036729,5.9032,0.0011374,0,0,0,0
193,0.037141,5.9312,0.00096953,0,0,0,0
194,0.037724,5.9587,0.0011374,0,0,0,0
195,0.03787,5.9855,0.00093456,0,0,0,0
196,0.038048,6.0122,0.0011713,0,0,0,0
197,0.03809,6.0358,0.0012073,0,0,0,0
198,0.038026,6.0627,0.0017045,0,0,0,0
199,0.038376,6.0904,0.0015438,0,0,0,0
200,0.038758,6.1146,0.0015428,0,0,0,0
201,0.0387,6.1376,0.001408,0,0,0,0
202,0.039417,6.1642,0.0013731,0,0,0,0
203,0.040001,6.1911,0.0012372,0,0,0,0
204,0.040514,6.2199,0.0012702,0,0,0,0
205,0.041198,6.2445,0.0011344,0,0,0,0
206,0.041677,6.2695,0.0012672,0,0,0,0
207,0.041515,6.2945,0.001403,0,0,0,0
208,0.04193,6.3212,0.0015039,0,0,0,0
209,0.041296,6.3466,0.0016736,0,0,0,0
210,0.041302,6.3749,0.0017055,0,0,0,0
211,0.04182,6.3962,0.0019441,0,0,0,0
212,0.042505,6.4247,0.001977,0,0,0,0
213,0.042312,6.4498,0.0019092,0,0,0,0
214,0.042725,6.4766,0.0017415,0,0,0,0
215,0.043814,6.5003,0.0017425,0,0,0,0
216,0.043995,6.5242,0.0015408,0,0,0,0
217,0.04529,6.551,0.0015408,0,0,0,0
218,0.045065,6.5775,0.0016427,0,0,0,0
219,0.046596,6.6017,0.0018114,0,0,0,0
220,0.045188,6.6257,0.0018124,0,0,0,0
221,0.045064,6.6512,0.001983,0,0,0,0
222,0.044636,6.6782,0.0021856,0,0,0,0
223,0.045219,6.7029,0.0022884,0,0,0,0
224,0.045735,6.7264,0.0021557,0,0,0,0
225,0.046624,6.7535,0.0018882,0,0,0,0
226,0.047207,6.7763,0.0018513,0,0,0,0
227,0.048467,6.803,0.0016856,0,0,0,0
228,0.049085,6.8278,0.0015877,0,0,0,0
229,0.049535,6.8509,0.0017215,0,0,0,0
230,0.04978,6.8743,0.0017575,0,0,0,0
231,0.04935,6.9024,0.0017575,0,0,0,0
232,0.049697,6.9249,0.0020279,0,0,0,0
233,0.049298,6.9538,0.0019621,0,0,0,0
234,0.04941,6.9756,0.0023682,0,0,0,0
235,0.049925,6.9983,0.0022984,0,0,0,0
236,0.050442,7.0239,0.0021996,0,0,0,0
237,0.051163,7.0487,0.001997,0,0,0,0
238,0.052256,7.0729,0.0017595,0,0,0,0
239,0.053179,7.0977,0.0016916,0,0,0,0
240,0.053833,7.1217,0.0019271,0,0,0,0
241,0.054182,7.1496,0.0017914,0,0,0,0
242,0.054362,7.1703,0.0018583,0,0,0,0
243,0.054475,7.1951,0.0021617,0,0,0,0
244,0.054521,7.2217,0.0022634,0,0,0,0
245,0.054598,7.2443,0.0026335,0,0,0,0
246,0.05488,7.27,0.0025986,0,0,0,0
247,0.055263,7.2933,0.0025986,0,0,0,0
248,0.056323,7.3191,0.0023283,0,0,0,0
249,0.05718,7.3429,0.0023273,0,0,0,0
250,0.05827,7.3655,0.0022594,0,0,0,0
251,0.059025,7.3899,0.0021926,0,0,0,0
252,0.059575,7.4149,0.0022255,0,0,0,0
253,0.059955,7.4403,0.0022924,0,0,0,0
254,0.060101,7.4667,0.0024939,0,0,0,0
255,0.06018,7.4887,0.0026295,0,0,0,0
256,0.060358,7.512,0.0029337,0,0,0,0
257,0.060234,7.5384,0.0031341,0,0,0,0
258,0.060986,7.5605,0.0031341,0,0,0,0
259,0.062009,7.5841,0.0029995,0,0,0,0
260,0.062796,7.6078,0.0030673,0,0,0,0
261,0.063686,7.6311,0.0027313,0,0,0,0
262,0.064237,7.6566,0.0026305,0,0,0,0
263,0.064788,7.6795,0.0025966,0,0,0,0
264,0.065239,7.7057,0.0028001,0,0,0,0
265,0.065755,7.728,0.0029337,0,0,0,0
266,0.066002,7.7511,0.0032039,0,0,0,0
267,0.066586,7.7763,0.0032378,0,0,0,0
268,0.067138,7.799,0.0037101,0,0,0,0
269,0.067896,7.8213,0.0037779,0,0,0,0
270,0.068687,7.8442,0.003745,0,0,0,0
271,0.069376,7.8677,0.0035098,0,0,0,0
272,0.069826,7.892,0.0033085,0,0,0,0
273,0.070448,7.9148,0.0033793,0,0,0,0
274,0.070966,7.9393,0.0031441,0,0,0,0
275,0.071721,7.9603,0.0033813,0,0,0,0
276,0.072203,7.9842,0.0033813,0,0,0,0
277,0.073058,8.0059,0.0035846,0,0,0,0
278,0.073983,8.0265,0.0037539,0,0,0,0
279,0.075176,8.0518,0.0042271,0,0,0,0
280,0.075927,8.0741,0.0042958,0,0,0,0
281,0.076546,8.0966,0.0044302,0,0,0,0
282,0.077097,8.1192,0.0041295,0,0,0,0
283,0.077614,8.1449,0.0038287,0,0,0,0
284,0.077759,8.1684,0.0037599,0,0,0,0
285,0.07831,8.1903,0.003727,0,0,0,0
286,0.07886,8.2125,0.0036274,0,0,0,0
287,0.079647,8.236,0.0038605,0,0,0,0
288,0.08067,8.2596,0.0039651,0,0,0,0
289,0.081996,8.2844,0.0041992,0,0,0,0
290,0.083291,8.3024,0.0045705,0,0,0,0
291,0.084383,8.3238,0.0048413,0,0,0,0
292,0.085304,8.3453,0.0050771,0,0,0,0
293,0.085517,8.3693,0.0047756,0,0,0,0
294,0.085897,8.3919,0.0047079,0,0,0,0
295,0.086482,8.4171,0.004474,0,0,0,0
296,0.08673,8.437,0.0043047,0,0,0,0
297,0.087314,8.4592,0.0043734,0,0,0,0
298,0.08844,8.4836,0.0045078,0,0,0,0
299,0.089532,8.5049,0.004678,0,0,0,0
300,0.0913,8.5292,0.0050144,0,0,0,0
301,0.092529,8.5509,0.0054501,0,0,0,0
302,0.093552,8.5727,0.0056848,0,0,0,0
303,0.094508,8.593,0.0058856,0,0,0,0
304,0.09533,8.6137,0.0059214,0,0,0,0
305,0.095646,8.6363,0.0054849,0,0,0,0
306,0.096331,8.6593,0.0053855,0,0,0,0
307,0.097188,8.6822,0.0052492,0,0,0,0
308,0.098114,8.7046,0.0051825,0,0,0,0
309,0.099103,8.724,0.005283,0,0,0,0
310,0.10026,8.7463,0.0054849,0,0,0,0
311,0.10146,8.7694,0.005988,0,0,0,0
312,0.10235,8.7907,0.0062216,0,0,0,0
313,0.10343,8.8118,0.0066896,0,0,0,0
314,0.10425,8.833,0.0069587,0,0,0,0
315,0.10507,8.8566,0.0068932,0,0,0,0
316,0.10637,8.8769,0.0067591,0,0,0,0
317,0.10749,8.8999,0.0062564,0,0,0,0
318,0.10929,8.921,0.0061202,0,0,0,0
319,0.11055,8.9424,0.006154,0,0,0,0
320,0.11178,8.9639,0.0062166,0,0,0,0
321,0.11274,8.9835,0.0064531,0,0,0,0
322,0.11325,9.0034,0.0069538,0,0,0,0
323,0.11376,9.0271,0.0071891,0,0,0,0
324,0.11445,9.047,0.0079255,0,0,0,0
325,0.11537,9.0686,0.0080237,0,0,0,0
326,0.11673,9.0912,0.0079245,0,0,0,0
327,0.11839,9.1125,0.0076884,0,0,0,0
328,0.12043,9.1332,0.0075891,0,0,0,0
329,0.12172,9.1576,0.0072219,0,0,0,0
330,0.12328,9.1789,0.0074234,0,0,0,0
331,0.12424,9.1974,0.0074889,0,0,0,0
332,0.12515,9.2185,0.0076904,0,0,0,0
333,0.12624,9.2386,0.0082578,0,0,0,0
334,0.12679,9.2609,0.0086594,0,0,0,0
335,0.12808,9.2829,0.0090945,0,0,0,0
336,0.12917,9.302,0.0093284,0,0,0,0
337,0.13084,9.3253,0.0090935,0,0,0,0
338,0.1322,9.3455,0.0088606,0,0,0,0
339,0.13393,9.3652,0.008592,0,0,0,0
340,0.13512,9.3873,0.0085246,0,0,0,0
341,0.13617,9.4063,0.0084244,0,0,0,0
342,0.13743,9.4272,0.0086247,0,0,0,0
343,0.13869,9.4505,0.0090925,0,0,0,0
344,0.14005,9.4709,0.0094948,0,0,0,0
345,0.14154,9.4907,0.0099949,0,0,0,0
346,0.14337,9.511,0.010397,0,0,0,0
347,0.14527,9.5298,0.010731,0,0,0,0
348,0.14626,9.5534,0.010732,0,0,0,0
349,0.14729,9.5723,0.010566,0,0,0,0
350,0.14804,9.5928,0.0099652,0,0,0,0
351,0.14927,9.6121,0.0099652,0,0,0,0
352,0.15059,9.6358,0.0099988,0,0,0,0
353,0.15222,9.6552,0.010066,0,0,0,0
354,0.15412,9.6735,0.010534,0,0,0,0
355,0.15629,9.6959,0.011104,0,0,0,0
356,0.15826,9.7161,0.01174,0,0,0,0
357,0.16006,9.7372,0.012008,0,0,0,0
358,0.16152,9.7566,0.012343,0,0,0,0
359,0.16257,9.7746,0.012142,0,0,0,0
360,0.16393,9.7942,0.011743,0,0,0,0
361,0.16512,9.8184,0.011576,0,0,0,0
362,0.16631,9.8378,0.011545,0,0,0,0
363,0.16841,9.8556,0.011413,0,0,0,0
364,0.1699,9.878,0.011714,0,0,0,0
365,0.17153,9.8956,0.012047,0,0,0,0
366,0.17312,9.9169,0.012781,0,0,0,0
367,0.17451,9.9372,0.013182,0,0,0,0
368,0.176,9.9536,0.013682,0,0,0,0
369,0.17753,9.9736,0.013617,0,0,0,0
370,0.17936,9.9933,0.013488,0,0,0,0
371,0.18129,10.015,0.013421,0,0,0,0
372,0.18397,10.033,0.012989,0,0,0,0
373,0.1858,10.053,0.012921,0,0,0,0
374,0.18769,10.072,0.012923,0,0,0,0
375,0.18915,10.089,0.013223,0,0,0,0
376,0.19045,10.111,0.013789,0,0,0,0
377,0.1918,10.131,0.014254,0,0,0,0
378,0.19275,10.149,0.01472,0,0,0,0
379,0.19465,10.169,0.015155,0,0,0,0
380,0.19648,10.191,0.015188,0,0,0,0
381,0.19898,10.209,0.014958,0,0,0,0
382,0.20101,10.226,0.014924,0,0,0,0
383,0.20281,10.244,0.014492,0,0,0,0
384,0.20413,10.264,0.014527,0,0,0,0
385,0.20596,10.283,0.014559,0,0,0,0
386,0.20792,10.302,0.015057,0,0,0,0
387,0.20972,10.32,0.015554,0,0,0,0
388,0.21185,10.34,0.015953,0,0,0,0
389,0.21436,10.358,0.016484,0,0,0,0
390,0.21653,10.377,0.016816,0,0,0,0
391,0.21822,10.394,0.016817,0,0,0,0
392,0.21964,10.414,0.016848,0,0,0,0
393,0.22117,10.432,0.016614,0,0,0,0
394,0.22266,10.449,0.016408,0,0,0,0
395,0.22422,10.466,0.01655,0,0,0,0
396,0.22628,10.485,0.016811,0,0,0,0
397,0.2289,10.502,0.017069,0,0,0,0
398,0.2314,10.52,0.017569,0,0,0,0
399,0.2336,10.538,0.018199,0,0,0,0
400,0.23569,10.555,0.018531,0,0,0,0
401,0.23759,10.574,0.018795,0,0,0,0
402,0.23936,10.592,0.018796,0,0,0,0
403,0.24138,10.611,0.01873,0,0,0,0
404,0.24372,10.627,0.018696,0,0,0,0
405,0.24636,10.646,0.018761,0,0,0,0
406,0.2488,10.664,0.018793,0,0,0,0
407,0.2509,10.682,0.019092,0,0,0,0
408,0.25239,10.699,0.019487,0,0,0,0
409,0.25328,10.717,0.019719,0,0,0,0
410,0.25504,10.738,0.020249,0,0,0,0
411,0.2571,10.75,0.020546,0,0,0,0
412,0.2598,10.767,0.02091,0,0,0,0
413,0.26217,10.785,0.021073,0,0,0,0
414,0.26501,10.803,0.020942,0,0,0,0
415,0.26751,10.821,0.020877,0,0,0,0
416,0.26982,10.838,0.021141,0,0,0,0
417,0.27188,10.853,0.021305,0,0,0,0
418,0.27377,10.885,0.021669,0,0,0,0
419,0.27604,10.887,0.0219,0,0,0,0
420,0.27868,10.906,0.022264,0,0,0,0
421,0.28166,10.922,0.022528,0,0,0,0
422,0.28419,10.937,0.022825,0,0,0,0
423,0.28635,10.954,0.02332,0,0,0,0
424,0.28916,10.97,0.023321,0,0,0,0
425,0.29048,10.988,0.02332,0,0,0,0
426,0.29214,11.001,0.023551,0,0,0,0
427,0.29434,11.021,0.023781,0,0,0,0
428,0.29674,11.036,0.023881,0,0,0,0
429,0.29947,11.055,0.024308,0,0,0,0
430,0.30228,11.071,0.024539,0,0,0,0
431,0.30452,11.084,0.024672,0,0,0,0
432,0.30736,11.103,0.025167,0,0,0,0
433,0.30941,11.117,0.025263,0,0,0,0
434,0.31154,11.134,0.025759,0,0,0,0
435,0.31404,11.153,0.025792,0,0,0,0
436,0.31729,11.168,0.026219,0,0,0,0
437,0.31995,11.182,0.026187,0,0,0,0
438,0.3234,11.2,0.026581,0,0,0,0
439,0.3259,11.217,0.027008,0,0,0,0
440,0.32776,11.232,0.027139,0,0,0,0
441,0.33023,11.247,0.027338,0,0,0,0
442,0.33243,11.266,0.027699,0,0,0,0
443,0.33421,11.279,0.027961,0,0,0,0
444,0.33743,11.296,0.028259,0,0,0,0
445,0.3405,11.312,0.028358,0,0,0,0
446,0.34321,11.327,0.028653,0,0,0,0
447,0.34561,11.34,0.02898,0,0,0,0
448,0.34757,11.355,0.029242,0,0,0,0
449,0.3499,11.372,0.029668,0,0,0,0
450,0.35274,11.394,0.0298,0,0,0,0
451,0.35558,11.403,0.030193,0,0,0,0
452,0.35902,11.418,0.030292,0,0,0,0
453,0.36213,11.429,0.03062,0,0,0,0
454,0.36511,11.447,0.030881,0,0,0,0
455,0.36799,11.461,0.031078,0,0,0,0
456,0.37034,11.475,0.031471,0,0,0,0
457,0.37224,11.492,0.031667,0,0,0,0
458,0.37534,11.506,0.032061,0,0,0,0
459,0.37839,11.521,0.032518,0,0,0,0
460,0.3817,11.535,0.032615,0,0,0,0
461,0.38481,11.549,0.032941,0,0,0,0
462,0.38731,11.564,0.0334,0,0,0,0
463,0.38944,11.577,0.033564,0,0,0,0
464,0.39187,11.59,0.033696,0,0,0,0
465,0.39477,11.603,0.034054,0,0,0,0
466,0.39727,11.621,0.034445,0,0,0,0
467,0.40035,11.635,0.034772,0,0,0,0
468,0.40373,11.649,0.034936,0,0,0,0
469,0.40693,11.666,0.035491,0,0,0,0
470,0.40957,11.68,0.035816,0,0,0,0
471,0.41241,11.693,0.036045,0,0,0,0
472,0.41511,11.706,0.036175,0,0,0,0
473,0.41799,11.718,0.036565,0,0,0,0
474,0.42136,11.73,0.036891,0,0,0,0
475,0.42545,11.745,0.037283,0,0,0,0
476,0.42842,11.76,0.037673,0,0,0,0
477,0.43133,11.775,0.038129,0,0,0,0
478,0.4342,11.789,0.038649,0,0,0,0
479,0.43707,11.801,0.038942,0,0,0,0
480,0.43971,11.813,0.039169,0,0,0,0
481,0.44288,11.827,0.039461,0,0,0,0
482,0.44691,11.838,0.039493,0,0,0,0
483,0.45015,11.854,0.039946,0,0,0,0
484,0.45292,11.867,0.040175,0,0,0,0
485,0.45592,11.878,0.040531,0,0,0,0
486,0.45846,11.892,0.040954,0,0,0,0
487,0.46119,11.906,0.041602,0,0,0,0
488,0.46433,11.918,0.04225,0,0,0,0
489,0.46822,11.931,0.042768,0,0,0,0
490,0.4718,11.942,0.042898,0,0,0,0
491,0.47494,11.955,0.043254,0,0,0,0
492,0.47788,11.968,0.043124,0,0,0,0
493,0.48092,11.979,0.043576,0,0,0,0
494,0.48396,11.994,0.04377,0,0,0,0
495,0.48727,12.006,0.044255,0,0,0,0
496,0.49102,12.018,0.044707,0,0,0,0
497,0.49528,12.03,0.045384,0,0,0,0
498,0.49829,12.041,0.045965,0,0,0,0
499,0.50176,12.053,0.046642,0,0,0,0
500,0.50481,12.064,0.047063,0,0,0,0
501,0.50825,12.077,0.047384,0,0,0,0
502,0.51145,12.09,0.047579,0,0,0,0
503,0.51544,12.104,0.047868,0,0,0,0
504,0.51912,12.115,0.047996,0,0,0,0
505,0.5227,12.127,0.048543,0,0,0,0
506,0.52598,12.138,0.048864,0,0,0,0
507,0.52855,12.148,0.049572,0,0,0,0
508,0.53192,12.159,0.050181,0,0,0,0
509,0.53564,12.171,0.050889,0,0,0,0
510,0.53912,12.184,0.051434,0,0,0,0
511,0.54317,12.194,0.051722,0,0,0,0
512,0.54675,12.205,0.051883,0,0,0,0
513,0.55006,12.218,0.052235,0,0,0,0
514,0.55337,12.23,0.052684,0,0,0,0
515,0.55671,12.24,0.052973,0,0,0,0
516,0.5604,12.249,0.053582,0,0,0,0
517,0.56475,12.26,0.054125,0,0,0,0
518,0.56887,12.273,0.054957,0,0,0,0
519,0.57266,12.286,0.055563,0,0,0,0
520,0.57613,12.296,0.056074,0,0,0,0
521,0.57978,12.305,0.056329,0,0,0,0
522,0.58316,12.313,0.056681,0,0,0,0
523,0.58721,12.325,0.057384,0,0,0,0
524,0.59177,12.335,0.05767,0,0,0,0
525,0.59586,12.342,0.058022,0,0,0,0
526,0.59964,12.355,0.058787,0,0,0,0
527,0.60329,12.366,0.059487,0,0,0,0
528,0.60673,12.376,0.059933,0,0,0,0
529,0.61041,12.386,0.060728,0,0,0,0
530,0.61433,12.393,0.061268,0,0,0,0
531,0.61899,12.402,0.061649,0,0,0,0
532,0.62267,12.413,0.06203,0,0,0,0
533,0.62659,12.422,0.062506,0,0,0,0
534,0.62973,12.432,0.063045,0,0,0,0
535,0.63337,12.439,0.06368,0,0,0,0
536,0.63709,12.448,0.064346,0,0,0,0
537,0.64151,12.457,0.065106,0,0,0,0
538,0.6457,12.464,0.065834,0,0,0,0
539,0.64968,12.474,0.066529,0,0,0,0
540,0.65323,12.484,0.066972,0,0,0,0
541,0.65691,12.494,0.067319,0,0,0,0
542,0.6611,12.506,0.067698,0,0,0,0
543,0.66529,12.514,0.068392,0,0,0,0
544,0.66954,12.524,0.069087,0,0,0,0
545,0.67396,12.531,0.069686,0,0,0,0
546,0.67825,12.54,0.070441,0,0,0,0
547,0.68197,12.545,0.071133,0,0,0,0
548,0.68588,12.554,0.071951,0,0,0,0
549,0.68963,12.561,0.072611,0,0,0,0
550,0.69439,12.571,0.073114,0,0,0,0
551,0.69936,12.578,0.073742,0,0,0,0
552,0.70371,12.588,0.074087,0,0,0,0
553,0.70766,12.595,0.07484,0,0,0,0
554,0.71148,12.603,0.07556,0,0,0,0
555,0.71573,12.615,0.076343,0,0,0,0
556,0.72015,12.621,0.077064,0,0,0,0
557,0.72536,12.628,0.077939,0,0,0,0
558,0.72991,12.637,0.078408,0,0,0,0
559,0.73417,12.642,0.079251,0,0,0,0
560,0.73802,12.652,0.079782,0,0,0,0
561,0.7421,12.656,0.080498,0,0,0,0
562,0.74643,12.661,0.081278,0,0,0,0
563,0.75159,12.668,0.082056,0,0,0,0
564,0.75622,12.677,0.08299,0,0,0,0
565,0.76088,12.681,0.083767,0,0,0,0
566,0.76483,12.687,0.084637,0,0,0,0
567,0.76888,12.692,0.08532,0,0,0,0
568,0.77297,12.698,0.086251,0,0,0,0
569,0.77793,12.705,0.08684,0,0,0,0
570,0.78269,12.711,0.087769,0,0,0,0
571,0.78736,12.717,0.088666,0,0,0,0
572,0.79151,12.724,0.089625,0,0,0,0
573,0.79566,12.729,0.090583,0,0,0,0
574,0.79974,12.737,0.091415,0,0,0,0
575,0.80444,12.742,0.09234,0,0,0,0
576,0.80961,12.746,0.093172,0,0,0,0
577,0.81454,12.751,0.094035,0,0,0,0
578,0.81886,12.756,0.094742,0,0,0,0
579,0.82335,12.761,0.095603,0,0,0,0
580,0.82727,12.765,0.096524,0,0,0,0
581,0.83196,12.771,0.097352,0,0,0,0
582,0.83744,12.775,0.098517,0,0,0,0
583,0.84237,12.781,0.099588,0,0,0,0
584,0.84709,12.783,0.10057,0,0,0,0
585,0.85152,12.789,0.10136,0,0,0,0
586,0.85611,12.793,0.10243,0,0,0,0
587,0.86074,12.796,0.10335,0,0,0,0
588,0.8657,12.801,0.10429,0,0,0,0
589,0.87121,12.806,0.10493,0,0,0,0
590,0.87621,12.81,0.10615,0,0,0,0
591,0.88087,12.812,0.10733,0,0,0,0
592,0.88532,12.815,0.10833,0,0,0,0
593,0.88992,12.819,0.10942,0,0,0,0
594,0.89535,12.822,0.11036,0,0,0,0
595,0.90083,12.825,0.11145,0,0,0,0
596,0.90623,12.826,0.11266,0,0,0,0
597,0.91079,12.83,0.1139,0,0,0,0
598,0.91541,12.837,0.11508,0,0,0,0
599,0.92018,12.838,0.11637,0,0,0,0
600,0.92578,12.84,0.1176,0,0,0,0
601,0.93146,12.844,0.11896,0,0,0,0
602,0.93666,12.844,0.12013,0,0,0,0
603,0.94173,12.847,0.12118,0,0,0,0
604,0.94649,12.848,0.12237,0,0,0,0
605,0.95128,12.847,0.12369,0,0,0,0
606,0.95652,12.848,0.12491,0,0,0,0
607,0.96249,12.849,0.12647,0,0,0,0
608,0.96786,12.849,0.12798,0,0,0,0
609,0.97327,12.85,0.12953,0,0,0,0
610,0.97786,12.85,0.13096,0,0,0,0
611,0.98266,12.852,0.13241,0,0,0,0
612,0.9883,12.852,0.13404,0,0,0,0
613,0.99431,12.849,0.13551,0,0,0,0
614,0.99975,12.848,0.13705,0,0,0,0
615,1.0047,12.849,0.13846,0,0,0,0
616,1.0098,12.849,0.14008,0,0,0,0
617,1.0149,12.849,0.14158,0,0,0,0
618,1.0208,12.849,0.14296,0,0,0,0
619,1.0267,12.847,0.14481,0,0,0,0
620,1.0327,12.848,0.14656,0,0,0,0
621,1.0376,12.844,0.14823,0,0,0,0
622,1.0426,12.844,0.15021,0,0,0,0
623,1.0483,12.842,0.15198,0,0,0,0
624,1.0542,12.837,0.15378,0,0,0,0
625,1.0605,12.833,0.15552,0,0,0,0
626,1.0659,12.83,0.15758,0,0,0,0
627,1.0713,12.828,0.15934,0,0,0,0
628,1.0764,12.828,0.16141,0,0,0,0
629,1.0821,12.819,0.16363,0,0,0,0
630,1.0882,12.817,0.16573,0,0,0,0
631,1.0948,12.813,0.16759,0,0,0,0
632,1.1006,12.81,0.16965,0,0,0,0
633,1.1059,12.805,0.17184,0,0,0,0
634,1.1115,12.799,0.17392,0,0,0,0
635,1.1175,12.793,0.17611,0,0,0,0
636,1.1241,12.788,0.1783,0,0,0,0
637,1.1303,12.781,0.18056,0,0,0,0
638,1.1362,12.774,0.18285,0,0,0,0
639,1.1416,12.765,0.1853,0,0,0,0
640,1.1476,12.759,0.1878,0,0,0,0
641,1.1541,12.752,0.18999,0,0,0,0
642,1.1607,12.744,0.19242,0,0,0,0
643,1.1666,12.733,0.19493,0,0,0,0
644,1.1722,12.727,0.1973,0,0,0,0
645,1.1782,12.715,0.19986,0,0,0,0
646,1.1847,12.706,0.2024,0,0,0,0
647,1.1916,12.696,0.20484,0,0,0,0
648,1.1982,12.688,0.20738,0,0,0,0
649,1.2039,12.675,0.21026,0,0,0,0
650,1.2098,12.664,0.21298,0,0,0,0
651,1.2159,12.652,0.21582,0,0,0,0
652,1.2233,12.639,0.21844,0,0,0,0
653,1.2301,12.626,0.22138,0,0,0,0
654,1.2365,12.615,0.22431,0,0,0,0
655,1.2423,12.602,0.22691,0,0,0,0
656,1.2485,12.585,0.23005,0,0,0,0
657,1.2552,12.569,0.23309,0,0,0,0
658,1.2629,12.555,0.23618,0,0,0,0
659,1.2695,12.538,0.2392,0,0,0,0
660,1.2756,12.522,0.24206,0,0,0,0
661,1.2819,12.507,0.24526,0,0,0,0
662,1.2888,12.486,0.24844,0,0,0,0
663,1.2962,12.465,0.25185,0,0,0,0
664,1.3035,12.447,0.2553,0,0,0,0
665,1.3098,12.43,0.25874,0,0,0,0
666,1.3163,12.409,0.26217,0,0,0,0
667,1.3233,12.388,0.26561,0,0,0,0
668,1.3309,12.368,0.26933,0,0,0,0
669,1.3386,12.341,0.27283,0,0,0,0
670,1.3453,12.316,0.27617,0,0,0,0
671,1.3518,12.291,0.2797,0,0,0,0
672,1.359,12.266,0.28367,0,0,0,0
673,1.3671,12.235,0.2876,0,0,0,0
674,1.375,12.206,0.29151,0,0,0,0
675,1.3824,12.168,0.29554,0,0,0,0
675.5,1.3869,12.124,0.29825,0,0,0,0