File: polyN_optimization/DP780_results/DATA/NT6_00_3.csv
Time[s],Displacement[mm],Force[kN],AxStrain_1,AxStrain_2,Thickness[mm],OuterWidth[mm],InnerWidth[mm]
0,0,-0.035047,0,0,1.4952,19.967,10.083
0.5,-0.000193,-0.0037254,0.00015899,0,0,0,0
1,0.000178,0.028439,9.5995e-05,0,0,0,0
1.5,0.00037,0.063651,0.00016499,0,0,0,0
2,0.000554,0.09499,3.1e-05,0,0,0,0
2.5,0.000551,0.12379,-8.4004e-05,0,0,0,0
3,0.000538,0.15193,0.00017199,0,0,0,0
3.5,0.000852,0.17731,0.00021298,0,0,0,0
4,0.001227,0.20067,0.00019398,0,0,0,0
4.5,0.00079,0.22153,-6.0002e-05,0,0,0,0
5,0.001009,0.24352,-3.6001e-05,0,0,0,0
5.5,0.000952,0.2655,-3e-05,0,0,0,0
6,0.000868,0.28659,-3.2001e-05,0,0,0,0
6.5,0.001036,0.3072,-2.5e-05,0,0,0,0
7,0.000983,0.32758,2.7e-05,0,0,0,0
7.5,0.001264,0.34948,-1e-06,0,0,0,0
8,0.001202,0.37179,-4.8001e-05,0,0,0,0
8.5,0.001126,0.39571,0.00018598,0,0,0,0
9,0.001322,0.41733,0.00014899,0,0,0,0
9.5,0.001426,0.43889,-3.9001e-05,0,0,0,0
10,0.001429,0.45938,0.00027196,0,0,0,0
10.5,0.001564,0.48057,0.00015699,0,0,0,0
11,0.001776,0.50109,0.00039792,0,0,0,0
11.5,0.001871,0.52227,0.00015699,0,0,0,0
12,0.002079,0.54357,2e-05,0,0,0,0
12.5,0.002187,0.56306,0.00018298,0,0,0,0
13,0.001873,0.58187,-0.00012501,0,0,0,0
13.5,0.002221,0.60193,0.00012199,0,0,0,0
14,0.002366,0.62403,0.00010099,0,0,0,0
14.5,0.002289,0.6451,-2.7e-05,0,0,0,0
15,0.002204,0.66436,0.00012799,0,0,0,0
15.5,0.002431,0.68303,-7.1003e-05,0,0,0,0
16,0.002461,0.70319,3.6999e-05,0,0,0,0
16.5,0.002211,0.72358,0.00020298,0,0,0,0
17,0.00236,0.74343,3.6999e-05,0,0,0,0
17.5,0.002444,0.76349,0.00013199,0,0,0,0
18,0.002468,0.78398,-0.00016201,0,0,0,0
18.5,0.002434,0.80472,0.00014899,0,0,0,0
19,0.002583,0.82557,-2.7e-05,0,0,0,0
19.5,0.002522,0.84641,7e-06,0,0,0,0
20,0.002776,0.86623,-0.00022002,0,0,0,0
20.5,0.002776,0.88468,9.0996e-05,0,0,0,0
21,0.002776,0.90304,-7.8003e-05,0,0,0,0
21.5,0.003293,0.92161,0.00015599,0,0,0,0
22,0.003235,0.942,0.00018298,0,0,0,0
22.5,0.003678,0.96181,3.3999e-05,0,0,0,0
23,0.003736,0.9813,0.00020998,0,0,0,0
23.5,0.003908,1.0001,0.00016899,0,0,0,0
24,0.004513,1.0186,0.00025697,0,0,0,0
24.5,0.003732,1.0353,0.00028396,0,0,0,0
25,0.003638,1.0521,0.00028696,0,0,0,0
25.5,0.003307,1.0717,0.00021598,0,0,0,0
26,0.004162,1.0909,0.00026996,0,0,0,0
26.5,0.003783,1.1097,0.00024697,0,0,0,0
27,0.003912,1.1281,-4.4001e-05,0,0,0,0
27.5,0.004304,1.1474,-1.3e-05,0,0,0,0
28,0.003936,1.1655,0.00022298,0,0,0,0
28.5,0.004064,1.1828,0.00011499,0,0,0,0
29,0.004352,1.2005,3.6999e-05,0,0,0,0
29.5,0.004288,1.2185,6.7998e-05,0,0,0,0
30,0.004531,1.237,2.4e-05,0,0,0,0
30.5,0.004555,1.2541,0.00022298,0,0,0,0
31,0.004318,1.2718,0.00026397,0,0,0,0
31.5,0.00466,1.2876,0.00030795,0,0,0,0
32,0.005028,1.3034,0.00037493,0,0,0,0
32.5,0.004785,1.3203,0.00021998,0,0,0,0
33,0.005069,1.3382,0.00053086,0,0,0,0
33.5,0.005451,1.3552,0.00029096,0,0,0,0
34,0.005424,1.3731,0.00072973,0,0,0,0
34.5,0.005164,1.3914,0.00031095,0,0,0,0
35,0.006067,1.4078,0.00017898,0,0,0,0
35.5,0.005854,1.4267,0.00028696,0,0,0,0
36,0.005655,1.4443,0.0004359,0,0,0,0
36.5,0.00552,1.4611,0.00054385,0,0,0,0
37,0.005726,1.476,0.00037493,0,0,0,0
37.5,0.005595,1.4925,0.00027396,0,0,0,0
38,0.005875,1.5086,0.00024997,0,0,0,0
38.5,0.005585,1.5245,0.00017598,0,0,0,0
39,0.00571,1.5401,0.00031095,0,0,0,0
39.5,0.00547,1.5555,0.00042291,0,0,0,0
40,0.005511,1.5729,0.00012499,0,0,0,0
40.5,0.005603,1.5896,0.00028396,0,0,0,0
41,0.005914,1.607,0.00016299,0,0,0,0
41.5,0.005992,1.6235,0.00035194,0,0,0,0
42,0.006475,1.6385,0.00051787,0,0,0,0
42.5,0.006364,1.6538,0.00037893,0,0,0,0
43,0.006729,1.671,0.00060482,0,0,0,0
43.5,0.006895,1.689,0.00051387,0,0,0,0
44,0.007345,1.7064,0.00055085,0,0,0,0
44.5,0.00725,1.7232,0.00054385,0,0,0,0
45,0.007274,1.7384,0.00032795,0,0,0,0
45.5,0.007379,1.7529,0.00049688,0,0,0,0
46,0.007413,1.7673,0.00048688,0,0,0,0
46.5,0.007268,1.7821,0.00034194,0,0,0,0
47,0.007231,1.7986,0.00035894,0,0,0,0
47.5,0.007053,1.8158,0.00040592,0,0,0,0
48,0.007222,1.8319,0.00034794,0,0,0,0
48.5,0.00728,1.8467,0.00035194,0,0,0,0
49,0.007128,1.8628,0.00040592,0,0,0,0
49.5,0.007159,1.8779,0.00014599,0,0,0,0
50,0.00722,1.8931,0.00023697,0,0,0,0
50.5,0.007213,1.9083,0.00046689,0,0,0,0
51,0.007403,1.9232,0.00015599,0,0,0,0
51.5,0.00721,1.9379,0.00018298,0,0,0,0
52,0.007687,1.9528,0.00040592,0,0,0,0
52.5,0.007941,1.9694,0.00034494,0,0,0,0
53,0.008202,1.9851,0.00030495,0,0,0,0
53.5,0.008533,2.0022,0.00042591,0,0,0,0
54,0.008767,2.0172,0.00045989,0,0,0,0
54.5,0.009068,2.0328,0.00069276,0,0,0,0
55,0.009069,2.0477,0.0004369,0,0,0,0
55.5,0.0094,2.063,0.00040292,0,0,0,0
56,0.009208,2.0772,0.00030095,0,0,0,0
56.5,0.008914,2.0922,0.00054185,0,0,0,0
57,0.009205,2.1081,0.00031095,0,0,0,0
57.5,0.009044,2.1235,0.00061581,0,0,0,0
58,0.009071,2.139,0.00036193,0,0,0,0
58.5,0.008774,2.1544,0.00023997,0,0,0,0
59,0.008693,2.1698,0.00032195,0,0,0,0
59.5,0.008593,2.1845,0.00033894,0,0,0,0
60,0.008512,2.1996,0.00024797,0,0,0,0
60.5,0.008962,2.2143,0.00039992,0,0,0,0
61,0.008868,2.2292,0.00013299,0,0,0,0
61.5,0.008861,2.2451,0.00035194,0,0,0,0
62,0.009169,2.2621,0.00028496,0,0,0,0
62.5,0.009285,2.2789,0.00017698,0,0,0,0
63,0.009684,2.2937,0.0004439,0,0,0,0
63.5,0.009918,2.3084,0.00057883,0,0,0,0
64,0.010101,2.3227,0.00051787,0,0,0,0
64.5,0.010429,2.3363,0.00069976,0,0,0,0
65,0.010663,2.3508,0.00065578,0,0,0,0
65.5,0.010643,2.367,0.0004469,0,0,0,0
66,0.010915,2.3826,0.0004439,0,0,0,0
66.5,0.010885,2.3971,0.00017998,0,0,0,0
67,0.010611,2.4128,0.00055884,0,0,0,0
67.5,0.010669,2.4264,0.00037593,0,0,0,0
68,0.010795,2.4407,0.00036893,0,0,0,0
68.5,0.010441,2.4555,0.0004439,0,0,0,0
69,0.010407,2.47,0.00050087,0,0,0,0
69.5,0.010374,2.4833,0.00032595,0,0,0,0
70,0.010155,2.4978,0.00017998,0,0,0,0
70.5,0.010271,2.5134,0.00040692,0,0,0,0
71,0.010204,2.5289,0.00032195,0,0,0,0
71.5,0.010488,2.5441,0.00023797,0,0,0,0
72,0.010854,2.5585,0.00017398,0,0,0,0
72.5,0.010987,2.5728,8.5996e-05,0,0,0,0
73,0.011139,2.5872,0.00031995,0,0,0,0
73.5,0.011657,2.6022,0.00054885,0,0,0,0
74,0.011961,2.6171,0.00047489,0,0,0,0
74.5,0.012253,2.6319,0.00047789,0,0,0,0
75,0.012105,2.647,0.00065678,0,0,0,0
75.5,0.012443,2.6629,0.00053885,0,0,0,0
76,0.012688,2.6782,0.00070375,0,0,0,0
76.5,0.012786,2.6915,0.00061281,0,0,0,0
77,0.012621,2.7051,0.00052186,0,0,0,0
77.5,0.012548,2.7191,0.00060582,0,0,0,0
78,0.012566,2.7332,0.00050487,0,0,0,0
78.5,0.012198,2.7467,0.00054885,0,0,0,0
79,0.011934,2.7603,0.00030595,0,0,0,0
79.5,0.011908,2.7743,0.00034994,0,0,0,0
80,0.011858,2.7884,0.00031595,0,0,0,0
80.5,0.01194,2.803,0.00046489,0,0,0,0
81,0.012089,2.8182,0.00027196,0,0,0,0
81.5,0.011955,2.8326,0.00035594,0,0,0,0
82,0.012145,2.8469,0.00022098,0,0,0,0
82.5,0.012413,2.861,0.00028496,0,0,0,0
83,0.012697,2.876,0.00036693,0,0,0,0
83.5,0.012702,2.8905,0.00038992,0,0,0,0
84,0.013274,2.907,0.00047789,0,0,0,0
84.5,0.013589,2.9209,0.00038992,0,0,0,0
85,0.013813,2.9336,0.00034294,0,0,0,0
85.5,0.014009,2.9459,0.0004449,0,0,0,0
86,0.014162,2.9605,0.0004479,0,0,0,0
86.5,0.014595,2.9748,0.00036293,0,0,0,0
87,0.014461,2.9882,0.00054185,0,0,0,0
87.5,0.014401,3.0004,0.00054285,0,0,0,0
88,0.014472,3.0135,0.00053286,0,0,0,0
88.5,0.014575,3.0282,0.00034294,0,0,0,0
89,0.014224,3.0426,0.00034994,0,0,0,0
89.5,0.01433,3.0577,0.00032295,0,0,0,0
90,0.014215,3.0721,0.0004409,0,0,0,0
90.5,0.014122,3.0871,0.00027496,0,0,0,0
91,0.014085,3.1013,0.00026896,0,0,0,0
91.5,0.013897,3.1151,0.00026496,0,0,0,0
92,0.013992,3.1298,0.00032995,0,0,0,0
92.5,0.014141,3.144,0.00018798,0,0,0,0
93,0.014268,3.1569,0.00032695,0,0,0,0
93.5,0.014448,3.168,0.00031295,0,0,0,0
94,0.014864,3.1817,0.00036693,0,0,0,0
94.5,0.015115,3.1963,0.00053286,0,0,0,0
95,0.015241,3.2109,0.00049588,0,0,0,0
95.5,0.015951,3.2238,0.00040792,0,0,0,0
96,0.015915,3.2366,0.00057683,0,0,0,0
96.5,0.016328,3.2515,0.00060382,0,0,0,0
97,0.016671,3.2663,0.00086063,0,0,0,0
97.5,0.016696,3.2802,0.00086063,0,0,0,0
98,0.016709,3.2933,0.00085663,0,0,0,0
98.5,0.016548,3.3082,0.00069476,0,0,0,0
99,0.016596,3.3227,0.00080268,0,0,0,0
99.5,0.016533,3.3365,0.00074172,0,0,0,0
100,0.016364,3.3493,0.00068077,0,0,0,0
100.5,0.016227,3.3619,0.00050587,0,0,0,0
101,0.016299,3.3762,0.0007697,0,0,0,0
101.5,0.016387,3.3908,0.00059682,0,0,0,0
102,0.016236,3.4055,0.00047489,0,0,0,0
102.5,0.016345,3.4192,0.00060382,0,0,0,0
103,0.016088,3.4342,0.00061681,0,0,0,0
103.5,0.01632,3.4488,0.00064779,0,0,0,0
104,0.016692,3.4625,0.00039792,0,0,0,0
104.5,0.016927,3.4742,0.0004419,0,0,0,0
105,0.017076,3.4865,0.00067477,0,0,0,0
105.5,0.017344,3.4997,0.00052286,0,0,0,0
106,0.017785,3.5136,0.00051287,0,0,0,0
106.5,0.018002,3.5287,0.00064079,0,0,0,0
107,0.018199,3.5437,0.00061181,0,0,0,0
107.5,0.01842,3.5584,0.00080368,0,0,0,0
108,0.01864,3.5726,0.00083065,0,0,0,0
108.5,0.018762,3.5867,0.00081367,0,0,0,0
109,0.018705,3.5999,0.00098252,0,0,0,0
109.5,0.018812,3.6123,0.00071275,0,0,0,0
110,0.018586,3.6246,0.00088161,0,0,0,0
110.5,0.018584,3.6374,0.00088061,0,0,0,0
111,0.018345,3.6522,0.00067877,0,0,0,0
111.5,0.018379,3.6669,0.00067877,0,0,0,0
112,0.01784,3.6811,0.00071275,0,0,0,0
112.5,0.018044,3.6948,0.00047589,0,0,0,0
113,0.01818,3.7092,0.00071275,0,0,0,0
113.5,0.018249,3.7235,0.00084764,0,0,0,0
114,0.018419,3.7366,0.00074672,0,0,0,0
114.5,0.018386,3.7498,0.00064479,0,0,0,0
115,0.018793,3.7629,0.00091558,0,0,0,0
115.5,0.018828,3.7753,0.00050987,0,0,0,0
116,0.019303,3.7881,0.00064479,0,0,0,0
116.5,0.019573,3.8023,0.0007807,0,0,0,0
117,0.019812,3.818,0.00084764,0,0,0,0
117.5,0.020218,3.832,0.0007807,0,0,0,0
118,0.020219,3.8453,0.00067877,0,0,0,0
118.5,0.020457,3.8583,0.00074672,0,0,0,0
119,0.020762,3.8726,0.00074672,0,0,0,0
119.5,0.020865,3.8858,0.0011184,0,0,0,0
120,0.020798,3.8988,0.00061181,0,0,0,0
120.5,0.020867,3.9112,0.00098352,0,0,0,0
121,0.020564,3.924,0.00047689,0,0,0,0
121.5,0.020598,3.9375,0.00084764,0,0,0,0
122,0.020431,3.9505,0.00051087,0,0,0,0
122.5,0.0205,3.9627,0.00061181,0,0,0,0
123,0.020298,3.9759,0.00064579,0,0,0,0
123.5,0.020131,3.9899,0.00064579,0,0,0,0
124,0.020233,4.0038,0.00074672,0,0,0,0
124.5,0.020505,4.0174,0.00050987,0,0,0,0
125,0.02054,4.0309,0.00054485,0,0,0,0
125.5,0.020879,4.0452,0.00067977,0,0,0,0
126,0.021084,4.059,0.00067977,0,0,0,0
126.5,0.021456,4.0718,0.00074772,0,0,0,0
127,0.021458,4.0843,0.00068077,0,0,0,0
127.5,0.021864,4.0979,0.00068077,0,0,0,0
128,0.022237,4.1121,0.00068077,0,0,0,0
128.5,0.022171,4.1244,0.00084864,0,0,0,0
129,0.022341,4.1362,0.00091658,0,0,0,0
129.5,0.022343,4.1485,0.00088261,0,0,0,0
130,0.022581,4.1624,0.00074872,0,0,0,0
130.5,0.02292,4.1757,0.00081567,0,0,0,0
131,0.022651,4.1902,0.00074772,0,0,0,0
131.5,0.022889,4.204,0.0010175,0,0,0,0
132,0.022924,4.2165,0.00064679,0,0,0,0
132.5,0.022622,4.2286,0.00064679,0,0,0,0
133,0.022624,4.2412,0.00074772,0,0,0,0
133.5,0.022761,4.254,0.00057983,0,0,0,0
134,0.02283,4.2675,0.00078269,0,0,0,0
134.5,0.022425,4.2818,0.00071375,0,0,0,0
135,0.022494,4.2962,0.00054585,0,0,0,0
135.5,0.022529,4.3096,0.00054585,0,0,0,0
136,0.0227,4.3228,0.00054585,0,0,0,0
136.5,0.022903,4.3361,0.00071474,0,0,0,0
137,0.023141,4.3496,0.00088361,0,0,0,0
137.5,0.023346,4.3619,0.00064679,0,0,0,0
138,0.023652,4.3751,0.00085064,0,0,0,0
138.5,0.024328,4.3891,0.00095155,0,0,0,0
139,0.024229,4.403,0.0010874,0,0,0,0
139.5,0.024535,4.4162,0.0010185,0,0,0,0
140,0.024772,4.4301,0.00095155,0,0,0,0
140.5,0.024639,4.4429,0.0011883,0,0,0,0
141,0.024945,4.4551,0.0011204,0,0,0,0
141.5,0.025149,4.468,0.00088361,0,0,0,0
142,0.025117,4.482,0.0011204,0,0,0,0
142.5,0.024949,4.4953,0.0010864,0,0,0,0
143,0.025188,4.5083,0.0012213,0,0,0,0
143.5,0.025021,4.5208,0.00088461,0,0,0,0
144,0.024886,4.5337,0.00095155,0,0,0,0
144.5,0.024685,4.5478,0.0010874,0,0,0,0
145,0.024551,4.5622,0.00095255,0,0,0,0
145.5,0.024587,4.575,0.00084964,0,0,0,0
146,0.024827,4.5873,0.0010205,0,0,0,0
146.5,0.024591,4.5999,0.0010205,0,0,0,0
147,0.024794,4.6129,0.00074972,0,0,0,0
147.5,0.025135,4.6259,0.0012902,0,0,0,0
148,0.02544,4.6395,0.00088461,0,0,0,0
148.5,0.025779,4.6525,0.00095255,0,0,0,0
149,0.025814,4.6655,0.00095255,0,0,0,0
149.5,0.026189,4.6785,0.0012223,0,0,0,0
150,0.026663,4.6913,0.0013241,0,0,0,0
150.5,0.026732,4.704,0.00095255,0,0,0,0
151,0.026903,4.7173,0.00095255,0,0,0,0
151.5,0.027175,4.7319,0.0015947,0,0,0,0
152,0.027008,4.7439,0.0013241,0,0,0,0
152.5,0.027179,4.7561,0.001426,0,0,0,0
153,0.027282,4.768,0.001392,0,0,0,0
153.5,0.027317,4.7822,0.0011893,0,0,0,0
154,0.027183,4.7956,0.0012912,0,0,0,0
154.5,0.02705,4.809,0.0012912,0,0,0,0
155,0.026881,4.8222,0.0012912,0,0,0,0
155.5,0.027189,4.8352,0.0013241,0,0,0,0
156,0.027291,4.8483,0.0010215,0,0,0,0
156.5,0.026887,4.8609,0.0010874,0,0,0,0
157,0.026991,4.875,0.0012233,0,0,0,0
157.5,0.027161,4.8884,0.0010884,0,0,0,0
158,0.027095,4.902,0.0011573,0,0,0,0
158.5,0.027231,4.9155,0.0011903,0,0,0,0
159,0.02791,4.9281,0.0010884,0,0,0,0
159.5,0.028248,4.9398,0.0012922,0,0,0,0
160,0.028216,4.9516,0.0012252,0,0,0,0
160.5,0.028354,4.9647,0.0012252,0,0,0,0
161,0.029064,4.9787,0.0013601,0,0,0,0
161.5,0.028763,4.9923,0.0015638,0,0,0,0
162,0.029305,5.0042,0.0015288,0,0,0,0
162.5,0.029305,5.0165,0.0015967,0,0,0,0
163,0.02941,5.0296,0.0015278,0,0,0,0
163.5,0.02941,5.0421,0.0016976,0,0,0,0
164,0.029581,5.0542,0.001427,0,0,0,0
164.5,0.02965,5.0677,0.0016636,0,0,0,0
165,0.02938,5.0826,0.0014959,0,0,0,0
165.5,0.029587,5.0958,0.0014619,0,0,0,0
166,0.029588,5.1079,0.0015288,0,0,0,0
166.5,0.029488,5.1209,0.0014619,0,0,0,0
167,0.029895,5.1358,0.0015298,0,0,0,0
167.5,0.029998,5.149,0.0013271,0,0,0,0
168,0.029797,5.1612,0.001428,0,0,0,0
168.5,0.029833,5.1736,0.0013281,0,0,0,0
169,0.03024,5.1868,0.0013611,0,0,0,0
169.5,0.03031,5.1998,0.0013281,0,0,0,0
170,0.030649,5.2135,0.0013611,0,0,0,0
170.5,0.030921,5.2271,0.0013621,0,0,0,0
171,0.030921,5.2399,0.0013281,0,0,0,0
171.5,0.031296,5.2524,0.0016996,0,0,0,0
172,0.031332,5.2656,0.0013281,0,0,0,0
172.5,0.031432,5.2773,0.0017664,0,0,0,0
173,0.031367,5.2881,0.0016327,0,0,0,0
173.5,0.031842,5.3018,0.0016646,0,0,0,0
174,0.032114,5.3182,0.0016646,0,0,0,0
174.5,0.032115,5.3334,0.0020359,0,0,0,0
175,0.032185,5.3465,0.0017664,0,0,0,0
175.5,0.032424,5.3587,0.0017664,0,0,0,0
176,0.032424,5.3706,0.0016656,0,0,0,0
176.5,0.032528,5.3822,0.0018333,0,0,0,0
177,0.032698,5.3948,0.0016996,0,0,0,0
177.5,0.032834,5.4084,0.0016656,0,0,0,0
178,0.033107,5.423,0.0016996,0,0,0,0
178.5,0.033041,5.4373,0.0015638,0,0,0,0
179,0.033011,5.4493,0.0016317,0,0,0,0
179.5,0.033484,5.4624,0.0011913,0,0,0,0
180,0.033789,5.478,0.0014629,0,0,0,0
180.5,0.033826,5.4941,0.0014969,0,0,0,0
181,0.033793,5.5074,0.0017664,0,0,0,0
181.5,0.033828,5.5184,0.0018004,0,0,0,0
182,0.034134,5.5306,0.0015977,0,0,0,0
182.5,0.034271,5.5427,0.0017654,0,0,0,0
183,0.034442,5.5563,0.0015967,0,0,0,0
183.5,0.034579,5.5688,0.0019691,0,0,0,0
184,0.03475,5.5819,0.0016986,0,0,0,0
184.5,0.034885,5.5948,0.0019351,0,0,0,0
185,0.034989,5.6093,0.0018333,0,0,0,0
185.5,0.035093,5.6219,0.0023732,0,0,0,0
186,0.035263,5.6328,0.0019341,0,0,0,0
186.5,0.035165,5.6442,0.0021038,0,0,0,0
187,0.035503,5.6564,0.0019341,0,0,0,0
187.5,0.035607,5.6702,0.0018333,0,0,0,0
188,0.035778,5.6847,0.0020359,0,0,0,0
188.5,0.036287,5.6994,0.0017984,0,0,0,0
189,0.036323,5.7116,0.0018323,0,0,0,0
189.5,0.036391,5.7249,0.0017654,0,0,0,0
190,0.03663,5.7399,0.0015628,0,0,0,0
190.5,0.0368,5.7552,0.0016646,0,0,0,0
191,0.037005,5.7683,0.0015288,0,0,0,0
191.5,0.037041,5.7812,0.0016307,0,0,0,0
192,0.037246,5.7936,0.0013251,0,0,0,0
192.5,0.03735,5.8053,0.0017664,0,0,0,0
193,0.03752,5.8183,0.0017994,0,0,0,0
193.5,0.037421,5.8334,0.0019681,0,0,0,0
194,0.037558,5.8481,0.0017664,0,0,0,0
194.5,0.037628,5.8609,0.0019002,0,0,0,0
195,0.0379,5.873,0.0018673,0,0,0,0
195.5,0.037904,5.885,0.0021706,0,0,0,0
196,0.037905,5.897,0.0021706,0,0,0,0
196.5,0.038244,5.9087,0.0022375,0,0,0,0
197,0.038381,5.921,0.0022046,0,0,0,0
197.5,0.03835,5.9345,0.0022046,0,0,0,0
198,0.038689,5.949,0.0022375,0,0,0,0
198.5,0.038591,5.9634,0.0020689,0,0,0,0
199,0.038931,5.9778,0.0021367,0,0,0,0
199.5,0.039338,5.9895,0.0020359,0,0,0,0
200,0.039477,6.0014,0.0019681,0,0,0,0
200.5,0.039917,6.0145,0.0017325,0,0,0,0
201,0.039852,6.0296,0.0021028,0,0,0,0
201.5,0.040394,6.0434,0.0016646,0,0,0,0
202,0.040666,6.0569,0.0019351,0,0,0,0
202.5,0.040635,6.0698,0.0019691,0,0,0,0
203,0.040773,6.0829,0.0019681,0,0,0,0
203.5,0.040842,6.0948,0.0017664,0,0,0,0
204,0.041249,6.1072,0.0019691,0,0,0,0
204.5,0.041217,6.1207,0.002003,0,0,0,0
205,0.041456,6.1332,0.002002,0,0,0,0
205.5,0.041255,6.1454,0.0023742,0,0,0,0
206,0.041459,6.1587,0.0023742,0,0,0,0
206.5,0.041631,6.1735,0.0021387,0,0,0,0
207,0.041598,6.187,0.0021377,0,0,0,0
207.5,0.041803,6.1996,0.0025089,0,0,0,0
208,0.041974,6.2115,0.0023732,0,0,0,0
208.5,0.041908,6.2244,0.0022734,0,0,0,0
209,0.042113,6.2383,0.0024759,0,0,0,0
209.5,0.042653,6.2518,0.0022395,0,0,0,0
210,0.042961,6.2649,0.0023742,0,0,0,0
210.5,0.0433,6.2773,0.0022066,0,0,0,0
211,0.043674,6.2904,0.0020369,0,0,0,0
211.5,0.04408,6.3038,0.0021407,0,0,0,0
212,0.04442,6.318,0.0020729,0,0,0,0
212.5,0.044728,6.3319,0.0019371,0,0,0,0
213,0.045067,6.3443,0.0019371,0,0,0,0
213.5,0.045304,6.357,0.0021397,0,0,0,0
214,0.045374,6.3704,0.0019042,0,0,0,0
214.5,0.045441,6.384,0.0023093,0,0,0,0
215,0.04541,6.3966,0.0023433,0,0,0,0
215.5,0.04548,6.41,0.002005,0,0,0,0
216,0.045482,6.4241,0.0024121,0,0,0,0
216.5,0.045449,6.4377,0.0025468,0,0,0,0
217,0.045551,6.4516,0.0025807,0,0,0,0
217.5,0.045858,6.4643,0.0025458,0,0,0,0
218,0.045827,6.4772,0.0030862,0,0,0,0
218.5,0.046234,6.4905,0.0028499,0,0,0,0
219,0.046236,6.5046,0.0026485,0,0,0,0
219.5,0.046541,6.5161,0.002817,0,0,0,0
220,0.047152,6.5292,0.0026824,0,0,0,0
220.5,0.047219,6.542,0.0026146,0,0,0,0
221,0.047728,6.5549,0.002445,0,0,0,0
221.5,0.047594,6.5676,0.0023452,0,0,0,0
222,0.048406,6.5817,0.0026475,0,0,0,0
222.5,0.048679,6.5948,0.002446,0,0,0,0
223,0.049254,6.608,0.0023772,0,0,0,0
223.5,0.049325,6.6224,0.0025138,0,0,0,0
224,0.04963,6.6361,0.0023782,0,0,0,0
224.5,0.050105,6.6496,0.0024121,0,0,0,0
225,0.050108,6.663,0.0022764,0,0,0,0
225.5,0.05028,6.6761,0.0024111,0,0,0,0
226,0.050348,6.6884,0.0025138,0,0,0,0
226.5,0.05052,6.7001,0.002445,0,0,0,0
227,0.05042,6.7128,0.0028828,0,0,0,0
227.5,0.050084,6.7265,0.0027821,0,0,0,0
228,0.050357,6.7416,0.0028828,0,0,0,0
228.5,0.050594,6.7553,0.002815,0,0,0,0
229,0.050665,6.7687,0.0030842,0,0,0,0
229.5,0.050804,6.7814,0.0028469,0,0,0,0
230,0.050906,6.7949,0.003151,0,0,0,0
230.5,0.05138,6.8064,0.0030154,0,0,0,0
231,0.051551,6.8168,0.0029825,0,0,0,0
231.5,0.05179,6.8278,0.0029147,0,0,0,0
232,0.052536,6.8421,0.0028459,0,0,0,0
232.5,0.053214,6.8564,0.0027472,0,0,0,0
233,0.053689,6.8691,0.0025777,0,0,0,0
233.5,0.053859,6.8811,0.0027462,0,0,0,0
234,0.053892,6.8947,0.0027791,0,0,0,0
234.5,0.054774,6.9091,0.0026794,0,0,0,0
235,0.055183,6.9229,0.0027472,0,0,0,0
235.5,0.055183,6.9356,0.002814,0,0,0,0
236,0.055456,6.9477,0.0026794,0,0,0,0
236.5,0.055288,6.961,0.0029157,0,0,0,0
237,0.055492,6.9748,0.0027472,0,0,0,0
237.5,0.056237,6.9865,0.003153,0,0,0,0
238,0.055564,6.9988,0.0029157,0,0,0,0
238.5,0.055837,7.0129,0.0032537,0,0,0,0
239,0.055837,7.028,0.0030842,0,0,0,0
239.5,0.056074,7.0414,0.0032866,0,0,0,0
240,0.056415,7.0533,0.0034889,0,0,0,0
240.5,0.056484,7.0649,0.0035905,0,0,0,0
241,0.056857,7.077,0.0036244,0,0,0,0
241.5,0.05713,7.0914,0.0036912,0,0,0,0
242,0.057841,7.1049,0.0034909,0,0,0,0
242.5,0.058045,7.1192,0.0035577,0,0,0,0
243,0.058891,7.1327,0.0033902,0,0,0,0
243.5,0.059029,7.1478,0.003155,0,0,0,0
244,0.059436,7.1627,0.0030872,0,0,0,0
244.5,0.059978,7.1746,0.0032557,0,0,0,0
245,0.059945,7.1848,0.003155,0,0,0,0
245.5,0.060756,7.1971,0.0032238,0,0,0,0
246,0.060893,7.2124,0.0030882,0,0,0,0
246.5,0.061166,7.2255,0.0032577,0,0,0,0
247,0.061473,7.2391,0.0034939,0,0,0,0
247.5,0.061575,7.2531,0.0034959,0,0,0,0
248,0.061847,7.2673,0.0034939,0,0,0,0
248.5,0.062051,7.281,0.0034949,0,0,0,0
249,0.062055,7.2934,0.0036294,0,0,0,0
249.5,0.062427,7.3053,0.0038645,0,0,0,0
250,0.062497,7.3173,0.0036952,0,0,0,0
250.5,0.062837,7.3322,0.0041663,0,0,0,0
251,0.062975,7.3471,0.0041324,0,0,0,0
251.5,0.063584,7.3602,0.0040657,0,0,0,0
252,0.06362,7.3732,0.0041315,0,0,0,0
252.5,0.064162,7.3864,0.0040986,0,0,0,0
253,0.064705,7.3989,0.0040637,0,0,0,0
253.5,0.064607,7.4105,0.0040976,0,0,0,0
254,0.065489,7.4246,0.0038267,0,0,0,0
254.5,0.065694,7.4387,0.0037928,0,0,0,0
255,0.066001,7.4525,0.0036583,0,0,0,0
255.5,0.066374,7.4657,0.0035915,0,0,0,0
256,0.06685,7.4793,0.0037918,0,0,0,0
256.5,0.067123,7.4914,0.0038257,0,0,0,0
257,0.067465,7.5037,0.0035905,0,0,0,0
257.5,0.0675,7.5161,0.0035228,0,0,0,0
258,0.067671,7.5288,0.0038267,0,0,0,0
258.5,0.068044,7.5414,0.0035915,0,0,0,0
259,0.068384,7.5555,0.0037918,0,0,0,0
259.5,0.068689,7.57,0.0039611,0,0,0,0
260,0.068929,7.583,0.004231,0,0,0,0
260.5,0.069234,7.5952,0.0043655,0,0,0,0
261,0.069845,7.608,0.004466,0,0,0,0
261.5,0.070118,7.6224,0.0046004,0,0,0,0
262,0.070796,7.6367,0.0047019,0,0,0,0
262.5,0.071168,7.6491,0.0048701,0,0,0,0
263,0.071509,7.6611,0.0049368,0,0,0,0
263.5,0.071815,7.674,0.0047348,0,0,0,0
264,0.07239,7.6871,0.004466,0,0,0,0
264.5,0.072427,7.6999,0.0044999,0,0,0,0
265,0.072935,7.7133,0.0045676,0,0,0,0
265.5,0.072968,7.7263,0.0043665,0,0,0,0
266,0.073309,7.7391,0.0043336,0,0,0,0
266.5,0.073851,7.7528,0.004232,0,0,0,0
267,0.074156,7.7669,0.004234,0,0,0,0
267.5,0.07436,7.78,0.0045009,0,0,0,0
268,0.074902,7.7917,0.004234,0,0,0,0
268.5,0.075207,7.8046,0.0042669,0,0,0,0
269,0.075681,7.8189,0.0045038,0,0,0,0
269.5,0.075989,7.8326,0.0045028,0,0,0,0
270,0.076599,7.844,0.0045715,0,0,0,0
270.5,0.077172,7.8573,0.0051089,0,0,0,0
271,0.077647,7.8712,0.0050094,0,0,0,0
271.5,0.078458,7.8842,0.00548,0,0,0,0
272,0.079172,7.8961,0.005478,0,0,0,0
272.5,0.07951,7.909,0.005481,0,0,0,0
273,0.080288,7.9233,0.0057832,0,0,0,0
273.5,0.080424,7.9374,0.0055824,0,0,0,0
274,0.080865,7.9507,0.00548,0,0,0,0
274.5,0.081544,7.961,0.00565,0,0,0,0
275,0.081745,7.9728,0.0053467,0,0,0,0
275.5,0.081847,7.9842,0.0053457,0,0,0,0
276,0.082119,7.996,0.0053447,0,0,0,0
276.5,0.082152,8.008,0.0051099,0,0,0,0
277,0.082598,8.0223,0.0051447,0,0,0,0
277.5,0.083036,8.0371,0.0052114,0,0,0,0
278,0.08324,8.0508,0.0050433,0,0,0,0
278.5,0.083413,8.0632,0.0051089,0,0,0,0
279,0.084121,8.0753,0.0051428,0,0,0,0
279.5,0.084463,8.0879,0.0050751,0,0,0,0
280,0.085342,8.1009,0.0052761,0,0,0,0
280.5,0.085815,8.1132,0.0055456,0,0,0,0
281,0.086357,8.1267,0.0056798,0,0,0,0
281.5,0.087135,8.1401,0.0058479,0,0,0,0
282,0.087983,8.1538,0.0058479,0,0,0,0
282.5,0.08822,8.1661,0.0061491,0,0,0,0
283,0.089134,8.1786,0.0062166,0,0,0,0
283.5,0.089645,8.191,0.0066856,0,0,0,0
284,0.090187,8.2069,0.0065843,0,0,0,0
284.5,0.090664,8.2211,0.0065187,0,0,0,0
285,0.091004,8.2324,0.0064164,0,0,0,0
285.5,0.091378,8.2425,0.0064839,0,0,0,0
286,0.091954,8.2561,0.006315,0,0,0,0
286.5,0.092226,8.2703,0.0057783,0,0,0,0
287,0.092531,8.2832,0.0060149,0,0,0,0
287.5,0.092768,8.2944,0.0061481,0,0,0,0
288,0.093109,8.3051,0.0058469,0,0,0,0
288.5,0.093856,8.3171,0.0058797,0,0,0,0
289,0.093992,8.3299,0.0057773,0,0,0,0
289.5,0.094603,8.3435,0.005643,0,0,0,0
290,0.095042,8.357,0.0059135,0,0,0,0
290.5,0.09589,8.3693,0.0061143,0,0,0,0
291,0.096498,8.3815,0.0061828,0,0,0,0
291.5,0.097211,8.3951,0.0064511,0,0,0,0
292,0.097989,8.4091,0.0065833,0,0,0,0
292.5,0.098665,8.4215,0.0064849,0,0,0,0
293,0.099141,8.4342,0.0070223,0,0,0,0
293.5,0.099717,8.4467,0.0071226,0,0,0,0
294,0.10022,8.4587,0.0073589,0,0,0,0
294.5,0.1009,8.4713,0.0075266,0,0,0,0
295,0.10131,8.4843,0.0075256,0,0,0,0
295.5,0.10178,8.497,0.0076596,0,0,0,0
296,0.10209,8.5084,0.0074581,0,0,0,0
296.5,0.103,8.5199,0.0073926,0,0,0,0
297,0.10382,8.5327,0.0073231,0,0,0,0
297.5,0.10429,8.5465,0.0072904,0,0,0,0
298,0.10487,8.5578,0.0072576,0,0,0,0
298.5,0.10578,8.5677,0.0072258,0,0,0,0
299,0.10639,8.5801,0.0068892,0,0,0,0
299.5,0.10724,8.5935,0.0068217,0,0,0,0
300,0.10795,8.6061,0.006923,0,0,0,0
300.5,0.10873,8.6176,0.0070263,0,0,0,0
301,0.10913,8.6305,0.007058,0,0,0,0
301.5,0.1094,8.6446,0.0071603,0,0,0,0
302,0.11018,8.6577,0.0073281,0,0,0,0
302.5,0.11083,8.6701,0.0077985,0,0,0,0
303,0.11133,8.6808,0.0077648,0,0,0,0
303.5,0.11181,8.6921,0.0081685,0,0,0,0
304,0.11228,8.7033,0.0082677,0,0,0,0
304.5,0.11276,8.7167,0.0086029,0,0,0,0
305,0.11327,8.7297,0.0086376,0,0,0,0
305.5,0.11404,8.7431,0.0088715,0,0,0,0
306,0.11479,8.7551,0.0088398,0,0,0,0
306.5,0.1154,8.7663,0.0089062,0,0,0,0
307,0.11584,8.778,0.0087724,0,0,0,0
307.5,0.11692,8.7896,0.0087724,0,0,0,0
308,0.11831,8.7995,0.0085027,0,0,0,0
308.5,0.11912,8.8099,0.0080346,0,0,0,0
309,0.11966,8.8233,0.0083699,0,0,0,0
309.5,0.12085,8.8378,0.0080694,0,0,0,0
310,0.12139,8.8505,0.00847,0,0,0,0
310.5,0.1218,8.8619,0.008237,0,0,0,0
311,0.12268,8.8732,0.0081011,0,0,0,0
311.5,0.12356,8.8849,0.0084373,0,0,0,0
312,0.124,8.8962,0.0085047,0,0,0,0
312.5,0.12471,8.9089,0.0087377,0,0,0,0
313,0.12549,8.921,0.0086049,0,0,0,0
313.5,0.1261,8.9327,0.0090063,0,0,0,0
314,0.12644,8.9436,0.0095077,0,0,0,0
314.5,0.12698,8.9551,0.0095086,0,0,0,0
315,0.12759,8.9667,0.0097741,0,0,0,0
315.5,0.1284,8.9797,0.0099078,0,0,0,0
316,0.12898,8.9914,0.010042,0,0,0,0
316.5,0.12996,9.0002,0.010277,0,0,0,0
317,0.13077,9.0112,0.010111,0,0,0,0
317.5,0.13168,9.0253,0.010175,0,0,0,0
318,0.13219,9.0383,0.010244,0,0,0,0
318.5,0.13307,9.0481,0.0098731,0,0,0,0
319,0.13389,9.0594,0.0097404,0,0,0,0
319.5,0.13483,9.0715,0.009573,0,0,0,0
320,0.13564,9.0837,0.0095394,0,0,0,0
320.5,0.13652,9.0954,0.0093719,0,0,0,0
321,0.1372,9.1072,0.0094036,0,0,0,0
321.5,0.13781,9.1179,0.0094403,0,0,0,0
322,0.13852,9.1285,0.0096721,0,0,0,0
322.5,0.13944,9.1409,0.0098384,0,0,0,0
323,0.14005,9.1538,0.0097057,0,0,0,0
323.5,0.14076,9.166,0.010206,0,0,0,0
324,0.14174,9.1768,0.010476,0,0,0,0
324.5,0.14249,9.1878,0.010809,0,0,0,0
325,0.14374,9.2011,0.011008,0,0,0,0
325.5,0.14462,9.2134,0.010942,0,0,0,0
326,0.14567,9.2247,0.011476,0,0,0,0
326.5,0.14665,9.2344,0.01141,0,0,0,0
327,0.1481,9.2462,0.011477,0,0,0,0
327.5,0.14881,9.258,0.011645,0,0,0,0
328,0.1496,9.2708,0.011412,0,0,0,0
328.5,0.1501,9.2821,0.011543,0,0,0,0
329,0.15102,9.293,0.011342,0,0,0,0
329.5,0.15146,9.3038,0.011244,0,0,0,0
330,0.15186,9.3154,0.01121,0,0,0,0
330.5,0.15271,9.327,0.010977,0,0,0,0
331,0.15342,9.3391,0.010942,0,0,0,0
331.5,0.15396,9.3509,0.010842,0,0,0,0
332,0.15488,9.3625,0.010876,0,0,0,0
332.5,0.15586,9.3737,0.011276,0,0,0,0
333,0.15657,9.3844,0.011075,0,0,0,0
333.5,0.15762,9.3969,0.011343,0,0,0,0
334,0.1588,9.4087,0.011544,0,0,0,0
334.5,0.15978,9.4188,0.011777,0,0,0,0
335,0.1612,9.4282,0.012079,0,0,0,0
335.5,0.16198,9.4401,0.012045,0,0,0,0
336,0.16317,9.4526,0.012478,0,0,0,0
336.5,0.16425,9.4643,0.012678,0,0,0,0
337,0.1652,9.4751,0.012745,0,0,0,0
337.5,0.16581,9.4857,0.013046,0,0,0,0
338,0.16685,9.4972,0.012913,0,0,0,0
338.5,0.1677,9.5084,0.013146,0,0,0,0
339,0.16848,9.5195,0.012946,0,0,0,0
339.5,0.16936,9.5297,0.012879,0,0,0,0
340,0.1702,9.5392,0.013047,0,0,0,0
340.5,0.17085,9.5486,0.012479,0,0,0,0
341,0.17206,9.5601,0.01258,0,0,0,0
341.5,0.17305,9.5725,0.012479,0,0,0,0
342,0.1743,9.5842,0.012513,0,0,0,0
342.5,0.17528,9.5948,0.012414,0,0,0,0
343,0.17636,9.6058,0.012613,0,0,0,0
343.5,0.17761,9.6167,0.012646,0,0,0,0
344,0.1788,9.628,0.012979,0,0,0,0
344.5,0.17961,9.6393,0.012847,0,0,0,0
345,0.18029,9.6511,0.013415,0,0,0,0
345.5,0.18103,9.6616,0.013915,0,0,0,0
346,0.1816,9.672,0.013915,0,0,0,0
346.5,0.18269,9.6818,0.014048,0,0,0,0
347,0.18353,9.6938,0.014382,0,0,0,0
347.5,0.18421,9.705,0.014447,0,0,0,0
348,0.18516,9.715,0.014348,0,0,0,0
348.5,0.18611,9.7256,0.014714,0,0,0,0
349,0.18732,9.7373,0.014748,0,0,0,0
349.5,0.18848,9.7477,0.014583,0,0,0,0
350,0.18969,9.7584,0.014814,0,0,0,0
350.5,0.19098,9.7706,0.014683,0,0,0,0
351,0.19223,9.7807,0.014416,0,0,0,0
351.5,0.19345,9.7902,0.014417,0,0,0,0
352,0.1947,9.8003,0.01405,0,0,0,0
352.5,0.19571,9.811,0.014316,0,0,0,0
353,0.19666,9.8216,0.01415,0,0,0,0
353.5,0.19777,9.833,0.014318,0,0,0,0
354,0.19859,9.8442,0.014683,0,0,0,0
354.5,0.19953,9.8545,0.014684,0,0,0,0
355,0.20065,9.8654,0.015018,0,0,0,0
355.5,0.2017,9.8767,0.015351,0,0,0,0
356,0.20261,9.8882,0.015417,0,0,0,0
356.5,0.20346,9.8985,0.015616,0,0,0,0
357,0.20484,9.9086,0.01585,0,0,0,0
357.5,0.20576,9.9178,0.016149,0,0,0,0
358,0.20735,9.9269,0.016448,0,0,0,0
358.5,0.20846,9.9375,0.016513,0,0,0,0
359,0.20962,9.9484,0.016448,0,0,0,0
359.5,0.21049,9.9591,0.016414,0,0,0,0
360,0.21168,9.9694,0.016382,0,0,0,0
360.5,0.21279,9.9822,0.016348,0,0,0,0
361,0.21364,9.9932,0.016382,0,0,0,0
361.5,0.21485,10.002,0.016315,0,0,0,0
362,0.21573,10.011,0.01625,0,0,0,0
362.5,0.21665,10.022,0.016282,0,0,0,0
363,0.21763,10.032,0.016249,0,0,0,0
363.5,0.21864,10.04,0.016615,0,0,0,0
364,0.21956,10.05,0.016417,0,0,0,0
364.5,0.22064,10.061,0.016649,0,0,0,0
365,0.22223,10.073,0.016814,0,0,0,0
365.5,0.22365,10.084,0.016883,0,0,0,0
366,0.2247,10.094,0.016914,0,0,0,0
366.5,0.22646,10.104,0.017313,0,0,0,0
367,0.2277,10.114,0.017577,0,0,0,0
367.5,0.22852,10.125,0.017746,0,0,0,0
368,0.2299,10.136,0.018243,0,0,0,0
368.5,0.23129,10.147,0.018308,0,0,0,0
369,0.23217,10.157,0.018474,0,0,0,0
369.5,0.23322,10.168,0.018507,0,0,0,0
370,0.23467,10.178,0.018607,0,0,0,0
370.5,0.23582,10.187,0.018442,0,0,0,0
371,0.23721,10.196,0.018573,0,0,0,0
371.5,0.23799,10.205,0.018473,0,0,0,0
372,0.23934,10.215,0.01834,0,0,0,0
372.5,0.24046,10.225,0.018472,0,0,0,0
373,0.24137,10.237,0.018638,0,0,0,0
373.5,0.24326,10.247,0.018441,0,0,0,0
374,0.24455,10.258,0.018375,0,0,0,0
374.5,0.246,10.268,0.018638,0,0,0,0
375,0.24729,10.277,0.018606,0,0,0,0
375.5,0.24817,10.285,0.018806,0,0,0,0
376,0.24962,10.296,0.018938,0,0,0,0
376.5,0.2503,10.306,0.019136,0,0,0,0
377,0.25165,10.316,0.019535,0,0,0,0
377.5,0.25276,10.328,0.019401,0,0,0,0
378,0.25375,10.338,0.019699,0,0,0,0
378.5,0.25489,10.348,0.02023,0,0,0,0
379,0.25605,10.356,0.020262,0,0,0,0
379.5,0.25736,10.365,0.020294,0,0,0,0
380,0.25852,10.374,0.020394,0,0,0,0
380.5,0.25973,10.385,0.020559,0,0,0,0
381,0.26132,10.395,0.02069,0,0,0,0
381.5,0.26281,10.404,0.02069,0,0,0,0
382,0.26416,10.412,0.020625,0,0,0,0
382.5,0.26551,10.422,0.020857,0,0,0,0
383,0.26697,10.433,0.02069,0,0,0,0
383.5,0.26815,10.442,0.02046,0,0,0,0
384,0.2695,10.451,0.020625,0,0,0,0
384.5,0.27072,10.46,0.020758,0,0,0,0
385,0.27207,10.472,0.020989,0,0,0,0
385.5,0.27315,10.482,0.020957,0,0,0,0
386,0.27437,10.491,0.021022,0,0,0,0
386.5,0.27573,10.499,0.021385,0,0,0,0
387,0.27718,10.507,0.021452,0,0,0,0
387.5,0.27826,10.516,0.02145,0,0,0,0
388,0.27988,10.526,0.021815,0,0,0,0
388.5,0.28157,10.537,0.021815,0,0,0,0
389,0.2832,10.547,0.022178,0,0,0,0
389.5,0.28475,10.557,0.022211,0,0,0,0
390,0.2859,10.565,0.022343,0,0,0,0
390.5,0.28732,10.573,0.022444,0,0,0,0
391,0.28854,10.58,0.022642,0,0,0,0
391.5,0.28986,10.589,0.022641,0,0,0,0
392,0.29101,10.6,0.022542,0,0,0,0
392.5,0.29236,10.61,0.022773,0,0,0,0
393,0.29324,10.62,0.02264,0,0,0,0
393.5,0.29473,10.63,0.022839,0,0,0,0
394,0.29578,10.638,0.023037,0,0,0,0
394.5,0.29706,10.646,0.023169,0,0,0,0
395,0.29865,10.656,0.023037,0,0,0,0
395.5,0.29986,10.666,0.023367,0,0,0,0
396,0.30145,10.675,0.023467,0,0,0,0
396.5,0.30281,10.684,0.023731,0,0,0,0
397,0.30436,10.694,0.023697,0,0,0,0
397.5,0.30565,10.702,0.023764,0,0,0,0
398,0.30734,10.711,0.024061,0,0,0,0
398.5,0.30852,10.721,0.024258,0,0,0,0
399,0.30981,10.731,0.024159,0,0,0,0
399.5,0.31126,10.739,0.024554,0,0,0,0
400,0.31261,10.748,0.024655,0,0,0,0
400.5,0.3138,10.755,0.02462,0,0,0,0
401,0.31518,10.764,0.024853,0,0,0,0
401.5,0.31667,10.773,0.024785,0,0,0,0
402,0.31792,10.782,0.025115,0,0,0,0
402.5,0.31965,10.791,0.025049,0,0,0,0
403,0.32133,10.801,0.025312,0,0,0,0
403.5,0.32286,10.81,0.025412,0,0,0,0
404,0.32465,10.817,0.025511,0,0,0,0
404.5,0.32617,10.825,0.02561,0,0,0,0
405,0.32793,10.834,0.025807,0,0,0,0
405.5,0.32962,10.844,0.025775,0,0,0,0
406,0.3307,10.853,0.025874,0,0,0,0
406.5,0.33209,10.862,0.026334,0,0,0,0
407,0.33351,10.87,0.026038,0,0,0,0
407.5,0.33489,10.878,0.026401,0,0,0,0
408,0.33642,10.886,0.026565,0,0,0,0
408.5,0.3379,10.894,0.026697,0,0,0,0
409,0.33919,10.902,0.026829,0,0,0,0
409.5,0.34078,10.91,0.026959,0,0,0,0
410,0.34247,10.92,0.027156,0,0,0,0
410.5,0.34453,10.93,0.027223,0,0,0,0
411,0.34612,10.938,0.027453,0,0,0,0
411.5,0.34757,10.946,0.027584,0,0,0,0
412,0.34916,10.954,0.027715,0,0,0,0
412.5,0.35065,10.962,0.028077,0,0,0,0
413,0.3521,10.971,0.028406,0,0,0,0
413.5,0.35349,10.98,0.028308,0,0,0,0
414,0.35477,10.989,0.028373,0,0,0,0
414.5,0.35558,10.997,0.028438,0,0,0,0
415,0.35701,11.004,0.028669,0,0,0,0
415.5,0.35866,11.011,0.028864,0,0,0,0
416,0.35991,11.019,0.029063,0,0,0,0
416.5,0.36127,11.029,0.028997,0,0,0,0
417,0.36326,11.039,0.029359,0,0,0,0
417.5,0.36498,11.049,0.029391,0,0,0,0
418,0.36691,11.056,0.02949,0,0,0,0
418.5,0.36853,11.063,0.02962,0,0,0,0
419,0.36995,11.071,0.029785,0,0,0,0
419.5,0.37198,11.081,0.029949,0,0,0,0
420,0.3734,11.091,0.030015,0,0,0,0
420.5,0.37492,11.1,0.030375,0,0,0,0
421,0.37634,11.108,0.030244,0,0,0,0
421.5,0.37753,11.116,0.030736,0,0,0,0
422,0.37925,11.122,0.030538,0,0,0,0
422.5,0.38081,11.129,0.030965,0,0,0,0
423,0.3823,11.137,0.031227,0,0,0,0
423.5,0.38408,11.146,0.031292,0,0,0,0
424,0.38588,11.154,0.031522,0,0,0,0
424.5,0.38767,11.161,0.031654,0,0,0,0
425,0.38949,11.169,0.031815,0,0,0,0
425.5,0.39155,11.178,0.031816,0,0,0,0
426,0.39325,11.186,0.032176,0,0,0,0
426.5,0.39507,11.194,0.032144,0,0,0,0
427,0.39673,11.202,0.032307,0,0,0,0
427.5,0.39832,11.21,0.032371,0,0,0,0
428,0.39977,11.217,0.032602,0,0,0,0
428.5,0.40119,11.224,0.032699,0,0,0,0
429,0.40264,11.232,0.032961,0,0,0,0
429.5,0.40434,11.24,0.033092,0,0,0,0
430,0.40606,11.248,0.032929,0,0,0,0
430.5,0.40775,11.257,0.033321,0,0,0,0
431,0.40951,11.265,0.033615,0,0,0,0
431.5,0.41167,11.273,0.03378,0,0,0,0
432,0.41357,11.281,0.034008,0,0,0,0
432.5,0.41525,11.289,0.034072,0,0,0,0
433,0.41718,11.296,0.034202,0,0,0,0
433.5,0.41891,11.303,0.03453,0,0,0,0
434,0.4209,11.31,0.03466,0,0,0,0
434.5,0.42137,11.317,0.03466,0,0,0,0
435,0.42282,11.325,0.034954,0,0,0,0
435.5,0.42425,11.332,0.035184,0,0,0,0
436,0.42597,11.341,0.035214,0,0,0,0
436.5,0.42749,11.349,0.035411,0,0,0,0
437,0.42939,11.357,0.035574,0,0,0,0
437.5,0.43121,11.364,0.035835,0,0,0,0
438,0.4329,11.37,0.035802,0,0,0,0
438.5,0.43506,11.377,0.036127,0,0,0,0
439,0.43706,11.386,0.035965,0,0,0,0
439.5,0.43871,11.394,0.036259,0,0,0,0
440,0.44054,11.402,0.036453,0,0,0,0
440.5,0.4423,11.41,0.036649,0,0,0,0
441,0.44406,11.417,0.036941,0,0,0,0
441.5,0.44561,11.424,0.036943,0,0,0,0
442,0.4472,11.431,0.037137,0,0,0,0
442.5,0.44859,11.439,0.037495,0,0,0,0
443,0.45058,11.447,0.037691,0,0,0,0
443.5,0.45244,11.454,0.037951,0,0,0,0
444,0.45413,11.461,0.037919,0,0,0,0
444.5,0.45626,11.469,0.038243,0,0,0,0
445,0.45808,11.477,0.038472,0,0,0,0
445.5,0.46062,11.483,0.038537,0,0,0,0
446,0.46231,11.489,0.038798,0,0,0,0
446.5,0.46454,11.494,0.039057,0,0,0,0
447,0.46653,11.502,0.038992,0,0,0,0
447.5,0.46809,11.51,0.039285,0,0,0,0
448,0.46951,11.518,0.039513,0,0,0,0
448.5,0.47154,11.526,0.039576,0,0,0,0
449,0.47323,11.532,0.039934,0,0,0,0
449.5,0.47465,11.539,0.040259,0,0,0,0
450,0.47681,11.546,0.040194,0,0,0,0
450.5,0.47847,11.553,0.040421,0,0,0,0
451,0.48036,11.559,0.040778,0,0,0,0
451.5,0.48239,11.565,0.04094,0,0,0,0
452,0.48465,11.572,0.040973,0,0,0,0
452.5,0.48698,11.58,0.041686,0,0,0,0
453,0.48881,11.589,0.041491,0,0,0,0
453.5,0.4903,11.598,0.04159,0,0,0,0
454,0.49236,11.604,0.041654,0,0,0,0
454.5,0.49398,11.608,0.041946,0,0,0,0
455,0.49554,11.614,0.042433,0,0,0,0
455.5,0.49722,11.62,0.042433,0,0,0,0
456,0.49912,11.626,0.042595,0,0,0,0
456.5,0.5005,11.632,0.042951,0,0,0,0
457,0.5027,11.638,0.043047,0,0,0,0
457.5,0.50422,11.646,0.04321,0,0,0,0
458,0.50649,11.655,0.043403,0,0,0,0
458.5,0.50858,11.663,0.043663,0,0,0,0
459,0.51061,11.668,0.043954,0,0,0,0
459.5,0.51247,11.674,0.044115,0,0,0,0
460,0.51453,11.68,0.044375,0,0,0,0
460.5,0.51646,11.687,0.044697,0,0,0,0
461,0.51784,11.693,0.04515,0,0,0,0
461.5,0.51953,11.7,0.045214,0,0,0,0
462,0.52126,11.708,0.045537,0,0,0,0
462.5,0.52294,11.715,0.045667,0,0,0,0
463,0.52504,11.721,0.045601,0,0,0,0
463.5,0.52667,11.725,0.045989,0,0,0,0
464,0.529,11.73,0.045893,0,0,0,0
464.5,0.53092,11.737,0.046279,0,0,0,0
465,0.53312,11.744,0.046505,0,0,0,0
465.5,0.53549,11.75,0.046763,0,0,0,0
466,0.53772,11.755,0.046699,0,0,0,0
466.5,0.53965,11.761,0.046667,0,0,0,0
467,0.54144,11.769,0.047407,0,0,0,0
467.5,0.54319,11.777,0.047376,0,0,0,0
468,0.54505,11.782,0.047827,0,0,0,0
468.5,0.54681,11.787,0.047988,0,0,0,0
469,0.5487,11.796,0.048181,0,0,0,0
469.5,0.55056,11.804,0.04847,0,0,0,0
470,0.55259,11.81,0.048825,0,0,0,0
470.5,0.55469,11.815,0.04934,0,0,0,0
471,0.55705,11.82,0.049243,0,0,0,0
471.5,0.55952,11.824,0.049854,0,0,0,0
472,0.56168,11.83,0.049629,0,0,0,0
472.5,0.56371,11.837,0.04995,0,0,0,0
473,0.56591,11.844,0.050144,0,0,0,0
473.5,0.56756,11.849,0.050337,0,0,0,0
474,0.56986,11.854,0.050625,0,0,0,0
474.5,0.57142,11.859,0.050626,0,0,0,0
475,0.57358,11.865,0.050562,0,0,0,0
475.5,0.57551,11.873,0.050979,0,0,0,0
476,0.57736,11.88,0.051012,0,0,0,0
476.5,0.57946,11.885,0.051492,0,0,0,0
477,0.58176,11.891,0.051622,0,0,0,0
477.5,0.58406,11.898,0.05191,0,0,0,0
478,0.58642,11.904,0.052424,0,0,0,0
478.5,0.58869,11.91,0.052424,0,0,0,0
479,0.59092,11.916,0.052775,0,0,0,0
479.5,0.59274,11.922,0.052967,0,0,0,0
480,0.59443,11.927,0.053255,0,0,0,0
480.5,0.59666,11.931,0.053609,0,0,0,0
481,0.59849,11.935,0.054185,0,0,0,0
481.5,0.60031,11.941,0.054216,0,0,0,0
482,0.60224,11.947,0.05457,0,0,0,0
482.5,0.6042,11.955,0.054505,0,0,0,0
483,0.60633,11.96,0.054824,0,0,0,0
483.5,0.60876,11.966,0.055082,0,0,0,0
484,0.6112,11.971,0.055241,0,0,0,0
484.5,0.61363,11.976,0.055496,0,0,0,0
485,0.616,11.983,0.055752,0,0,0,0
485.5,0.61843,11.99,0.055561,0,0,0,0
486,0.61995,11.996,0.056263,0,0,0,0
486.5,0.62198,12,0.056264,0,0,0,0
487,0.6239,12.005,0.056742,0,0,0,0
487.5,0.6259,12.011,0.056773,0,0,0,0
488,0.62762,12.016,0.057318,0,0,0,0
488.5,0.62982,12.021,0.0577,0,0,0,0
489,0.63178,12.027,0.057955,0,0,0,0
489.5,0.63408,12.032,0.05821,0,0,0,0
490,0.63672,12.036,0.058752,0,0,0,0
490.5,0.63925,12.041,0.059038,0,0,0,0
491,0.64151,12.047,0.059294,0,0,0,0
491.5,0.64371,12.053,0.059357,0,0,0,0
492,0.64581,12.057,0.059739,0,0,0,0
492.5,0.64783,12.062,0.059961,0,0,0,0
493,0.65,12.066,0.060121,0,0,0,0
493.5,0.65192,12.072,0.060629,0,0,0,0
494,0.65395,12.077,0.06082,0,0,0,0
494.5,0.65656,12.084,0.061042,0,0,0,0
495,0.65855,12.088,0.061265,0,0,0,0
495.5,0.66098,12.093,0.06155,0,0,0,0
496,0.66335,12.099,0.061933,0,0,0,0
496.5,0.66588,12.105,0.062155,0,0,0,0
497,0.66852,12.11,0.062123,0,0,0,0
497.5,0.67082,12.114,0.062885,0,0,0,0
498,0.67291,12.118,0.062979,0,0,0,0
498.5,0.67511,12.122,0.063552,0,0,0,0
499,0.6772,12.128,0.06355,0,0,0,0
499.5,0.67916,12.133,0.064059,0,0,0,0
500,0.68122,12.14,0.064439,0,0,0,0
500.5,0.68346,12.145,0.064724,0,0,0,0
501,0.68565,12.151,0.064883,0,0,0,0
501.5,0.68812,12.156,0.06523,0,0,0,0
502,0.69072,12.159,0.065389,0,0,0,0
502.5,0.69333,12.162,0.065706,0,0,0,0
503,0.69539,12.167,0.06618,0,0,0,0
503.5,0.69809,12.173,0.066433,0,0,0,0
504,0.70032,12.177,0.066781,0,0,0,0
504.5,0.70279,12.18,0.066875,0,0,0,0
505,0.70471,12.185,0.067287,0,0,0,0
505.5,0.70691,12.19,0.067761,0,0,0,0
506,0.70897,12.195,0.067949,0,0,0,0
506.5,0.71131,12.2,0.068329,0,0,0,0
507,0.7135,12.205,0.068518,0,0,0,0
507.5,0.716,12.21,0.068738,0,0,0,0
508,0.71837,12.214,0.069243,0,0,0,0
508.5,0.72131,12.217,0.069622,0,0,0,0
509,0.72357,12.224,0.069969,0,0,0,0
509.5,0.72621,12.23,0.07022,0,0,0,0
510,0.72844,12.233,0.070409,0,0,0,0
510.5,0.73071,12.234,0.071071,0,0,0,0
511,0.73243,12.239,0.071354,0,0,0,0
511.5,0.73496,12.243,0.071763,0,0,0,0
512,0.73719,12.247,0.072109,0,0,0,0
512.5,0.73929,12.251,0.072581,0,0,0,0
513,0.74159,12.257,0.072895,0,0,0,0
513.5,0.74406,12.261,0.073335,0,0,0,0
514,0.74676,12.265,0.073303,0,0,0,0
514.5,0.74953,12.269,0.073995,0,0,0,0
515,0.75224,12.273,0.074528,0,0,0,0
515.5,0.75443,12.276,0.074841,0,0,0,0
516,0.75666,12.279,0.075155,0,0,0,0
516.5,0.75886,12.284,0.075406,0,0,0,0
517,0.76109,12.29,0.075656,0,0,0,0
517.5,0.76305,12.295,0.076063,0,0,0,0
518,0.76579,12.299,0.076095,0,0,0,0
518.5,0.76785,12.302,0.076565,0,0,0,0
519,0.77021,12.306,0.076908,0,0,0,0
519.5,0.77285,12.31,0.077221,0,0,0,0
520,0.77569,12.314,0.077534,0,0,0,0
520.5,0.77839,12.318,0.077785,0,0,0,0
521,0.78106,12.322,0.078222,0,0,0,0
521.5,0.78353,12.325,0.078972,0,0,0,0
522,0.78583,12.328,0.079347,0,0,0,0
522.5,0.78833,12.332,0.079721,0,0,0,0
523,0.79059,12.336,0.07994,0,0,0,0
523.5,0.79258,12.341,0.08047,0,0,0,0
524,0.79529,12.345,0.081031,0,0,0,0
524.5,0.79762,12.348,0.081218,0,0,0,0
525,0.79999,12.351,0.081716,0,0,0,0
525.5,0.8029,12.355,0.081965,0,0,0,0
526,0.80556,12.358,0.08237,0,0,0,0
526.5,0.8082,12.361,0.082836,0,0,0,0
527,0.8108,12.363,0.082962,0,0,0,0
527.5,0.81341,12.365,0.083334,0,0,0,0
528,0.8158,12.37,0.083584,0,0,0,0
528.5,0.818,12.376,0.084081,0,0,0,0
529,0.8206,12.38,0.084484,0,0,0,0
529.5,0.823,12.381,0.08523,0,0,0,0
530,0.8255,12.384,0.085105,0,0,0,0
530.5,0.82766,12.388,0.085695,0,0,0,0
531,0.83064,12.393,0.08616,0,0,0,0
531.5,0.83321,12.396,0.086532,0,0,0,0
532,0.83598,12.397,0.08709,0,0,0,0
532.5,0.83889,12.4,0.08743,0,0,0,0
533,0.84156,12.403,0.08774,0,0,0,0
533.5,0.84419,12.407,0.088359,0,0,0,0
534,0.84652,12.409,0.088729,0,0,0,0
534.5,0.84896,12.412,0.089132,0,0,0,0
535,0.85125,12.416,0.089627,0,0,0,0
535.5,0.85369,12.419,0.089874,0,0,0,0
536,0.85629,12.423,0.090151,0,0,0,0
536.5,0.85879,12.426,0.090769,0,0,0,0
537,0.86177,12.428,0.091201,0,0,0,0
537.5,0.86454,12.43,0.091479,0,0,0,0
538,0.86758,12.433,0.092003,0,0,0,0
538.5,0.87032,12.436,0.092465,0,0,0,0
539,0.87278,12.438,0.092927,0,0,0,0
539.5,0.87562,12.44,0.093019,0,0,0,0
540,0.87761,12.442,0.093482,0,0,0,0
540.5,0.88052,12.445,0.094128,0,0,0,0
541,0.88258,12.45,0.094466,0,0,0,0
541.5,0.88495,12.452,0.095173,0,0,0,0
542,0.88772,12.455,0.095849,0,0,0,0
542.5,0.89056,12.456,0.096218,0,0,0,0
543,0.89333,12.458,0.096556,0,0,0,0
543.5,0.89641,12.459,0.097077,0,0,0,0
544,0.89931,12.462,0.097568,0,0,0,0
544.5,0.90198,12.466,0.097966,0,0,0,0
545,0.90489,12.47,0.098334,0,0,0,0
545.5,0.90722,12.472,0.098977,0,0,0,0
546,0.90958,12.474,0.099528,0,0,0,0
546.5,0.91249,12.476,0.10002,0,0,0,0
547,0.91483,12.479,0.10048,0,0,0,0
547.5,0.91732,12.481,0.10112,0,0,0,0
548,0.92003,12.484,0.10167,0,0,0,0
548.5,0.923,12.485,0.10206,0,0,0,0
549,0.92598,12.487,0.10246,0,0,0,0
549.5,0.92902,12.489,0.10301,0,0,0,0
550,0.93176,12.491,0.10347,0,0,0,0
550.5,0.9347,12.494,0.10423,0,0,0,0
551,0.9372,12.497,0.10447,0,0,0,0
551.5,0.93966,12.499,0.10487,0,0,0,0
552,0.94233,12.501,0.10563,0,0,0,0
552.5,0.94514,12.503,0.10612,0,0,0,0
553,0.94771,12.506,0.10672,0,0,0,0
553.5,0.95051,12.508,0.10703,0,0,0,0
554,0.95355,12.511,0.10778,0,0,0,0
554.5,0.95683,12.512,0.10815,0,0,0,0
555,0.95988,12.515,0.10879,0,0,0,0
555.5,0.96288,12.518,0.10939,0,0,0,0
556,0.96545,12.519,0.10994,0,0,0,0
556.5,0.96798,12.519,0.11063,0,0,0,0
557,0.97075,12.519,0.111,0,0,0,0
557.5,0.97359,12.521,0.11175,0,0,0,0
558,0.97606,12.522,0.11227,0,0,0,0
558.5,0.97924,12.524,0.11308,0,0,0,0
559,0.98208,12.526,0.11375,0,0,0,0
559.5,0.98488,12.528,0.11438,0,0,0,0
560,0.9883,12.529,0.1148,0,0,0,0
560.5,0.99144,12.532,0.11534,0,0,0,0
561,0.99414,12.534,0.11613,0,0,0,0
561.5,0.99708,12.535,0.11652,0,0,0,0
562,0.99968,12.534,0.11718,0,0,0,0
562.5,1.0026,12.534,0.11802,0,0,0,0
563,1.005,12.536,0.11856,0,0,0,0
563.5,1.0078,12.539,0.11931,0,0,0,0
564,1.0106,12.54,0.1197,0,0,0,0
564.5,1.0137,12.541,0.12036,0,0,0,0
565,1.0169,12.542,0.12096,0,0,0,0
565.5,1.0202,12.545,0.12171,0,0,0,0
566,1.0233,12.547,0.12231,0,0,0,0
566.5,1.026,12.548,0.1227,0,0,0,0
567,1.029,12.547,0.12344,0,0,0,0
567.5,1.0316,12.546,0.1238,0,0,0,0
568,1.0343,12.547,0.12482,0,0,0,0
568.5,1.0372,12.55,0.12556,0,0,0,0
569,1.0398,12.551,0.12616,0,0,0,0
569.5,1.0428,12.549,0.12693,0,0,0,0
570,1.0461,12.548,0.1275,0,0,0,0
570.5,1.0489,12.549,0.12797,0,0,0,0
571,1.0524,12.55,0.12857,0,0,0,0
571.5,1.0555,12.55,0.12955,0,0,0,0
572,1.0587,12.55,0.13026,0,0,0,0
572.5,1.0616,12.551,0.13106,0,0,0,0
573,1.0643,12.551,0.13171,0,0,0,0
573.5,1.0668,12.552,0.13263,0,0,0,0
574,1.0696,12.553,0.13331,0,0,0,0
574.5,1.0727,12.553,0.13408,0,0,0,0
575,1.0757,12.553,0.13488,0,0,0,0
575.5,1.0791,12.552,0.13562,0,0,0,0
576,1.0821,12.552,0.13638,0,0,0,0
576.5,1.0855,12.553,0.13694,0,0,0,0
577,1.0887,12.555,0.13789,0,0,0,0
577.5,1.0917,12.554,0.13848,0,0,0,0
578,1.0949,12.552,0.13939,0,0,0,0
578.5,1.0976,12.55,0.14009,0,0,0,0
579,1.1004,12.552,0.14092,0,0,0,0
579.5,1.1036,12.552,0.14183,0,0,0,0
580,1.1061,12.55,0.1427,0,0,0,0
580.5,1.1094,12.549,0.14341,0,0,0,0
581,1.113,12.55,0.14446,0,0,0,0
581.5,1.1163,12.55,0.14551,0,0,0,0
582,1.1195,12.549,0.14616,0,0,0,0
582.5,1.1228,12.548,0.14709,0,0,0,0
583,1.1258,12.549,0.14811,0,0,0,0
583.5,1.1287,12.549,0.1489,0,0,0,0
584,1.1317,12.548,0.14969,0,0,0,0
584.5,1.1347,12.547,0.1507,0,0,0,0
585,1.1377,12.545,0.15149,0,0,0,0
585.5,1.141,12.545,0.1523,0,0,0,0
586,1.1443,12.544,0.15332,0,0,0,0
586.5,1.1475,12.543,0.1543,0,0,0,0
587,1.1508,12.542,0.15532,0,0,0,0
587.5,1.1541,12.542,0.15598,0,0,0,0
588,1.1574,12.541,0.15705,0,0,0,0
588.5,1.1606,12.539,0.15786,0,0,0,0
589,1.1635,12.536,0.15864,0,0,0,0
589.5,1.1666,12.534,0.15959,0,0,0,0
590,1.1699,12.533,0.16071,0,0,0,0
590.5,1.1729,12.534,0.16135,0,0,0,0
591,1.1762,12.533,0.16252,0,0,0,0
591.5,1.1794,12.531,0.16336,0,0,0,0
592,1.1832,12.527,0.16442,0,0,0,0
592.5,1.1868,12.526,0.16537,0,0,0,0
593,1.1902,12.526,0.16634,0,0,0,0
593.5,1.1931,12.524,0.16745,0,0,0,0
594,1.1963,12.522,0.16817,0,0,0,0
594.5,1.1992,12.52,0.16937,0,0,0,0
595,1.2023,12.519,0.1702,0,0,0,0
595.5,1.2053,12.516,0.17122,0,0,0,0
596,1.2086,12.514,0.17228,0,0,0,0
596.5,1.2124,12.512,0.17324,0,0,0,0
597,1.2163,12.509,0.17444,0,0,0,0
597.5,1.2195,12.507,0.17529,0,0,0,0
598,1.2232,12.504,0.17628,0,0,0,0
598.5,1.2262,12.5,0.17741,0,0,0,0
599,1.2295,12.496,0.17866,0,0,0,0
599.5,1.2325,12.494,0.17962,0,0,0,0
600,1.2359,12.492,0.18089,0,0,0,0
600.5,1.2391,12.489,0.18205,0,0,0,0
601,1.2425,12.486,0.18343,0,0,0,0
601.5,1.2463,12.483,0.18438,0,0,0,0
602,1.2505,12.48,0.18539,0,0,0,0
602.5,1.2534,12.477,0.1866,0,0,0,0
603,1.257,12.474,0.18764,0,0,0,0
603.5,1.2603,12.469,0.18918,0,0,0,0
604,1.2636,12.464,0.19038,0,0,0,0
604.5,1.2666,12.459,0.19155,0,0,0,0
605,1.2699,12.455,0.19275,0,0,0,0
605.5,1.2732,12.457,0.19373,0,0,0,0
606,1.2768,12.456,0.19515,0,0,0,0
606.5,1.2807,12.45,0.19626,0,0,0,0
607,1.2846,12.441,0.19734,0,0,0,0
607.5,1.2879,12.438,0.19829,0,0,0,0
608,1.2916,12.435,0.19987,0,0,0,0
608.5,1.295,12.432,0.20081,0,0,0,0
609,1.2983,12.427,0.20205,0,0,0,0
609.5,1.3013,12.423,0.20327,0,0,0,0
610,1.3048,12.418,0.20465,0,0,0,0
610.5,1.3081,12.414,0.20597,0,0,0,0
611,1.3119,12.409,0.20715,0,0,0,0
611.5,1.3157,12.405,0.20869,0,0,0,0
612,1.3196,12.4,0.21003,0,0,0,0
612.5,1.3233,12.396,0.21137,0,0,0,0
613,1.3268,12.391,0.21258,0,0,0,0
613.5,1.3303,12.387,0.21413,0,0,0,0
614,1.3338,12.383,0.21528,0,0,0,0
614.5,1.3369,12.379,0.21705,0,0,0,0
615,1.3404,12.372,0.21846,0,0,0,0
615.5,1.3439,12.367,0.21993,0,0,0,0
616,1.3476,12.361,0.22137,0,0,0,0
616.5,1.3515,12.355,0.22278,0,0,0,0
617,1.3556,12.348,0.22416,0,0,0,0
617.5,1.3593,12.342,0.22559,0,0,0,0
618,1.3628,12.337,0.22699,0,0,0,0
618.5,1.3665,12.332,0.22844,0,0,0,0
619,1.3699,12.326,0.22998,0,0,0,0
619.5,1.3732,12.319,0.23159,0,0,0,0
620,1.3768,12.313,0.23298,0,0,0,0
620.5,1.3804,12.306,0.23459,0,0,0,0
621,1.3842,12.3,0.23606,0,0,0,0
621.5,1.3883,12.292,0.23752,0,0,0,0
622,1.3921,12.284,0.23904,0,0,0,0
622.5,1.3958,12.277,0.24037,0,0,0,0
623,1.3997,12.272,0.24194,0,0,0,0
623.5,1.403,12.267,0.24343,0,0,0,0
624,1.4066,12.259,0.24473,0,0,0,0
624.5,1.4099,12.25,0.24634,0,0,0,0
625,1.4135,12.241,0.24809,0,0,0,0
625.5,1.4178,12.234,0.24943,0,0,0,0
626,1.4218,12.226,0.25069,0,0,0,0
626.5,1.4257,12.218,0.2528,0,0,0,0
627,1.43,12.211,0.25432,0,0,0,0
627.5,1.4334,12.204,0.25605,0,0,0,0
628,1.437,12.196,0.25749,0,0,0,0
628.5,1.4406,12.187,0.25911,0,0,0,0
629,1.4444,12.177,0.26114,0,0,0,0
629.5,1.448,12.168,0.26258,0,0,0,0
630,1.4518,12.16,0.26442,0,0,0,0
630.5,1.4559,12.149,0.26595,0,0,0,0
631,1.4601,12.138,0.26777,0,0,0,0
631.5,1.4644,12.129,0.26929,0,0,0,0
632,1.468,12.121,0.27094,0,0,0,0
632.5,1.4717,12.112,0.2727,0,0,0,0
633,1.4751,12.101,0.27429,0,0,0,0
633.5,1.479,12.089,0.27625,0,0,0,0
634,1.483,12.078,0.27794,0,0,0,0
634.5,1.487,12.068,0.27958,0,0,0,0
635,1.4908,12.056,0.2817,0,0,0,0
635.5,1.4952,12.045,0.28325,0,0,0,0
636,1.4994,12.034,0.28504,0,0,0,0
636.5,1.5032,12.023,0.28684,0,0,0,0
637,1.5073,12.012,0.28854,0,0,0,0
637.5,1.511,12,0.29042,0,0,0,0
638,1.5149,11.988,0.29242,0,0,0,0
638.5,1.5184,11.975,0.29411,0,0,0,0
639,1.5224,11.963,0.29595,0,0,0,0
639.5,1.5267,11.951,0.29801,0,0,0,0
640,1.531,11.938,0.29984,0,0,0,0
640.5,1.5353,11.925,0.30172,0,0,0,0
641,1.5393,11.912,0.30387,0,0,0,0
641.5,1.5435,11.899,0.3058,0,0,0,0
642,1.5474,11.885,0.30814,0,0,0,0
642.5,1.5513,11.869,0.3102,0,0,0,0
643,1.5551,11.853,0.3121,0,0,0,0
643.5,1.5591,11.839,0.31401,0,0,0,0
644,1.5638,11.825,0.31615,0,0,0,0
644.5,1.5686,11.808,0.3181,0,0,0,0
645,1.5728,11.792,0.32031,0,0,0,0
645.5,1.5769,11.776,0.32257,0,0,0,0
646,1.5809,11.76,0.32473,0,0,0,0
646.5,1.585,11.741,0.32673,0,0,0,0
647,1.5895,11.723,0.32905,0,0,0,0
647.5,1.5934,11.703,0.3317,0,0,0,0
648,1.598,11.684,0.33401,0,0,0,0
648.5,1.6028,11.662,0.33589,0,0,0,0
649,1.6077,11.632,0.33856,0,0,0,0