File: polyN_optimization/DP780_results/DATA/NT6_00_1.csv
Time[s],Displacement[mm],Force[kN],AxStrain_1,AxStrain_2,Thickness[mm],OuterWidth[mm],InnerWidth[mm]
0,0,-0.041059,0,0,1.4938,19.968,10.04
0.5,0.00018,-0.021424,0.00018498,0,0,0,0
1,0.000367,0.0002,-2.7e-05,0,0,0,0
1.5,4.5e-05,0.036988,0.00020898,0,0,0,0
2,6e-06,0.071263,1e-06,0,0,0,0
2.5,0.000339,0.10293,-0.00018902,0,0,0,0
3,0.000508,0.13141,-0.00014401,0,0,0,0
3.5,0.000288,0.15899,-1e-05,0,0,0,0
4,0.000518,0.18199,-0.00034606,0,0,0,0
4.5,0.000606,0.20388,0.00013299,0,0,0,0
5,0.00045,0.22438,-0.00012901,0,0,0,0
5.5,0.000749,0.2458,5.3999e-05,0,0,0,0
6,0.000339,0.2671,-0.00028504,0,0,0,0
6.5,0.000742,0.28853,-8.7004e-05,0,0,0,0
7,0.000933,0.30983,-0.00016601,0,0,0,0
7.5,0.001032,0.33067,-0.00027904,0,0,0,0
8,0.001033,0.35256,-1.8e-05,0,0,0,0
8.5,0.001237,0.37443,-0.00019902,0,0,0,0
9,0.001161,0.39673,4e-06,0,0,0,0
9.5,0.001354,0.41665,-0.00020302,0,0,0,0
10,0.001262,0.43592,-2.9e-05,0,0,0,0
10.5,0.001774,0.45644,-0.00011501,0,0,0,0
11,0.001932,0.47764,-9.8005e-05,0,0,0,0
11.5,0.001795,0.49792,2.4e-05,0,0,0,0
12,0.001879,0.51773,-0.00025003,0,0,0,0
12.5,0.001481,0.53893,-7.8003e-05,0,0,0,0
13,0.001802,0.55854,3e-05,0,0,0,0
13.5,0.001907,0.57792,0.00018598,0,0,0,0
14,0.001683,0.59727,-9.8005e-05,0,0,0,0
14.5,0.001589,0.61732,-0.00010101,0,0,0,0
15,0.001501,0.63772,0.00026696,0,0,0,0
15.5,0.001535,0.65821,-6.1002e-05,0,0,0,0
16,0.001636,0.67734,-0.00019302,0,0,0,0
16.5,0.001822,0.69717,0.00011499,0,0,0,0
17,0.001721,0.71893,-0.00021302,0,0,0,0
17.5,0.00167,0.73863,-6.8002e-05,0,0,0,0
18,0.001785,0.75686,0.00014199,0,0,0,0
18.5,0.002039,0.77578,-0.00015501,0,0,0,0
19,0.002302,0.79458,-0.00020602,0,0,0,0
19.5,0.002549,0.81349,-0.00010101,0,0,0,0
20,0.002366,0.83375,-2.7e-05,0,0,0,0
20.5,0.002914,0.85427,-9.1004e-05,0,0,0,0
21,0.003161,0.87386,-8.4004e-05,0,0,0,0
21.5,0.002978,0.89413,-6.4002e-05,0,0,0,0
22,0.003462,0.91258,-0.00019902,0,0,0,0
22.5,0.003408,0.93061,-0.00010101,0,0,0,0
23,0.003404,0.94848,-0.00011801,0,0,0,0
23.5,0.003492,0.96639,-2.7e-05,0,0,0,0
24,0.003475,0.98791,0.00015499,0,0,0,0
24.5,0.003198,1.0086,-7e-06,0,0,0,0
25,0.00333,1.0262,8.7996e-05,0,0,0,0
25.5,0.003154,1.0418,0.00011799,0,0,0,0
26,0.003364,1.0609,6.7998e-05,0,0,0,0
26.5,0.003138,1.0784,-0.00015201,0,0,0,0
27,0.003307,1.0958,-0.00023303,0,0,0,0
27.5,0.003178,1.114,3.3999e-05,0,0,0,0
28,0.003276,1.1323,-0.00013901,0,0,0,0
28.5,0.003871,1.1504,-0.00042909,0,0,0,0
29,0.003601,1.1682,-1e-05,0,0,0,0
29.5,0.00399,1.1867,-0.00026704,0,0,0,0
30,0.003865,1.2048,-0.00033506,0,0,0,0
30.5,0.003956,1.2219,-3.7001e-05,0,0,0,0
31,0.004406,1.2379,-0.00014201,0,0,0,0
31.5,0.004382,1.2565,-6.8002e-05,0,0,0,0
32,0.004582,1.2754,-0.00027004,0,0,0,0
32.5,0.005109,1.2917,-0.00022002,0,0,0,0
33,0.00489,1.3055,-0.00014901,0,0,0,0
33.5,0.005133,1.3208,-5.1001e-05,0,0,0,0
34,0.005299,1.3383,0.00012199,0,0,0,0
34.5,0.005015,1.3564,0.00010199,0,0,0,0
35,0.004623,1.3739,0.00017299,0,0,0,0
35.5,0.00509,1.3897,0.00013899,0,0,0,0
36,0.004816,1.4053,-7.8003e-05,0,0,0,0
36.5,0.004816,1.4221,8.7996e-05,0,0,0,0
37,0.004769,1.4394,3.1e-05,0,0,0,0
37.5,0.004488,1.4553,-9.5005e-05,0,0,0,0
38,0.004607,1.4712,5.3999e-05,0,0,0,0
38.5,0.00483,1.4901,1.4e-05,0,0,0,0
39,0.004844,1.5078,4.0999e-05,0,0,0,0
39.5,0.005162,1.5231,-4.4001e-05,0,0,0,0
40,0.005354,1.5388,-3.4001e-05,0,0,0,0
40.5,0.00551,1.5559,-3.7001e-05,0,0,0,0
41,0.006051,1.5721,0.00011799,0,0,0,0
41.5,0.00597,1.5883,-0.00010101,0,0,0,0
42,0.00598,1.6054,0.00011499,0,0,0,0
42.5,0.006261,1.6221,5.0999e-05,0,0,0,0
43,0.006623,1.6377,0.00013199,0,0,0,0
43.5,0.006954,1.6529,0.00023297,0,0,0,0
44,0.007198,1.6686,0.00026397,0,0,0,0
44.5,0.007296,1.6847,7.7997e-05,0,0,0,0
45,0.006928,1.7004,0.00012499,0,0,0,0
45.5,0.0066,1.7168,3.6999e-05,0,0,0,0
46,0.006516,1.7327,0.00023697,0,0,0,0
46.5,0.00633,1.7481,0.00027096,0,0,0,0
47,0.006287,1.7627,0.00018898,0,0,0,0
47.5,0.006469,1.7778,0.00017299,0,0,0,0
48,0.006223,1.7932,0.00019598,0,0,0,0
48.5,0.006304,1.8086,7.7997e-05,0,0,0,0
49,0.006592,1.8227,9.4995e-05,0,0,0,0
49.5,0.006436,1.8385,0.00013499,0,0,0,0
50,0.006586,1.8559,-1.7e-05,0,0,0,0
50.5,0.0071,1.8727,-0.00022603,0,0,0,0
51,0.00708,1.8868,-0.00012101,0,0,0,0
51.5,0.007252,1.9011,0.00015599,0,0,0,0
52,0.007499,1.9175,4.3999e-05,0,0,0,0
52.5,0.007993,1.9333,0.00028396,0,0,0,0
53,0.008054,1.9492,-6e-06,0,0,0,0
53.5,0.008497,1.965,0.00012199,0,0,0,0
54,0.00865,1.9812,0.00024997,0,0,0,0
54.5,0.008995,1.9963,0.00035494,0,0,0,0
55,0.00883,2.0097,0.00013899,0,0,0,0
55.5,0.008695,2.023,0.00030795,0,0,0,0
56,0.008205,2.0384,0.00023997,0,0,0,0
56.5,0.008415,2.0558,0.00026397,0,0,0,0
57,0.00827,2.0716,3.6999e-05,0,0,0,0
57.5,0.00826,2.0873,0.00028796,0,0,0,0
58,0.007733,2.1021,0.00015199,0,0,0,0
58.5,0.007984,2.1167,-7.4003e-05,0,0,0,0
59,0.007748,2.1307,3.6999e-05,0,0,0,0
59.5,0.008306,2.1455,-0.00015501,0,0,0,0
60,0.008002,2.1596,-3e-05,0,0,0,0
60.5,0.008313,2.1737,-3e-06,0,0,0,0
61,0.008591,2.1888,6.7998e-05,0,0,0,0
61.5,0.008946,2.2057,-1.6e-05,0,0,0,0
62,0.00921,2.2222,-7.7003e-05,0,0,0,0
62.5,0.009407,2.2361,-1.3e-05,0,0,0,0
63,0.009562,2.2499,-1.7e-05,0,0,0,0
63.5,0.010128,2.2647,4.4999e-05,0,0,0,0
64,0.010301,2.2796,7.1997e-05,0,0,0,0
64.5,0.010805,2.2937,9.4995e-05,0,0,0,0
65,0.010545,2.3083,4.0999e-05,0,0,0,0
65.5,0.010948,2.3235,5.7998e-05,0,0,0,0
66,0.010735,2.338,4e-06,0,0,0,0
66.5,0.010644,2.3536,2.8e-05,0,0,0,0
67,0.010465,2.3696,0.00027796,0,0,0,0
67.5,0.010483,2.3842,-0.00014101,0,0,0,0
68,0.010183,2.3974,0.00023397,0,0,0,0
68.5,0.010234,2.4114,3.3999e-05,0,0,0,0
69,0.010123,2.426,0.00019998,0,0,0,0
69.5,0.009951,2.44,6.0998e-05,0,0,0,0
70,0.009471,2.4545,2.8e-05,0,0,0,0
70.5,0.010216,2.4685,4.4999e-05,0,0,0,0
71,0.010013,2.4833,6.8998e-05,0,0,0,0
71.5,0.010457,2.4986,8.4996e-05,0,0,0,0
72,0.010907,2.5145,3.1e-05,0,0,0,0
72.5,0.010428,2.5297,-2.6e-05,0,0,0,0
73,0.011094,2.5437,0.00010199,0,0,0,0
73.5,0.011402,2.5574,-7.0002e-05,0,0,0,0
74,0.011666,2.5712,0.00027096,0,0,0,0
74.5,0.012136,2.5842,3.4999e-05,0,0,0,0
75,0.012133,2.5976,0.00026097,0,0,0,0
75.5,0.012354,2.6119,0.00013299,0,0,0,0
76,0.012649,2.6255,0.0004569,0,0,0,0
76.5,0.012741,2.6393,0.00026796,0,0,0,0
77,0.012582,2.6537,0.00027096,0,0,0,0
77.5,0.012664,2.6706,0.00017698,0,0,0,0
78,0.012678,2.6863,1.5e-05,0,0,0,0
78.5,0.012412,2.7004,0.00022098,0,0,0,0
79,0.012159,2.7113,0.00048388,0,0,0,0
79.5,0.012163,2.7233,0.00036893,0,0,0,0
80,0.011978,2.737,0.00025497,0,0,0,0
80.5,0.011924,2.7522,9.8995e-05,0,0,0,0
81,0.011736,2.7666,0.00014999,0,0,0,0
81.5,0.011777,2.7799,0.00024797,0,0,0,0
82,0.011851,2.7927,0.00020698,0,0,0,0
82.5,0.012204,2.8065,0.00046089,0,0,0,0
83,0.01211,2.8201,0.00030895,0,0,0,0
83.5,0.012557,2.8356,0.00024497,0,0,0,0
84,0.012679,2.85,0.00024497,0,0,0,0
84.5,0.013289,2.8656,0.00046789,0,0,0,0
85,0.013424,2.8794,0.00030195,0,0,0,0
85.5,0.01361,2.8932,0.0004369,0,0,0,0
86,0.014054,2.9067,0.00017698,0,0,0,0
86.5,0.014193,2.9214,0.00041991,0,0,0,0
87,0.014451,2.9348,0.00040692,0,0,0,0
87.5,0.014536,2.9477,0.00032895,0,0,0,0
88,0.014624,2.9625,0.0004369,0,0,0,0
88.5,0.014392,2.977,0.00058983,0,0,0,0
89,0.014585,2.9906,0.00029196,0,0,0,0
89.5,0.014501,3.0036,0.00028796,0,0,0,0
90,0.014573,3.0176,0.00049188,0,0,0,0
90.5,0.01428,3.0311,0.00049088,0,0,0,0
91,0.013905,3.0449,0.00032895,0,0,0,0
91.5,0.013774,3.0584,0.00052486,0,0,0,0
92,0.013724,3.0718,0.00025797,0,0,0,0
92.5,0.014019,3.0858,0.00033894,0,0,0,0
93,0.013976,3.1005,0.00017398,0,0,0,0
93.5,0.014058,3.1145,0.00039692,0,0,0,0
94,0.013944,3.1273,0.00047389,0,0,0,0
94.5,0.014313,3.1413,0.00030595,0,0,0,0
95,0.01434,3.1557,5.2999e-05,0,0,0,0
95.5,0.014896,3.1696,0.00011899,0,0,0,0
96,0.015073,3.1845,0.00025797,0,0,0,0
96.5,0.015581,3.2,0.00015299,0,0,0,0
97,0.015761,3.2135,0.00034594,0,0,0,0
97.5,0.016028,3.2257,0.00033994,0,0,0,0
98,0.016411,3.2391,0.00017398,0,0,0,0
98.5,0.016655,3.2528,0.00047189,0,0,0,0
99,0.016511,3.2667,0.0004509,0,0,0,0
99.5,0.016535,3.2809,9.9995e-05,0,0,0,0
100,0.016462,3.2943,0.00031595,0,0,0,0
100.5,0.016669,3.3083,0.00059982,0,0,0,0
101,0.016213,3.3225,0.00034994,0,0,0,0
101.5,0.016008,3.3368,0.00018098,0,0,0,0
102,0.015968,3.3498,0.00041791,0,0,0,0
102.5,0.016064,3.363,0.00020498,0,0,0,0
103,0.016014,3.3766,0.00017099,0,0,0,0
103.5,0.015728,3.3921,0.00020498,0,0,0,0
104,0.01581,3.4063,0.00020498,0,0,0,0
104.5,0.015868,3.4199,-1.1e-05,0,0,0,0
105,0.015872,3.4331,0.00028296,0,0,0,0
105.5,0.016066,3.4465,0.00025197,0,0,0,0
106,0.016442,3.4593,9.3996e-05,0,0,0,0
106.5,0.016808,3.4736,0.00013099,0,0,0,0
107,0.01707,3.4887,0.00043491,0,0,0,0
107.5,0.017669,3.503,0.00020198,0,0,0,0
108,0.017565,3.5167,0.00041791,0,0,0,0
108.5,0.017874,3.5297,0.00029596,0,0,0,0
109,0.018531,3.5434,0.00035694,0,0,0,0
109.5,0.018494,3.559,0.00046189,0,0,0,0
110,0.018569,3.5757,0.00040092,0,0,0,0
110.5,0.018658,3.5894,0.00047489,0,0,0,0
111,0.018632,3.601,0.00057783,0,0,0,0
111.5,0.018545,3.6133,0.00017199,0,0,0,0
112,0.018297,3.6273,0.00017099,0,0,0,0
112.5,0.018132,3.6417,0.00037493,0,0,0,0
113,0.018343,3.655,0.00030695,0,0,0,0
113.5,0.018175,3.6664,0.0004429,0,0,0,0
114,0.018074,3.6788,0.00030695,0,0,0,0
114.5,0.01811,3.6926,0.00023897,0,0,0,0
115,0.018043,3.7068,0.00020598,0,0,0,0
115.5,0.017943,3.7198,0.00013799,0,0,0,0
116,0.018248,3.7333,0.00027296,0,0,0,0
116.5,0.018351,3.7463,0.00030695,0,0,0,0
117,0.018488,3.7604,0.0004419,0,0,0,0
117.5,0.019064,3.7754,0.00040892,0,0,0,0
118,0.019166,3.7895,0.00027296,0,0,0,0
118.5,0.019505,3.8025,0.0004419,0,0,0,0
119,0.01981,3.8154,0.0004429,0,0,0,0
119.5,0.020015,3.8291,0.00061181,0,0,0,0
120,0.020455,3.8431,0.00040892,0,0,0,0
120.5,0.020422,3.8579,0.00030795,0,0,0,0
121,0.020694,3.8711,0.0004419,0,0,0,0
121.5,0.020695,3.8842,0.00057783,0,0,0,0
122,0.020832,3.8982,0.00071375,0,0,0,0
122.5,0.020765,3.9126,0.00040992,0,0,0,0
123,0.020598,3.9251,0.00040892,0,0,0,0
123.5,0.020802,3.9373,0.0004429,0,0,0,0
124,0.020498,3.9497,0.00064479,0,0,0,0
124.5,0.020567,3.9628,0.0007807,0,0,0,0
125,0.020298,3.9773,0.00040992,0,0,0,0
125.5,0.02003,3.9929,0.00071375,0,0,0,0
126,0.02047,4.0086,0.00034194,0,0,0,0
126.5,0.02047,4.0232,0.00034194,0,0,0,0
127,0.020472,4.0356,0.00020598,0,0,0,0
127.5,0.020237,4.0483,0.00054485,0,0,0,0
128,0.020542,4.0613,0.00037493,0,0,0,0
128.5,0.021017,4.0753,0.00027396,0,0,0,0
129,0.021017,4.0873,0.00040892,0,0,0,0
129.5,0.021696,4.1005,0.00047789,0,0,0,0
130,0.022068,4.1136,0.00051087,0,0,0,0
130.5,0.022138,4.1279,0.00030795,0,0,0,0
131,0.022172,4.1418,0.00057783,0,0,0,0
131.5,0.022478,4.1582,0.00047789,0,0,0,0
132,0.022682,4.1722,0.00054485,0,0,0,0
132.5,0.022953,4.1831,0.00037593,0,0,0,0
133,0.022887,4.1943,0.00057883,0,0,0,0
133.5,0.022956,4.2077,0.00064679,0,0,0,0
134,0.022856,4.2214,0.0004429,0,0,0,0
134.5,0.022722,4.2342,0.00047789,0,0,0,0
135,0.022757,4.2483,0.0004439,0,0,0,0
135.5,0.022758,4.2623,0.00071474,0,0,0,0
136,0.022828,4.2755,0.00051087,0,0,0,0
136.5,0.022593,4.2873,0.0004439,0,0,0,0
137,0.022425,4.3003,0.00054485,0,0,0,0
137.5,0.022494,4.3151,0.00027496,0,0,0,0
138,0.022529,4.3291,0.00051087,0,0,0,0
138.5,0.022936,4.3422,0.00027496,0,0,0,0
139,0.022971,4.3548,0.0004439,0,0,0,0
139.5,0.023142,4.3683,0.00041092,0,0,0,0
140,0.023649,4.3818,0.00047789,0,0,0,0
140.5,0.023887,4.3954,0.00040992,0,0,0,0
141,0.024125,4.4085,0.00024097,0,0,0,0
141.5,0.024329,4.4217,0.00040992,0,0,0,0
142,0.024296,4.4365,0.00054485,0,0,0,0
142.5,0.024703,4.4519,0.00068077,0,0,0,0
143,0.025009,4.4659,0.00047789,0,0,0,0
143.5,0.024875,4.4777,0.00067977,0,0,0,0
144,0.024978,4.4908,0.00061281,0,0,0,0
144.5,0.025012,4.506,0.00071474,0,0,0,0
145,0.025149,4.5205,0.00051187,0,0,0,0
145.5,0.025218,4.5338,0.00064579,0,0,0,0
146,0.025421,4.5466,0.00054485,0,0,0,0
146.5,0.025187,4.5601,0.00057883,0,0,0,0
147,0.025256,4.5756,0.00047789,0,0,0,0
147.5,0.025021,4.5915,0.00024197,0,0,0,0
148,0.02509,4.6031,0.00061381,0,0,0,0
148.5,0.025395,4.6131,0.00057883,0,0,0,0
149,0.025498,4.6254,0.00064779,0,0,0,0
149.5,0.02533,4.6391,0.00061381,0,0,0,0
150,0.025873,4.6516,0.00037693,0,0,0,0
150.5,0.025908,4.664,0.00037593,0,0,0,0
151,0.026247,4.6773,0.00054585,0,0,0,0
151.5,0.026418,4.6897,0.00040992,0,0,0,0
152,0.026282,4.7031,0.00034294,0,0,0,0
152.5,0.026928,4.7183,0.00047789,0,0,0,0
153,0.026996,4.7336,0.00074772,0,0,0,0
153.5,0.027098,4.7471,0.00054585,0,0,0,0
154,0.027403,4.7606,0.00074872,0,0,0,0
154.5,0.026559,4.7747,0.00037593,0,0,0,0
155,0.027508,4.7887,0.00061281,0,0,0,0
155.5,0.027578,4.8018,0.00047789,0,0,0,0
156,0.027816,4.8148,0.00074872,0,0,0,0
156.5,0.027918,4.8275,0.00064779,0,0,0,0
157,0.027952,4.8416,0.00081567,0,0,0,0
157.5,0.027921,4.8554,0.00068077,0,0,0,0
158,0.027889,4.8692,0.00078169,0,0,0,0
158.5,0.027856,4.881,0.00051187,0,0,0,0
159,0.027892,4.8929,0.00071474,0,0,0,0
159.5,0.027724,4.9046,0.00061381,0,0,0,0
160,0.028132,4.9165,0.00071474,0,0,0,0
160.5,0.028064,4.9298,0.00057983,0,0,0,0
161,0.028133,4.9451,0.00057983,0,0,0,0
161.5,0.028778,4.9599,0.00081567,0,0,0,0
162,0.028947,4.9737,0.00071474,0,0,0,0
162.5,0.02831,4.9861,0.00054585,0,0,0,0
163,0.029257,4.9979,0.00051287,0,0,0,0
163.5,0.029156,5.0112,0.00061281,0,0,0,0
164,0.028785,5.0252,0.00078269,0,0,0,0
164.5,0.029699,5.0376,0.00064779,0,0,0,0
165,0.029667,5.0495,0.0010864,0,0,0,0
165.5,0.029331,5.0637,0.00095255,0,0,0,0
166,0.029973,5.0777,0.00088461,0,0,0,0
166.5,0.029572,5.0921,0.00088361,0,0,0,0
167,0.030281,5.1054,0.00098551,0,0,0,0
167.5,0.031095,5.1171,0.00085064,0,0,0,0
168,0.030724,5.1279,0.00088461,0,0,0,0
168.5,0.030256,5.1405,0.00068177,0,0,0,0
169,0.0311,5.1545,0.00068177,0,0,0,0
169.5,0.03073,5.1679,0.00064879,0,0,0,0
170,0.031338,5.1822,0.00074872,0,0,0,0
170.5,0.031544,5.1972,0.00074972,0,0,0,0
171,0.030836,5.2116,0.0010205,0,0,0,0
171.5,0.031278,5.2245,0.00051287,0,0,0,0
172,0.031244,5.2371,0.00085064,0,0,0,0
172.5,0.031279,5.2508,0.00058083,0,0,0,0
173,0.031923,5.2648,0.00098651,0,0,0,0
173.5,0.032027,5.2787,0.0010554,0,0,0,0
174,0.032095,5.2912,0.0010205,0,0,0,0
174.5,0.031995,5.3047,0.00085164,0,0,0,0
175,0.032065,5.3188,0.0010544,0,0,0,0
175.5,0.032506,5.3325,0.0010884,0,0,0,0
176,0.032339,5.3459,0.0012233,0,0,0,0
176.5,0.032647,5.3586,0.00098751,0,0,0,0
177,0.032884,5.3707,0.0011563,0,0,0,0
177.5,0.032885,5.384,0.00078469,0,0,0,0
178,0.032921,5.4008,0.00098751,0,0,0,0
178.5,0.033158,5.4157,0.00098751,0,0,0,0
179,0.0336,5.429,0.00075072,0,0,0,0
179.5,0.033198,5.4408,0.00081966,0,0,0,0
180,0.033536,5.4547,0.0010215,0,0,0,0
180.5,0.033503,5.4673,0.00095355,0,0,0,0
181,0.033978,5.4807,0.00098851,0,0,0,0
181.5,0.033878,5.494,0.00085164,0,0,0,0
182,0.034456,5.5082,0.00064979,0,0,0,0
182.5,0.034626,5.522,0.00081866,0,0,0,0
183,0.034188,5.5351,0.00088561,0,0,0,0
183.5,0.034527,5.5485,0.0010225,0,0,0,0
184,0.034563,5.5614,0.00095454,0,0,0,0
184.5,0.034835,5.5762,0.0010225,0,0,0,0
185,0.035276,5.5902,0.0012243,0,0,0,0
185.5,0.034839,5.6023,0.0011234,0,0,0,0
186,0.035144,5.6127,0.0011913,0,0,0,0
186.5,0.03518,5.6257,0.0012922,0,0,0,0
187,0.03562,5.6391,0.0012932,0,0,0,0
187.5,0.035521,5.6506,0.0015288,0,0,0,0
188,0.035758,5.6631,0.001428,0,0,0,0
188.5,0.0361,5.6775,0.0011573,0,0,0,0
189,0.036338,5.6929,0.0011244,0,0,0,0
189.5,0.036643,5.7063,0.0011244,0,0,0,0
190,0.036814,5.7205,0.0013281,0,0,0,0
190.5,0.036883,5.7338,0.0010255,0,0,0,0
191,0.037122,5.7471,0.00095754,0,0,0,0
191.5,0.037562,5.7601,0.0010245,0,0,0,0
192,0.037497,5.7736,0.0012942,0,0,0,0
192.5,0.037669,5.7864,0.0012942,0,0,0,0
193,0.037635,5.7981,0.0010594,0,0,0,0
193.5,0.03801,5.8103,0.0010584,0,0,0,0
194,0.038044,5.8237,0.0010604,0,0,0,0
194.5,0.037946,5.837,0.0012612,0,0,0,0
195,0.038116,5.8498,0.0012292,0,0,0,0
195.5,0.037779,5.863,0.001399,0,0,0,0
196,0.038052,5.8772,0.0014649,0,0,0,0
196.5,0.038323,5.8901,0.0012622,0,0,0,0
197,0.038257,5.903,0.0014999,0,0,0,0
197.5,0.038563,5.9161,0.0012962,0,0,0,0
198,0.039038,5.9303,0.0017694,0,0,0,0
198.5,0.039175,5.9438,0.0016017,0,0,0,0
199,0.03931,5.9575,0.0015338,0,0,0,0
199.5,0.039651,5.9713,0.0012292,0,0,0,0
200,0.039923,5.9849,0.0015997,0,0,0,0
200.5,0.04033,5.9974,0.0013301,0,0,0,0
201,0.040535,6.0087,0.0017006,0,0,0,0
201.5,0.040941,6.0229,0.0012952,0,0,0,0
202,0.041214,6.037,0.0012302,0,0,0,0
202.5,0.04152,6.0492,0.0010614,0,0,0,0
203,0.04176,6.0596,0.0010934,0,0,0,0
203.5,0.041895,6.0721,0.0012302,0,0,0,0
204,0.041728,6.0854,0.0012962,0,0,0,0
204.5,0.041764,6.0988,0.0012292,0,0,0,0
205,0.042001,6.1123,0.0011953,0,0,0,0
205.5,0.041903,6.1244,0.0013291,0,0,0,0
206,0.041668,6.1365,0.0015668,0,0,0,0
206.5,0.041636,6.1497,0.0013631,0,0,0,0
207,0.041875,6.1651,0.0015997,0,0,0,0
207.5,0.042247,6.1801,0.0019381,0,0,0,0
208,0.042485,6.1934,0.0014639,0,0,0,0
208.5,0.042792,6.2053,0.0014979,0,0,0,0
209,0.043132,6.2168,0.0015987,0,0,0,0
209.5,0.04327,6.2309,0.0013621,0,0,0,0
210,0.043777,6.2449,0.0015308,0,0,0,0
210.5,0.044119,6.2579,0.0012602,0,0,0,0
211,0.044729,6.269,0.0013291,0,0,0,0
211.5,0.044764,6.282,0.0012602,0,0,0,0
212,0.045442,6.2954,0.0012282,0,0,0,0
212.5,0.045681,6.3093,0.0012602,0,0,0,0
213,0.045919,6.3226,0.0015308,0,0,0,0
213.5,0.045888,6.3351,0.0012612,0,0,0,0
214,0.046059,6.3486,0.0012262,0,0,0,0
214.5,0.046163,6.3624,0.0013271,0,0,0,0
215,0.046165,6.3763,0.001428,0,0,0,0
215.5,0.045896,6.3896,0.0015298,0,0,0,0
216,0.045966,6.4026,0.0015977,0,0,0,0
216.5,0.046204,6.415,0.0015977,0,0,0,0
217,0.046005,6.429,0.0018353,0,0,0,0
217.5,0.046141,6.4429,0.0017664,0,0,0,0
218,0.046244,6.4546,0.0018683,0,0,0,0
218.5,0.046721,6.4672,0.0018343,0,0,0,0
219,0.046825,6.4808,0.0018353,0,0,0,0
219.5,0.047031,6.4946,0.0017684,0,0,0,0
220,0.04757,6.5057,0.0016666,0,0,0,0
220.5,0.047744,6.5179,0.0018693,0,0,0,0
221,0.048117,6.5308,0.0019701,0,0,0,0
221.5,0.048489,6.5442,0.0016337,0,0,0,0
222,0.048728,6.556,0.0018014,0,0,0,0
222.5,0.049609,6.5684,0.0017694,0,0,0,0
223,0.05005,6.5825,0.0017355,0,0,0,0
223.5,0.050086,6.5969,0.0017704,0,0,0,0
224,0.050595,6.6108,0.0019731,0,0,0,0
224.5,0.050461,6.6235,0.0016686,0,0,0,0
225,0.050835,6.6365,0.0018383,0,0,0,0
225.5,0.050972,6.6498,0.0019401,0,0,0,0
226,0.050737,6.663,0.0020758,0,0,0,0
226.5,0.050875,6.6756,0.0019741,0,0,0,0
227,0.050673,6.6886,0.002007,0,0,0,0
227.5,0.050707,6.7027,0.0023792,0,0,0,0
228,0.050879,6.7155,0.0021457,0,0,0,0
228.5,0.050914,6.7284,0.0023123,0,0,0,0
229,0.050916,6.7409,0.0025807,0,0,0,0
229.5,0.051697,6.7555,0.0019441,0,0,0,0
230,0.051866,6.768,0.0022455,0,0,0,0
230.5,0.052308,6.781,0.0021457,0,0,0,0
231,0.052749,6.794,0.0022116,0,0,0,0
231.5,0.053157,6.8073,0.00201,0,0,0,0
232,0.053463,6.8197,0.0020429,0,0,0,0
232.5,0.054003,6.8334,0.0023133,0,0,0,0
233,0.054346,6.8468,0.001976,0,0,0,0
233.5,0.054921,6.8577,0.0020768,0,0,0,0
234,0.055159,6.8703,0.0019082,0,0,0,0
234.5,0.055363,6.8849,0.0022116,0,0,0,0
235,0.055634,6.898,0.0021098,0,0,0,0
235.5,0.055706,6.9093,0.0021427,0,0,0,0
236,0.05574,6.9219,0.0019741,0,0,0,0
236.5,0.055674,6.9358,0.002446,0,0,0,0
237,0.056082,6.9496,0.0021417,0,0,0,0
237.5,0.056049,6.9629,0.0020758,0,0,0,0
238,0.056459,6.9758,0.0024789,0,0,0,0
238.5,0.056223,6.9887,0.0025118,0,0,0,0
239,0.056529,7.0018,0.0025118,0,0,0,0
239.5,0.056869,7.0128,0.002814,0,0,0,0
240,0.056736,7.0243,0.0025448,0,0,0,0
240.5,0.057345,7.0367,0.0025458,0,0,0,0
241,0.057991,7.0511,0.0027472,0,0,0,0
241.5,0.05816,7.0643,0.0025118,0,0,0,0
242,0.05867,7.0765,0.0026794,0,0,0,0
242.5,0.059077,7.0892,0.0022415,0,0,0,0
243,0.059519,7.1032,0.0024779,0,0,0,0
243.5,0.060061,7.1172,0.0024101,0,0,0,0
244,0.060062,7.1285,0.0025138,0,0,0,0
244.5,0.060335,7.1401,0.002446,0,0,0,0
245,0.060673,7.153,0.0024799,0,0,0,0
245.5,0.061285,7.1667,0.0026146,0,0,0,0
246,0.061318,7.1801,0.0025487,0,0,0,0
246.5,0.061694,7.1935,0.0026485,0,0,0,0
247,0.061931,7.2059,0.002817,0,0,0,0
247.5,0.062135,7.2178,0.0027512,0,0,0,0
248,0.062273,7.2308,0.0030194,0,0,0,0
248.5,0.062577,7.2445,0.00282,0,0,0,0
249,0.062546,7.2593,0.0029536,0,0,0,0
249.5,0.06292,7.273,0.0031899,0,0,0,0
250,0.063124,7.2857,0.0031909,0,0,0,0
250.5,0.063396,7.2974,0.0033603,0,0,0,0
251,0.063632,7.3107,0.0033285,0,0,0,0
251.5,0.064109,7.3236,0.00316,0,0,0,0
252,0.06465,7.3367,0.0029925,0,0,0,0
252.5,0.064516,7.3498,0.0029925,0,0,0,0
253,0.065094,7.3637,0.0029915,0,0,0,0
253.5,0.0655,7.3767,0.0030932,0,0,0,0
254,0.065907,7.389,0.0029596,0,0,0,0
254.5,0.066245,7.4019,0.0027562,0,0,0,0
255,0.06662,7.4153,0.002824,0,0,0,0
255.5,0.067128,7.429,0.002822,0,0,0,0
256,0.067231,7.443,0.0027891,0,0,0,0
256.5,0.067469,7.4557,0.0030593,0,0,0,0
257,0.067707,7.467,0.0030563,0,0,0,0
257.5,0.068148,7.4788,0.0030214,0,0,0,0
258,0.068793,7.4921,0.0032248,0,0,0,0
258.5,0.069098,7.5057,0.0030543,0,0,0,0
259,0.069337,7.5204,0.00346,0,0,0,0
259.5,0.069846,7.5326,0.0030194,0,0,0,0
260,0.070322,7.5435,0.0036942,0,0,0,0
260.5,0.070762,7.5555,0.0034909,0,0,0,0
261,0.070833,7.5691,0.0035925,0,0,0,0
261.5,0.071139,7.5821,0.0035925,0,0,0,0
262,0.071582,7.5936,0.0034909,0,0,0,0
262.5,0.071651,7.6054,0.003457,0,0,0,0
263,0.071957,7.6179,0.0033892,0,0,0,0
263.5,0.072196,7.631,0.0031211,0,0,0,0
264,0.072095,7.6451,0.0030543,0,0,0,0
264.5,0.072437,7.6597,0.003459,0,0,0,0
265,0.072707,7.673,0.0031211,0,0,0,0
265.5,0.073186,7.6842,0.0032238,0,0,0,0
266,0.073356,7.6976,0.0032577,0,0,0,0
266.5,0.074001,7.7108,0.0032567,0,0,0,0
267,0.074307,7.7242,0.0034251,0,0,0,0
267.5,0.075087,7.7369,0.0035607,0,0,0,0
268,0.075291,7.7503,0.0038974,0,0,0,0
268.5,0.075426,7.7617,0.0038645,0,0,0,0
269,0.076445,7.7741,0.0035955,0,0,0,0
269.5,0.076953,7.7875,0.0043366,0,0,0,0
270,0.077632,7.8011,0.0040677,0,0,0,0
270.5,0.078106,7.8128,0.0042709,0,0,0,0
271,0.078479,7.8235,0.004474,0,0,0,0
271.5,0.078549,7.835,0.0043734,0,0,0,0
272,0.078752,7.8478,0.0043396,0,0,0,0
272.5,0.079533,7.8609,0.0044411,0,0,0,0
273,0.079397,7.8737,0.0041713,0,0,0,0
273.5,0.079906,7.8873,0.0039372,0,0,0,0
274,0.079908,7.9003,0.0041046,0,0,0,0
274.5,0.08001,7.9135,0.0041384,0,0,0,0
275,0.080317,7.9259,0.0041066,0,0,0,0
275.5,0.080655,7.9383,0.0040388,0,0,0,0
276,0.081061,7.9502,0.004005,0,0,0,0
276.5,0.081298,7.9626,0.0038346,0,0,0,0
277,0.081943,7.9741,0.0040378,0,0,0,0
277.5,0.082351,7.9863,0.004003,0,0,0,0
278,0.082994,8.0002,0.0041026,0,0,0,0
278.5,0.083535,8.0125,0.0042709,0,0,0,0
279,0.083976,8.0247,0.004238,0,0,0,0
279.5,0.08482,8.0361,0.0046064,0,0,0,0
280,0.085433,8.0483,0.0047746,0,0,0,0
280.5,0.085973,8.0602,0.0049408,0,0,0,0
281,0.086144,8.0726,0.0049756,0,0,0,0
281.5,0.087192,8.0853,0.0050084,0,0,0,0
282,0.087496,8.0983,0.0050064,0,0,0,0
282.5,0.087803,8.1122,0.0053437,0,0,0,0
283,0.088174,8.1249,0.0048731,0,0,0,0
283.5,0.088212,8.1383,0.0048721,0,0,0,0
284,0.088991,8.1501,0.0048393,0,0,0,0
284.5,0.089092,8.1611,0.0047388,0,0,0,0
285,0.089366,8.1737,0.0046701,0,0,0,0
285.5,0.089669,8.1877,0.0047049,0,0,0,0
286,0.089774,8.2009,0.0046711,0,0,0,0
286.5,0.090383,8.2131,0.0049069,0,0,0,0
287,0.090755,8.2266,0.0047726,0,0,0,0
287.5,0.091131,8.2393,0.0047039,0,0,0,0
288,0.09157,8.2517,0.0050751,0,0,0,0
288.5,0.092417,8.2633,0.0049756,0,0,0,0
289,0.093164,8.2749,0.0050413,0,0,0,0
289.5,0.093501,8.2867,0.0051776,0,0,0,0
290,0.09435,8.2993,0.005481,0,0,0,0
290.5,0.094722,8.3112,0.0055814,0,0,0,0
291,0.095503,8.3224,0.0057146,0,0,0,0
291.5,0.095706,8.335,0.0062534,0,0,0,0
292,0.096348,8.3487,0.0060517,0,0,0,0
292.5,0.097163,8.3617,0.0059523,0,0,0,0
293,0.097637,8.3736,0.0058538,0,0,0,0
293.5,0.09801,8.3853,0.0061868,0,0,0,0
294,0.098653,8.3973,0.0059194,0,0,0,0
294.5,0.099229,8.4085,0.0058876,0,0,0,0
295,0.099703,8.4208,0.0056182,0,0,0,0
295.5,0.099976,8.4316,0.005656,0,0,0,0
296,0.10075,8.444,0.0056898,0,0,0,0
296.5,0.10137,8.4567,0.0053855,0,0,0,0
297,0.10187,8.4711,0.0053865,0,0,0,0
297.5,0.10235,8.482,0.0054193,0,0,0,0
298,0.1032,8.4921,0.0058588,0,0,0,0
298.5,0.10364,8.5035,0.0053526,0,0,0,0
299,0.10425,8.5178,0.0055207,0,0,0,0
299.5,0.10438,8.5319,0.0058896,0,0,0,0
300,0.10476,8.5435,0.0058906,0,0,0,0
300.5,0.10526,8.5546,0.0062256,0,0,0,0
301,0.1057,8.5661,0.0062942,0,0,0,0
301.5,0.10631,8.5794,0.0064919,0,0,0,0
302,0.10689,8.5924,0.0066926,0,0,0,0
302.5,0.1072,8.6045,0.0068952,0,0,0,0
303,0.1078,8.6159,0.0069607,0,0,0,0
303.5,0.10821,8.6245,0.0067253,0,0,0,0
304,0.10885,8.6349,0.0067591,0,0,0,0
304.5,0.1098,8.6478,0.0067929,0,0,0,0
305,0.11031,8.6626,0.0067581,0,0,0,0
305.5,0.11092,8.6741,0.0065217,0,0,0,0
306,0.11194,8.6866,0.0064571,0,0,0,0
306.5,0.11292,8.6999,0.0061848,0,0,0,0
307,0.11363,8.7111,0.006153,0,0,0,0
307.5,0.11414,8.7214,0.0062206,0,0,0,0
308,0.11512,8.7316,0.0062206,0,0,0,0
308.5,0.11556,8.7447,0.0062206,0,0,0,0
309,0.11624,8.7565,0.0064879,0,0,0,0
309.5,0.11688,8.7687,0.0064551,0,0,0,0
310,0.11729,8.7803,0.0067233,0,0,0,0
310.5,0.11773,8.7934,0.006924,0,0,0,0
311,0.11817,8.8052,0.0071593,0,0,0,0
311.5,0.11861,8.8167,0.0075623,0,0,0,0
312,0.11898,8.8291,0.0074939,0,0,0,0
312.5,0.11942,8.8413,0.0076288,0,0,0,0
313,0.1201,8.8522,0.0077658,0,0,0,0
313.5,0.12064,8.8627,0.0080327,0,0,0,0
314,0.12135,8.8747,0.0083332,0,0,0,0
314.5,0.12166,8.887,0.007864,0,0,0,0
315,0.12247,8.8997,0.0079315,0,0,0,0
315.5,0.12345,8.9112,0.0076616,0,0,0,0
316,0.1242,8.9212,0.0080307,0,0,0,0
316.5,0.12498,8.9326,0.0076646,0,0,0,0
317,0.12582,8.9442,0.0075633,0,0,0,0
317.5,0.12664,8.9563,0.0075306,0,0,0,0
318,0.12785,8.967,0.007732,0,0,0,0
318.5,0.12819,8.9788,0.0076338,0,0,0,0
319,0.12887,8.9888,0.0075326,0,0,0,0
319.5,0.12978,9.001,0.0076665,0,0,0,0
320,0.13005,9.0131,0.0078352,0,0,0,0
320.5,0.13097,9.0255,0.0079692,0,0,0,0
321,0.13151,9.0369,0.0082043,0,0,0,0
321.5,0.13246,9.0478,0.0086069,0,0,0,0
322,0.13303,9.0584,0.0084056,0,0,0,0
322.5,0.13354,9.0693,0.008706,0,0,0,0
323,0.13435,9.0827,0.0093442,0,0,0,0
323.5,0.13527,9.0956,0.0094116,0,0,0,0
324,0.13601,9.1077,0.0095463,0,0,0,0
324.5,0.13676,9.118,0.0094096,0,0,0,0
325,0.1374,9.1293,0.0096483,0,0,0,0
325.5,0.13818,9.1408,0.0093789,0,0,0,0
326,0.13892,9.1519,0.009681,0,0,0,0
326.5,0.13916,9.1632,0.0093472,0,0,0,0
327,0.14011,9.1762,0.0096146,0,0,0,0
327.5,0.14095,9.1895,0.0093135,0,0,0,0
328,0.14146,9.2011,0.0090123,0,0,0,0
328.5,0.14193,9.212,0.0088438,0,0,0,0
329,0.14264,9.2235,0.0089459,0,0,0,0
329.5,0.14342,9.2336,0.0089102,0,0,0,0
330,0.1441,9.2445,0.009046,0,0,0,0
330.5,0.14511,9.2561,0.0091817,0,0,0,0
331,0.14589,9.268,0.0094145,0,0,0,0
331.5,0.14697,9.2783,0.0094779,0,0,0,0
332,0.14779,9.2887,0.0095146,0,0,0,0
332.5,0.1487,9.2988,0.009981,0,0,0,0
333,0.14968,9.3108,0.0099464,0,0,0,0
333.5,0.15104,9.3225,0.01028,0,0,0,0
334,0.15177,9.3337,0.01038,0,0,0,0
334.5,0.15283,9.346,0.010915,0,0,0,0
335,0.1537,9.357,0.011015,0,0,0,0
335.5,0.15435,9.3673,0.010847,0,0,0,0
336,0.15543,9.3784,0.011315,0,0,0,0
336.5,0.15627,9.3918,0.010947,0,0,0,0
337,0.15699,9.403,0.01098,0,0,0,0
337.5,0.15743,9.4139,0.010545,0,0,0,0
338,0.15857,9.424,0.010511,0,0,0,0
338.5,0.15905,9.435,0.010612,0,0,0,0
339,0.15979,9.4472,0.01048,0,0,0,0
339.5,0.16068,9.4596,0.010244,0,0,0,0
340,0.16111,9.4697,0.010479,0,0,0,0
340.5,0.16216,9.4783,0.010143,0,0,0,0
341,0.16314,9.49,0.010343,0,0,0,0
341.5,0.16372,9.5027,0.010812,0,0,0,0
342,0.16466,9.5141,0.010913,0,0,0,0
342.5,0.16592,9.5235,0.010845,0,0,0,0
343,0.16656,9.5327,0.010978,0,0,0,0
343.5,0.16713,9.5417,0.011345,0,0,0,0
344,0.16849,9.5526,0.011478,0,0,0,0
344.5,0.16909,9.5655,0.01158,0,0,0,0
345,0.17001,9.5771,0.011979,0,0,0,0
345.5,0.17068,9.5876,0.012115,0,0,0,0
346,0.1717,9.5972,0.01228,0,0,0,0
346.5,0.17275,9.6091,0.012246,0,0,0,0
347,0.17339,9.6201,0.012279,0,0,0,0
347.5,0.17437,9.6303,0.012279,0,0,0,0
348,0.17539,9.6411,0.012278,0,0,0,0
348.5,0.17636,9.6517,0.012147,0,0,0,0
349,0.17745,9.6622,0.01208,0,0,0,0
349.5,0.17836,9.6724,0.011915,0,0,0,0
350,0.17968,9.6845,0.011713,0,0,0,0
350.5,0.18059,9.6963,0.011881,0,0,0,0
351,0.18218,9.7084,0.011715,0,0,0,0
351.5,0.18303,9.72,0.011849,0,0,0,0
352,0.18384,9.7296,0.012115,0,0,0,0
352.5,0.18499,9.7379,0.012082,0,0,0,0
353,0.18587,9.7467,0.012382,0,0,0,0
353.5,0.18651,9.758,0.012515,0,0,0,0
354,0.18709,9.7685,0.012716,0,0,0,0
354.5,0.188,9.7783,0.012884,0,0,0,0
355,0.18892,9.7887,0.013416,0,0,0,0
355.5,0.18932,9.8002,0.013583,0,0,0,0
356,0.19023,9.8116,0.013883,0,0,0,0
356.5,0.19135,9.8224,0.013484,0,0,0,0
357,0.19247,9.8327,0.014117,0,0,0,0
357.5,0.19294,9.8434,0.014117,0,0,0,0
358,0.19412,9.8557,0.013952,0,0,0,0
358.5,0.19548,9.8656,0.013918,0,0,0,0
359,0.19693,9.8746,0.013985,0,0,0,0
359.5,0.19767,9.8836,0.013818,0,0,0,0
360,0.19859,9.895,0.013818,0,0,0,0
360.5,0.19994,9.9057,0.013586,0,0,0,0
361,0.20085,9.9159,0.01362,0,0,0,0
361.5,0.20167,9.9258,0.01342,0,0,0,0
362,0.20292,9.9357,0.013588,0,0,0,0
362.5,0.2038,9.9458,0.013788,0,0,0,0
363,0.20478,9.9558,0.013855,0,0,0,0
363.5,0.20586,9.9663,0.013821,0,0,0,0
364,0.20714,9.9774,0.014222,0,0,0,0
364.5,0.20792,9.9888,0.014555,0,0,0,0
365,0.20924,9.9997,0.014788,0,0,0,0
365.5,0.21029,10.009,0.015187,0,0,0,0
366,0.21164,10.02,0.015156,0,0,0,0
366.5,0.21276,10.03,0.015453,0,0,0,0
367,0.21421,10.04,0.015387,0,0,0,0
367.5,0.21533,10.05,0.015622,0,0,0,0
368,0.21668,10.063,0.01582,0,0,0,0
368.5,0.21776,10.074,0.015554,0,0,0,0
369,0.21875,10.082,0.015987,0,0,0,0
369.5,0.21932,10.092,0.015687,0,0,0,0
370,0.22057,10.103,0.015919,0,0,0,0
370.5,0.22132,10.114,0.015819,0,0,0,0
371,0.22213,10.124,0.01602,0,0,0,0
371.5,0.22294,10.133,0.015521,0,0,0,0
372,0.22405,10.143,0.015655,0,0,0,0
372.5,0.22507,10.153,0.015488,0,0,0,0
373,0.22636,10.163,0.015821,0,0,0,0
373.5,0.22727,10.175,0.015655,0,0,0,0
374,0.22839,10.187,0.015954,0,0,0,0
374.5,0.22967,10.197,0.016051,0,0,0,0
375,0.23129,10.205,0.016317,0,0,0,0
375.5,0.23197,10.212,0.016486,0,0,0,0
376,0.23349,10.221,0.016981,0,0,0,0
376.5,0.23457,10.231,0.017314,0,0,0,0
377,0.23555,10.242,0.017445,0,0,0,0
377.5,0.23694,10.253,0.017379,0,0,0,0
378,0.23785,10.263,0.017476,0,0,0,0
378.5,0.23873,10.273,0.01761,0,0,0,0
379,0.24032,10.282,0.017544,0,0,0,0
379.5,0.24106,10.291,0.017778,0,0,0,0
380,0.24221,10.3,0.01791,0,0,0,0
380.5,0.24357,10.311,0.017844,0,0,0,0
381,0.24529,10.319,0.017643,0,0,0,0
381.5,0.24631,10.328,0.017876,0,0,0,0
382,0.24752,10.34,0.017778,0,0,0,0
382.5,0.24904,10.352,0.017911,0,0,0,0
383,0.25039,10.361,0.017977,0,0,0,0
383.5,0.25182,10.371,0.018075,0,0,0,0
384,0.25289,10.381,0.01791,0,0,0,0
384.5,0.25381,10.39,0.018208,0,0,0,0
385,0.2552,10.399,0.018242,0,0,0,0
385.5,0.25655,10.409,0.018606,0,0,0,0
386,0.25736,10.419,0.018803,0,0,0,0
386.5,0.25854,10.427,0.018905,0,0,0,0
387,0.25959,10.437,0.019068,0,0,0,0
387.5,0.26061,10.446,0.019201,0,0,0,0
388,0.26155,10.455,0.019301,0,0,0,0
388.5,0.26274,10.464,0.019564,0,0,0,0
389,0.26385,10.471,0.019564,0,0,0,0
389.5,0.26524,10.48,0.01983,0,0,0,0
390,0.26669,10.489,0.019898,0,0,0,0
390.5,0.26757,10.499,0.019961,0,0,0,0
391,0.26923,10.508,0.019997,0,0,0,0
391.5,0.27,10.518,0.020161,0,0,0,0
392,0.27122,10.528,0.020029,0,0,0,0
392.5,0.27244,10.537,0.019898,0,0,0,0
393,0.27379,10.547,0.020028,0,0,0,0
393.5,0.27501,10.557,0.019963,0,0,0,0
394,0.27633,10.567,0.020296,0,0,0,0
394.5,0.27707,10.577,0.020558,0,0,0,0
395,0.27842,10.587,0.020658,0,0,0,0
395.5,0.28001,10.595,0.020858,0,0,0,0
396,0.2813,10.604,0.020858,0,0,0,0
396.5,0.28265,10.614,0.021055,0,0,0,0
397,0.28386,10.623,0.02112,0,0,0,0
397.5,0.28569,10.634,0.021287,0,0,0,0
398,0.28707,10.644,0.021518,0,0,0,0
398.5,0.28839,10.653,0.021814,0,0,0,0
399,0.28991,10.66,0.02175,0,0,0,0
399.5,0.2912,10.668,0.021814,0,0,0,0
400,0.29255,10.676,0.022277,0,0,0,0
400.5,0.2939,10.684,0.022245,0,0,0,0
401,0.29539,10.693,0.022211,0,0,0,0
401.5,0.29633,10.702,0.022443,0,0,0,0
402,0.29762,10.711,0.022311,0,0,0,0
402.5,0.2988,10.72,0.022542,0,0,0,0
403,0.30008,10.729,0.022541,0,0,0,0
403.5,0.30161,10.738,0.022511,0,0,0,0
404,0.30279,10.746,0.023104,0,0,0,0
404.5,0.30435,10.755,0.022839,0,0,0,0
405,0.30546,10.764,0.023136,0,0,0,0
405.5,0.30735,10.775,0.023071,0,0,0,0
406,0.3083,10.787,0.023136,0,0,0,0
406.5,0.30986,10.795,0.023368,0,0,0,0
407,0.31124,10.8,0.023466,0,0,0,0
407.5,0.31212,10.807,0.023368,0,0,0,0
408,0.31354,10.816,0.023566,0,0,0,0
408.5,0.31438,10.826,0.023864,0,0,0,0
409,0.31651,10.835,0.023929,0,0,0,0
409.5,0.31719,10.844,0.024159,0,0,0,0
410,0.31857,10.852,0.024456,0,0,0,0
410.5,0.31962,10.859,0.024655,0,0,0,0
411,0.32145,10.866,0.02462,0,0,0,0
411.5,0.3227,10.876,0.024753,0,0,0,0
412,0.32422,10.886,0.024721,0,0,0,0
412.5,0.32577,10.895,0.024952,0,0,0,0
413,0.32739,10.903,0.025085,0,0,0,0
413.5,0.32882,10.911,0.025281,0,0,0,0
414,0.3305,10.92,0.025414,0,0,0,0
414.5,0.33176,10.929,0.025643,0,0,0,0
415,0.33341,10.939,0.025809,0,0,0,0
415.5,0.33483,10.947,0.025676,0,0,0,0
416,0.33605,10.954,0.02594,0,0,0,0
416.5,0.33747,10.961,0.026008,0,0,0,0
417,0.33888,10.969,0.026305,0,0,0,0
417.5,0.34051,10.977,0.026204,0,0,0,0
418,0.34172,10.985,0.026336,0,0,0,0
418.5,0.34331,10.994,0.026468,0,0,0,0
419,0.34486,11.003,0.026697,0,0,0,0
419.5,0.34642,11.011,0.02683,0,0,0,0
420,0.34821,11.019,0.026862,0,0,0,0
420.5,0.34993,11.028,0.027095,0,0,0,0
421,0.35129,11.037,0.027258,0,0,0,0
421.5,0.35291,11.043,0.027554,0,0,0,0
422,0.3545,11.05,0.027522,0,0,0,0
422.5,0.35572,11.059,0.027555,0,0,0,0
423,0.35707,11.069,0.027686,0,0,0,0
423.5,0.35842,11.076,0.027884,0,0,0,0
424,0.35977,11.084,0.027983,0,0,0,0
424.5,0.36133,11.094,0.028179,0,0,0,0
425,0.36234,11.103,0.028441,0,0,0,0
425.5,0.36369,11.11,0.028507,0,0,0,0
426,0.36504,11.118,0.028704,0,0,0,0
426.5,0.36656,11.127,0.028967,0,0,0,0
427,0.36829,11.136,0.029099,0,0,0,0
427.5,0.36991,11.146,0.029065,0,0,0,0
428,0.37153,11.154,0.028935,0,0,0,0
428.5,0.37319,11.161,0.029297,0,0,0,0
429,0.37461,11.168,0.029624,0,0,0,0
429.5,0.37599,11.176,0.029657,0,0,0,0
430,0.37744,11.184,0.029525,0,0,0,0
430.5,0.37883,11.192,0.030051,0,0,0,0
431,0.38025,11.199,0.029855,0,0,0,0
431.5,0.38197,11.206,0.030184,0,0,0,0
432,0.38336,11.216,0.030315,0,0,0,0
432.5,0.38484,11.225,0.030577,0,0,0,0
433,0.38643,11.231,0.030708,0,0,0,0
433.5,0.38779,11.237,0.030807,0,0,0,0
434,0.38992,11.245,0.03074,0,0,0,0
434.5,0.39147,11.254,0.030936,0,0,0,0
435,0.39319,11.263,0.031396,0,0,0,0
435.5,0.39522,11.272,0.031592,0,0,0,0
436,0.39691,11.281,0.031853,0,0,0,0
436.5,0.39826,11.289,0.031887,0,0,0,0
437,0.40012,11.299,0.032148,0,0,0,0
437.5,0.40164,11.308,0.032115,0,0,0,0
438,0.40303,11.314,0.032214,0,0,0,0
438.5,0.40468,11.319,0.032311,0,0,0,0
439,0.40627,11.328,0.032377,0,0,0,0
439.5,0.40834,11.336,0.032771,0,0,0,0
440,0.40979,11.343,0.032443,0,0,0,0
440.5,0.41131,11.35,0.032736,0,0,0,0
441,0.41306,11.358,0.033195,0,0,0,0
441.5,0.41499,11.364,0.033456,0,0,0,0
442,0.41678,11.369,0.033522,0,0,0,0
442.5,0.41871,11.377,0.033881,0,0,0,0
443,0.42023,11.386,0.033848,0,0,0,0
443.5,0.42158,11.395,0.034142,0,0,0,0
444,0.42357,11.402,0.034272,0,0,0,0
444.5,0.42496,11.409,0.034306,0,0,0,0
445,0.42648,11.416,0.034565,0,0,0,0
445.5,0.428,11.424,0.034697,0,0,0,0
446,0.42949,11.431,0.034762,0,0,0,0
446.5,0.43108,11.436,0.034959,0,0,0,0
447,0.43297,11.443,0.035218,0,0,0,0
447.5,0.43402,11.45,0.035381,0,0,0,0
448,0.43652,11.459,0.035478,0,0,0,0
448.5,0.43828,11.467,0.035804,0,0,0,0
449,0.43939,11.473,0.035935,0,0,0,0
449.5,0.44122,11.479,0.035903,0,0,0,0
450,0.44317,11.487,0.036099,0,0,0,0
450.5,0.44493,11.495,0.036326,0,0,0,0
451,0.44669,11.503,0.036619,0,0,0,0
451.5,0.44794,11.51,0.036556,0,0,0,0
452,0.44946,11.517,0.036945,0,0,0,0
452.5,0.45111,11.524,0.036848,0,0,0,0
453,0.45281,11.531,0.037173,0,0,0,0
453.5,0.45433,11.537,0.037206,0,0,0,0
454,0.45608,11.546,0.03763,0,0,0,0
454.5,0.45787,11.555,0.037694,0,0,0,0
455,0.46007,11.563,0.037889,0,0,0,0
455.5,0.46203,11.567,0.038084,0,0,0,0
456,0.46369,11.571,0.038117,0,0,0,0
456.5,0.46555,11.578,0.03841,0,0,0,0
457,0.46754,11.586,0.038605,0,0,0,0
457.5,0.46926,11.592,0.038768,0,0,0,0
458,0.47085,11.599,0.0388,0,0,0,0
458.5,0.47261,11.606,0.038767,0,0,0,0
459,0.47423,11.614,0.039287,0,0,0,0
459.5,0.47599,11.623,0.039287,0,0,0,0
460,0.47792,11.629,0.039611,0,0,0,0
460.5,0.47971,11.634,0.039547,0,0,0,0
461,0.48167,11.641,0.040065,0,0,0,0
461.5,0.48359,11.65,0.040001,0,0,0,0
462,0.48532,11.656,0.040456,0,0,0,0
462.5,0.48741,11.662,0.040747,0,0,0,0
463,0.48957,11.669,0.040942,0,0,0,0
463.5,0.49154,11.675,0.040878,0,0,0,0
464,0.49323,11.682,0.041332,0,0,0,0
464.5,0.49509,11.687,0.041461,0,0,0,0
465,0.49657,11.694,0.041752,0,0,0,0
465.5,0.49829,11.701,0.041817,0,0,0,0
466,0.49982,11.709,0.042109,0,0,0,0
466.5,0.50188,11.715,0.042303,0,0,0,0
467,0.50387,11.721,0.042334,0,0,0,0
467.5,0.50549,11.726,0.042302,0,0,0,0
468,0.50725,11.733,0.042496,0,0,0,0
468.5,0.50925,11.74,0.042787,0,0,0,0
469,0.51117,11.747,0.043144,0,0,0,0
469.5,0.51323,11.753,0.043047,0,0,0,0
470,0.51523,11.759,0.04337,0,0,0,0
470.5,0.51698,11.766,0.04337,0,0,0,0
471,0.51904,11.772,0.043693,0,0,0,0
471.5,0.52043,11.777,0.044016,0,0,0,0
472,0.52215,11.784,0.044211,0,0,0,0
472.5,0.52368,11.792,0.044469,0,0,0,0
473,0.52563,11.799,0.044566,0,0,0,0
473.5,0.52743,11.805,0.045117,0,0,0,0
474,0.52902,11.811,0.045212,0,0,0,0
474.5,0.53081,11.817,0.045698,0,0,0,0
475,0.533,11.823,0.045923,0,0,0,0
475.5,0.53452,11.83,0.046019,0,0,0,0
476,0.53716,11.836,0.046051,0,0,0,0
476.5,0.53899,11.84,0.046277,0,0,0,0
477,0.54078,11.846,0.046406,0,0,0,0
477.5,0.54243,11.854,0.0466,0,0,0,0
478,0.54426,11.861,0.046794,0,0,0,0
478.5,0.54608,11.866,0.04718,0,0,0,0
479,0.54811,11.872,0.04718,0,0,0,0
479.5,0.55,11.879,0.047696,0,0,0,0
480,0.55196,11.885,0.04747,0,0,0,0
480.5,0.55277,11.892,0.04776,0,0,0,0
481,0.55554,11.898,0.048275,0,0,0,0
481.5,0.55767,11.904,0.048565,0,0,0,0
482,0.55966,11.91,0.04879,0,0,0,0
482.5,0.5621,11.916,0.049047,0,0,0,0
483,0.56402,11.922,0.04908,0,0,0,0
483.5,0.56649,11.927,0.049369,0,0,0,0
484,0.56838,11.932,0.049755,0,0,0,0
484.5,0.57048,11.94,0.049852,0,0,0,0
485,0.57227,11.947,0.050301,0,0,0,0
485.5,0.57406,11.952,0.050495,0,0,0,0
486,0.57599,11.956,0.050816,0,0,0,0
486.5,0.57781,11.962,0.050944,0,0,0,0
487,0.58008,11.966,0.051331,0,0,0,0
487.5,0.58187,11.971,0.051071,0,0,0,0
488,0.58413,11.976,0.05178,0,0,0,0
488.5,0.58633,11.982,0.051907,0,0,0,0
489,0.58849,11.988,0.05181,0,0,0,0
489.5,0.59109,11.995,0.052228,0,0,0,0
490,0.59295,12,0.052292,0,0,0,0
490.5,0.59488,12.005,0.052772,0,0,0,0
491,0.59694,12.012,0.052806,0,0,0,0
491.5,0.59893,12.019,0.053221,0,0,0,0
492,0.60072,12.023,0.053637,0,0,0,0
492.5,0.60279,12.03,0.054054,0,0,0,0
493,0.60468,12.036,0.054022,0,0,0,0
493.5,0.60671,12.04,0.05447,0,0,0,0
494,0.60846,12.043,0.054855,0,0,0,0
494.5,0.6109,12.048,0.054887,0,0,0,0
495,0.61289,12.054,0.055302,0,0,0,0
495.5,0.61553,12.06,0.055335,0,0,0,0
496,0.61748,12.066,0.05575,0,0,0,0
496.5,0.61988,12.072,0.055879,0,0,0,0
497,0.62164,12.077,0.056037,0,0,0,0
497.5,0.62357,12.081,0.056357,0,0,0,0
498,0.6258,12.085,0.056549,0,0,0,0
498.5,0.62762,12.091,0.056804,0,0,0,0
499,0.62955,12.097,0.056932,0,0,0,0
499.5,0.63158,12.103,0.057411,0,0,0,0
500,0.63364,12.108,0.057667,0,0,0,0
500.5,0.63573,12.112,0.05789,0,0,0,0
501,0.6379,12.117,0.058017,0,0,0,0
501.5,0.64013,12.124,0.058272,0,0,0,0
502,0.64229,12.131,0.058559,0,0,0,0
502.5,0.64445,12.136,0.059038,0,0,0,0
503,0.64675,12.141,0.059356,0,0,0,0
503.5,0.64864,12.146,0.059642,0,0,0,0
504,0.6506,12.151,0.059802,0,0,0,0
504.5,0.65283,12.156,0.060279,0,0,0,0
505,0.65449,12.161,0.060501,0,0,0,0
505.5,0.65679,12.166,0.061169,0,0,0,0
506,0.65881,12.17,0.061138,0,0,0,0
506.5,0.66088,12.175,0.061583,0,0,0,0
507,0.663,12.179,0.061551,0,0,0,0
507.5,0.66578,12.183,0.06206,0,0,0,0
508,0.66804,12.188,0.062345,0,0,0,0
508.5,0.67044,12.193,0.062662,0,0,0,0
509,0.67257,12.198,0.062979,0,0,0,0
509.5,0.6747,12.204,0.063234,0,0,0,0
510,0.67669,12.208,0.063297,0,0,0,0
510.5,0.67862,12.212,0.063488,0,0,0,0
511,0.68085,12.218,0.063932,0,0,0,0
511.5,0.68304,12.224,0.064216,0,0,0,0
512,0.68493,12.229,0.064567,0,0,0,0
512.5,0.68723,12.233,0.064788,0,0,0,0
513,0.6895,12.236,0.065168,0,0,0,0
513.5,0.69207,12.239,0.06558,0,0,0,0
514,0.69426,12.244,0.065833,0,0,0,0
514.5,0.69713,12.25,0.065959,0,0,0,0
515,0.6993,12.255,0.066434,0,0,0,0
515.5,0.7017,12.26,0.067034,0,0,0,0
516,0.70399,12.267,0.067445,0,0,0,0
516.5,0.70595,12.272,0.067476,0,0,0,0
517,0.70808,12.274,0.067824,0,0,0,0
517.5,0.71008,12.277,0.068202,0,0,0,0
518,0.71274,12.282,0.068644,0,0,0,0
518.5,0.71481,12.287,0.068896,0,0,0,0
519,0.71724,12.29,0.069116,0,0,0,0
519.5,0.71974,12.295,0.069621,0,0,0,0
520,0.72194,12.301,0.069748,0,0,0,0
520.5,0.72454,12.305,0.07,0,0,0,0
521,0.72711,12.308,0.070283,0,0,0,0
521.5,0.7293,12.312,0.070472,0,0,0,0
522,0.7316,12.318,0.070787,0,0,0,0
522.5,0.73386,12.322,0.071071,0,0,0,0
523,0.73613,12.327,0.071511,0,0,0,0
523.5,0.73867,12.332,0.07214,0,0,0,0
524,0.74093,12.336,0.072486,0,0,0,0
524.5,0.74316,12.339,0.072738,0,0,0,0
525,0.74515,12.341,0.073273,0,0,0,0
525.5,0.74782,12.343,0.073492,0,0,0,0
526,0.75015,12.348,0.074119,0,0,0,0
526.5,0.75296,12.353,0.074401,0,0,0,0
527,0.75543,12.357,0.074558,0,0,0,0
527.5,0.75779,12.36,0.075092,0,0,0,0
528,0.76016,12.365,0.0755,0,0,0,0
528.5,0.76256,12.369,0.075937,0,0,0,0
529,0.76445,12.372,0.076314,0,0,0,0
529.5,0.76671,12.375,0.076627,0,0,0,0
530,0.76874,12.378,0.076627,0,0,0,0
530.5,0.77141,12.382,0.077316,0,0,0,0
531,0.77364,12.385,0.077315,0,0,0,0
531.5,0.77607,12.388,0.077722,0,0,0,0
532,0.77844,12.392,0.078003,0,0,0,0
532.5,0.78121,12.397,0.078316,0,0,0,0
533,0.78337,12.402,0.078535,0,0,0,0
533.5,0.78608,12.405,0.078972,0,0,0,0
534,0.78858,12.407,0.079378,0,0,0,0
534.5,0.79074,12.41,0.07969,0,0,0,0
535,0.79277,12.414,0.080095,0,0,0,0
535.5,0.79506,12.417,0.080719,0,0,0,0
536,0.79716,12.421,0.081031,0,0,0,0
536.5,0.79986,12.426,0.081342,0,0,0,0
537,0.80203,12.431,0.082027,0,0,0,0
537.5,0.80415,12.434,0.082432,0,0,0,0
538,0.80689,12.437,0.082556,0,0,0,0
538.5,0.8098,12.44,0.083147,0,0,0,0
539,0.81216,12.443,0.083552,0,0,0,0
539.5,0.81477,12.445,0.084173,0,0,0,0
540,0.81696,12.447,0.084298,0,0,0,0
540.5,0.81933,12.45,0.084546,0,0,0,0
541,0.82169,12.453,0.085012,0,0,0,0
541.5,0.82399,12.457,0.085509,0,0,0,0
542,0.82663,12.462,0.085788,0,0,0,0
542.5,0.82862,12.467,0.086377,0,0,0,0
543,0.83146,12.47,0.086903,0,0,0,0
543.5,0.83399,12.472,0.08712,0,0,0,0
544,0.83642,12.476,0.087554,0,0,0,0
544.5,0.83933,12.479,0.088142,0,0,0,0
545,0.8421,12.481,0.088482,0,0,0,0
545.5,0.84477,12.482,0.088792,0,0,0,0
546,0.84714,12.486,0.089502,0,0,0,0
546.5,0.8496,12.49,0.089565,0,0,0,0
547,0.852,12.495,0.090368,0,0,0,0
547.5,0.8542,12.498,0.090275,0,0,0,0
548,0.85677,12.501,0.091201,0,0,0,0
548.5,0.8591,12.503,0.091479,0,0,0,0
549,0.8619,12.505,0.092096,0,0,0,0
549.5,0.86444,12.507,0.092711,0,0,0,0
550,0.86761,12.51,0.093174,0,0,0,0
550.5,0.86984,12.513,0.093697,0,0,0,0
551,0.87279,12.515,0.094343,0,0,0,0
551.5,0.87542,12.517,0.094528,0,0,0,0
552,0.87796,12.52,0.095143,0,0,0,0
552.5,0.88018,12.523,0.095665,0,0,0,0
553,0.88282,12.524,0.096188,0,0,0,0
553.5,0.88532,12.527,0.096494,0,0,0,0
554,0.88812,12.531,0.096924,0,0,0,0
554.5,0.89069,12.535,0.097292,0,0,0,0
555,0.8935,12.537,0.097844,0,0,0,0
555.5,0.89633,12.54,0.098242,0,0,0,0
556,0.89921,12.543,0.09864,0,0,0,0
556.5,0.90201,12.545,0.099345,0,0,0,0
557,0.90482,12.546,0.099987,0,0,0,0
557.5,0.90755,12.549,0.10057,0,0,0,0
558,0.91009,12.551,0.1009,0,0,0,0
558.5,0.91245,12.554,0.10151,0,0,0,0
559,0.91522,12.556,0.10203,0,0,0,0
559.5,0.91745,12.557,0.1027,0,0,0,0
560,0.92036,12.558,0.10313,0,0,0,0
560.5,0.923,12.558,0.10362,0,0,0,0
561,0.92604,12.561,0.10417,0,0,0,0
561.5,0.92871,12.564,0.10478,0,0,0,0
562,0.93148,12.567,0.10517,0,0,0,0
562.5,0.93445,12.567,0.10557,0,0,0,0
563,0.93685,12.567,0.10651,0,0,0,0
563.5,0.94003,12.57,0.10694,0,0,0,0
564,0.94239,12.573,0.10724,0,0,0,0
564.5,0.94537,12.575,0.10794,0,0,0,0
565,0.9477,12.576,0.10839,0,0,0,0
565.5,0.95057,12.577,0.10903,0,0,0,0
566,0.95348,12.579,0.10991,0,0,0,0
566.5,0.95628,12.581,0.11069,0,0,0,0
567,0.95946,12.583,0.11115,0,0,0,0
567.5,0.9623,12.585,0.1116,0,0,0,0
568,0.96537,12.587,0.11251,0,0,0,0
568.5,0.96827,12.589,0.11311,0,0,0,0
569,0.97088,12.591,0.11372,0,0,0,0
569.5,0.97321,12.593,0.11441,0,0,0,0
570,0.97621,12.594,0.11483,0,0,0,0
570.5,0.97885,12.595,0.1154,0,0,0,0
571,0.98142,12.597,0.1161,0,0,0,0
571.5,0.98429,12.598,0.11655,0,0,0,0
572,0.98717,12.598,0.11727,0,0,0,0
572.5,0.99021,12.598,0.11805,0,0,0,0
573,0.99359,12.599,0.11874,0,0,0,0
573.5,0.99622,12.601,0.11913,0,0,0,0
574,0.9993,12.602,0.11994,0,0,0,0
574.5,1.0022,12.603,0.12048,0,0,0,0
575,1.0048,12.603,0.12117,0,0,0,0
575.5,1.0076,12.604,0.12156,0,0,0,0
576,1.0103,12.607,0.12219,0,0,0,0
576.5,1.0131,12.608,0.12305,0,0,0,0
577,1.0158,12.606,0.12368,0,0,0,0
577.5,1.0191,12.606,0.12419,0,0,0,0
578,1.0222,12.608,0.12482,0,0,0,0
578.5,1.0253,12.61,0.12532,0,0,0,0
579,1.0284,12.611,0.12622,0,0,0,0
579.5,1.0309,12.614,0.12681,0,0,0,0
580,1.0344,12.616,0.12756,0,0,0,0
580.5,1.037,12.615,0.12851,0,0,0,0
581,1.0397,12.614,0.12919,0,0,0,0
581.5,1.0424,12.616,0.12961,0,0,0,0
582,1.0454,12.616,0.13056,0,0,0,0
582.5,1.0484,12.617,0.13159,0,0,0,0
583,1.0511,12.617,0.13198,0,0,0,0
583.5,1.0542,12.615,0.13281,0,0,0,0
584,1.0579,12.614,0.13378,0,0,0,0
584.5,1.0608,12.615,0.13461,0,0,0,0
585,1.0637,12.618,0.13541,0,0,0,0
585.5,1.0666,12.618,0.13627,0,0,0,0
586,1.0699,12.616,0.13721,0,0,0,0
586.5,1.0725,12.616,0.13774,0,0,0,0
587,1.0756,12.617,0.13865,0,0,0,0
587.5,1.0783,12.616,0.13936,0,0,0,0
588,1.0814,12.613,0.14006,0,0,0,0
588.5,1.0845,12.613,0.14097,0,0,0,0
589,1.0875,12.614,0.14171,0,0,0,0
589.5,1.0908,12.614,0.14247,0,0,0,0
590,1.0941,12.613,0.14344,0,0,0,0
590.5,1.0973,12.612,0.14426,0,0,0,0
591,1.1004,12.613,0.14543,0,0,0,0
591.5,1.1032,12.613,0.1461,0,0,0,0
592,1.1064,12.613,0.14706,0,0,0,0
592.5,1.1088,12.612,0.14776,0,0,0,0
593,1.1122,12.611,0.14855,0,0,0,0
593.5,1.1153,12.609,0.14931,0,0,0,0
594,1.1187,12.608,0.15033,0,0,0,0
594.5,1.1219,12.608,0.15102,0,0,0,0
595,1.1254,12.607,0.15219,0,0,0,0
595.5,1.1286,12.606,0.15291,0,0,0,0
596,1.1314,12.603,0.15387,0,0,0,0
596.5,1.1349,12.602,0.15482,0,0,0,0
597,1.1375,12.601,0.15587,0,0,0,0
597.5,1.1404,12.6,0.15682,0,0,0,0
598,1.1437,12.597,0.15795,0,0,0,0
598.5,1.1467,12.595,0.1589,0,0,0,0
599,1.15,12.595,0.15976,0,0,0,0
599.5,1.1537,12.595,0.16089,0,0,0,0
600,1.157,12.593,0.16175,0,0,0,0
600.5,1.1607,12.591,0.16261,0,0,0,0
601,1.1639,12.591,0.16359,0,0,0,0
601.5,1.1667,12.59,0.16456,0,0,0,0
602,1.1696,12.587,0.16554,0,0,0,0
602.5,1.173,12.584,0.16634,0,0,0,0
603,1.176,12.582,0.16754,0,0,0,0
603.5,1.1793,12.583,0.16837,0,0,0,0
604,1.1824,12.581,0.16963,0,0,0,0
604.5,1.1861,12.576,0.17057,0,0,0,0
605,1.1896,12.572,0.17151,0,0,0,0
605.5,1.1932,12.572,0.17268,0,0,0,0
606,1.1962,12.571,0.1737,0,0,0,0
606.5,1.1995,12.57,0.17489,0,0,0,0
607,1.203,12.566,0.17583,0,0,0,0
607.5,1.2061,12.562,0.17699,0,0,0,0
608,1.2092,12.558,0.1779,0,0,0,0
608.5,1.2124,12.556,0.17892,0,0,0,0
609,1.2161,12.554,0.18013,0,0,0,0
609.5,1.2193,12.55,0.18104,0,0,0,0
610,1.2233,12.546,0.18211,0,0,0,0
610.5,1.2267,12.543,0.18329,0,0,0,0
611,1.2299,12.54,0.18458,0,0,0,0
611.5,1.2334,12.536,0.18554,0,0,0,0
612,1.2363,12.533,0.18692,0,0,0,0
612.5,1.2396,12.53,0.18818,0,0,0,0
613,1.2434,12.527,0.18969,0,0,0,0
613.5,1.2464,12.524,0.19103,0,0,0,0
614,1.2496,12.52,0.19234,0,0,0,0
614.5,1.2535,12.515,0.19357,0,0,0,0
615,1.2569,12.51,0.1949,0,0,0,0
615.5,1.2607,12.507,0.19624,0,0,0,0
616,1.2638,12.503,0.19757,0,0,0,0
616.5,1.2677,12.499,0.19899,0,0,0,0
617,1.2707,12.494,0.20015,0,0,0,0
617.5,1.274,12.489,0.20123,0,0,0,0
618,1.2775,12.484,0.20266,0,0,0,0
618.5,1.2809,12.479,0.20385,0,0,0,0
619,1.284,12.475,0.20528,0,0,0,0
619.5,1.2879,12.472,0.20669,0,0,0,0
620,1.2916,12.467,0.20795,0,0,0,0
620.5,1.2955,12.46,0.20908,0,0,0,0
621,1.299,12.454,0.21048,0,0,0,0
621.5,1.3023,12.449,0.21163,0,0,0,0
622,1.3056,12.444,0.21283,0,0,0,0
622.5,1.3088,12.438,0.21455,0,0,0,0
623,1.3124,12.435,0.21608,0,0,0,0
623.5,1.3159,12.43,0.2175,0,0,0,0
624,1.3197,12.424,0.21913,0,0,0,0
624.5,1.3232,12.418,0.22057,0,0,0,0
625,1.3273,12.413,0.22201,0,0,0,0
625.5,1.3311,12.407,0.22371,0,0,0,0
626,1.3346,12.399,0.22525,0,0,0,0
626.5,1.3382,12.393,0.22695,0,0,0,0
627,1.3419,12.387,0.22846,0,0,0,0
627.5,1.345,12.382,0.22993,0,0,0,0
628,1.3486,12.376,0.23155,0,0,0,0
628.5,1.3521,12.37,0.2334,0,0,0,0
629,1.3559,12.362,0.23514,0,0,0,0
629.5,1.36,12.355,0.23653,0,0,0,0
630,1.3637,12.348,0.2381,0,0,0,0
630.5,1.3677,12.339,0.23967,0,0,0,0
631,1.3715,12.331,0.24124,0,0,0,0
631.5,1.375,12.325,0.24286,0,0,0,0
632,1.3787,12.317,0.24453,0,0,0,0
632.5,1.3822,12.309,0.24634,0,0,0,0
633,1.3857,12.303,0.24787,0,0,0,0
633.5,1.3896,12.296,0.24956,0,0,0,0
634,1.3937,12.287,0.25098,0,0,0,0
634.5,1.3976,12.278,0.25253,0,0,0,0
635,1.4014,12.269,0.25416,0,0,0,0
635.5,1.4052,12.26,0.25584,0,0,0,0
636,1.4089,12.25,0.25712,0,0,0,0
636.5,1.4129,12.239,0.25898,0,0,0,0
637,1.4163,12.231,0.26052,0,0,0,0
637.5,1.42,12.222,0.26224,0,0,0,0
638,1.4237,12.212,0.26395,0,0,0,0
638.5,1.4277,12.203,0.26577,0,0,0,0
639,1.432,12.193,0.26792,0,0,0,0
639.5,1.4356,12.184,0.26947,0,0,0,0
640,1.4399,12.175,0.27131,0,0,0,0
640.5,1.4436,12.165,0.27296,0,0,0,0
641,1.4476,12.153,0.27479,0,0,0,0
641.5,1.4512,12.141,0.27633,0,0,0,0
642,1.4551,12.13,0.2782,0,0,0,0
642.5,1.4591,12.118,0.28015,0,0,0,0
643,1.4629,12.107,0.28194,0,0,0,0
643.5,1.4672,12.094,0.28396,0,0,0,0
644,1.4714,12.082,0.28574,0,0,0,0
644.5,1.4754,12.071,0.28783,0,0,0,0
645,1.4797,12.059,0.28983,0,0,0,0
645.5,1.4834,12.046,0.29196,0,0,0,0
646,1.4872,12.033,0.29405,0,0,0,0
646.5,1.4913,12.019,0.29614,0,0,0,0
647,1.4951,12.004,0.29798,0,0,0,0
647.5,1.4992,11.989,0.29986,0,0,0,0
648,1.5036,11.975,0.30209,0,0,0,0
648.5,1.5078,11.962,0.30409,0,0,0,0
649,1.512,11.948,0.30634,0,0,0,0
649.5,1.5162,11.933,0.30819,0,0,0,0
650,1.5203,11.917,0.31028,0,0,0,0
650.5,1.5239,11.901,0.31222,0,0,0,0
651,1.5283,11.884,0.31432,0,0,0,0
651.5,1.5324,11.865,0.31615,0,0,0,0
652,1.5369,11.847,0.31857,0,0,0,0
652.5,1.5414,11.83,0.32056,0,0,0,0
653,1.5461,11.81,0.32297,0,0,0,0
653.5,1.5512,11.782,0.32542,0,0,0,0