File: lab_data/AA6014-T4_results/DATA/CH_00_3.csv
Time[s],Displacement[mm],Force[kN],AxStrain_1,AxStrain_2,Thickness[mm],OuterWidth[mm],Diameter[mm]
0.61,0,-0.005415,0,0,1.1163,19.965,5.231
1.11,-0.000488,0.0034605,8.1997e-05,-0.00011801,0,0,0
1.61,0.000126,0.014299,-0.00011301,6.0998e-05,0,0,0
2.11,0.000355,0.038568,3.2999e-05,5.9998e-05,0,0,0
2.61,0.000929,0.068145,3.1999e-05,0.00010899,0,0,0
3.11,0.001184,0.09571,-5.4001e-05,8.4996e-05,0,0,0
3.61,0.001435,0.11671,0.00016399,-1.6e-05,0,0,0
4.11,0.001613,0.13129,7.3997e-05,2.3e-05,0,0,0
4.61,0.002179,0.14672,0.00010699,0.00012499,0,0,0
5.11,0.00224,0.16557,7.6997e-05,0.00011799,0,0,0
5.61,0.002354,0.184,2.7e-05,0.00014999,0,0,0
6.11,0.002838,0.20243,7.6997e-05,0.00025497,0,0,0
6.61,0.002638,0.22243,-1.2e-05,9.7995e-05,0,0,0
7.11,0.002852,0.23871,7.3997e-05,9.3996e-05,0,0,0
7.61,0.003007,0.24743,0.00011099,0.00021798,0,0,0
8.11,0.003155,0.25386,0.00012499,4.2999e-05,0,0,0
8.61,0.003619,0.26429,0.00021798,0.00010999,0,0,0
9.11,0.003621,0.27915,0.00019398,0.00020598,0,0,0
9.61,0.004059,0.29457,0.00028496,0.00014699,0,0,0
10.11,0.004185,0.30929,6.9998e-05,0.00018498,0,0,0
10.61,0.004663,0.32386,0.00040992,0.00017199,0,0,0
11.11,0.004841,0.33885,0.00027296,0.00027196,0,0,0
11.61,0.005327,0.35415,0.00020498,0.00041691,0,0,0
12.11,0.005588,0.36914,0.00037993,0.00022997,0,0,0
12.61,0.00591,0.38486,0.00041891,0.00046589,0,0,0
13.11,0.00631,0.39985,0.00042991,0.00046989,0,0,0
13.61,0.006596,0.41515,0.00049388,0.00041291,0,0,0
14.11,0.006844,0.43014,0.00050987,0.00041291,0,0,0
14.61,0.00709,0.445,0.00055085,0.0004429,0,0,0
15.11,0.007154,0.45986,0.00033594,0.00034594,0,0,0
15.61,0.007117,0.47629,0.0004429,0.00038293,0,0,0
16.11,0.007571,0.49285,0.00032595,0.00058383,0,0,0
16.61,0.007856,0.50829,0.00034594,0.00053386,0,0,0
17.11,0.007779,0.52271,0.00041991,0.00037593,0,0,0
17.61,0.0079,0.53815,0.00038293,0.0004359,0,0,0
18.11,0.008158,0.555,0.00056084,0.00049988,0,0,0
18.61,0.00838,0.57214,0.0004529,0.00042291,0,0,0
19.11,0.008668,0.58771,0.00041591,0.00046289,0,0,0
19.61,0.008893,0.60343,0.00050387,0.00059382,0,0,0
20.11,0.009383,0.61985,0.00058383,0.00066078,0,0,0
20.61,0.009256,0.63686,0.00055684,0.00064479,0,0,0
21.11,0.010055,0.65285,0.00050387,0.00064779,0,0,0
21.61,0.010152,0.66943,0.00056684,0.00062081,0,0,0
22.11,0.010575,0.68585,0.00073873,0.00053686,0,0,0
22.61,0.011075,0.70286,0.00072474,0.00076471,0,0,0
23.11,0.011629,0.71914,0.00079169,0.00071474,0,0,0
23.61,0.012193,0.735,0.00083565,0.00084264,0,0,0
24.11,0.012798,0.75086,0.00078569,0.00093257,0,0,0
24.61,0.012768,0.76829,0.00092257,0.00083865,0,0,0
25.11,0.013227,0.78585,0.00081866,0.0010035,0,0,0
25.61,0.013342,0.802,0.00080168,0.0010574,0,0,0
26.11,0.013556,0.817,0.00076471,0.00083565,0,0,0
26.61,0.01402,0.83286,0.00078869,0.00096354,0,0,0
27.11,0.014178,0.85029,0.00080568,0.00083565,0,0,0
27.61,0.01401,0.86785,0.00075871,0.00093956,0,0,0
28.11,0.013946,0.884,0.00084564,0.00075472,0,0,0
28.61,0.014352,0.89986,0.00082266,0.00096354,0,0,0
29.11,0.014846,0.91614,0.00071474,0.00076471,0,0,0
29.61,0.014812,0.93286,0.0007757,0.00084564,0,0,0
30.11,0.015349,0.94914,0.00080168,0.00096953,0,0,0
30.61,0.015366,0.96586,0.00097952,0.00081567,0,0,0
31.11,0.015584,0.98214,0.00080867,0.00085863,0,0,0
31.61,0.016034,0.99886,0.00090959,0.00078569,0,0,0
32.11,0.01638,1.0149,0.0010305,0.00090259,0,0,0
32.61,0.01645,1.0303,0.0010904,0.00093956,0,0,0
33.11,0.017478,1.0459,0.00095355,0.0010205,0,0,0
33.61,0.017659,1.0633,0.0010365,0.00091658,0,0,0
34.11,0.018035,1.0806,0.0010834,0.0011773,0,0,0
34.61,0.018508,1.0963,0.0012342,0.0011274,0,0,0
35.11,0.018824,1.1119,0.0013081,0.0012083,0,0,0
35.61,0.019344,1.1279,0.0013721,0.0012982,0,0,0
36.11,0.019626,1.1441,0.0013691,0.0011643,0,0,0
36.61,0.020479,1.1599,0.001446,0.0011813,0,0,0
37.11,0.020318,1.1753,0.0012113,0.0012982,0,0,0
37.61,0.020419,1.1906,0.0011104,0.0012812,0,0,0
38.11,0.021006,1.2073,0.0012682,0.0012013,0,0,0
38.61,0.021043,1.223,0.0013251,0.0012812,0,0,0
39.11,0.020885,1.238,0.001406,0.0012243,0,0,0
39.61,0.021292,1.2537,0.0013251,0.0012213,0,0,0
40.11,0.02157,1.2701,0.0012922,0.001392,0,0,0
40.61,0.021822,1.2861,0.0011813,0.0013151,0,0,0
41.11,0.021845,1.3019,0.0012712,0.001402,0,0,0
41.61,0.022044,1.317,0.0012412,0.0012752,0,0,0
42.11,0.022487,1.3319,0.0012582,0.0013121,0,0,0
42.61,0.022557,1.3483,0.0013451,0.0015428,0,0,0
43.11,0.023313,1.3646,0.0015598,0.0015159,0,0,0
43.61,0.02348,1.3793,0.0016407,0.0013321,0,0,0
44.11,0.024085,1.3941,0.0017075,0.0015099,0,0,0
44.61,0.024269,1.4099,0.0017305,0.0015328,0,0,0
45.11,0.025119,1.4256,0.0017175,0.0017575,0,0,0
45.61,0.024951,1.4404,0.0017644,0.0017714,0,0,0
46.11,0.02582,1.4547,0.0018513,0.0017075,0,0,0
46.61,0.026133,1.4694,0.002006,0.001989,0,0,0
47.11,0.026606,1.4857,0.0020689,0.0020898,0,0,0
47.61,0.026908,1.501,0.0021766,0.0021198,0,0,0
48.11,0.027039,1.515,0.0020788,0.0020529,0,0,0
48.61,0.027482,1.53,0.0022195,0.0021467,0,0,0
49.11,0.027284,1.5459,0.0020729,0.0022634,0,0,0
49.61,0.027885,1.5611,0.0021158,0.0021627,0,0,0
50.11,0.028372,1.5761,0.0020928,0.0022335,0,0,0
50.61,0.028701,1.5907,0.0022565,0.0022565,0,0,0
51.11,0.028842,1.6049,0.0020329,0.0022066,0,0,0
51.61,0.029114,1.6203,0.0020689,0.0023073,0,0,0
52.11,0.029359,1.6359,0.0021058,0.0023403,0,0,0
52.61,0.030141,1.65,0.0021966,0.0023073,0,0,0
53.11,0.030077,1.6639,0.0023842,0.002458,0,0,0
53.61,0.030638,1.6784,0.0023103,0.0025248,0,0,0
54.11,0.031138,1.6936,0.0025956,0.0027023,0,0,0
54.61,0.031548,1.7081,0.0025418,0.0026355,0,0,0
55.11,0.031994,1.722,0.0026555,0.0027422,0,0,0
55.61,0.03225,1.7359,0.0027831,0.00284,0,0,0
56.11,0.032773,1.751,0.0029566,0.0030164,0,0,0
56.61,0.033307,1.7661,0.0030972,0.003147,0,0,0
57.11,0.033958,1.7797,0.0030743,0.0032677,0,0,0
57.61,0.034294,1.7931,0.0032816,0.0033444,0,0,0
58.11,0.034647,1.8069,0.0036493,0.0034122,0,0,0
58.61,0.035227,1.8211,0.0035058,0.0037559,0,0,0
59.11,0.035744,1.8351,0.0036623,0.0036493,0,0,0
59.61,0.03602,1.8487,0.0035457,0.0038566,0,0,0
60.11,0.036856,1.8619,0.0035587,0.0038366,0,0,0
60.61,0.037175,1.876,0.0037998,0.0039273,0,0,0
61.11,0.037816,1.8899,0.0036563,0.0040468,0,0,0
61.61,0.038376,1.9023,0.0037928,0.0039273,0,0,0
62.11,0.038927,1.9146,0.0041105,0.0040508,0,0,0
62.61,0.039807,1.9274,0.0040737,0.0041842,0,0,0
63.11,0.040257,1.9406,0.0041175,0.0042241,0,0,0
63.61,0.041364,1.9531,0.0044182,0.0043983,0,0,0
64.11,0.041855,1.9647,0.0044819,0.0043585,0,0,0
64.61,0.042657,1.9759,0.0046561,0.0045685,0,0,0
65.11,0.04355,1.9883,0.0049796,0.004689,0,0,0
65.61,0.044275,2.0009,0.0052064,0.0050134,0,0,0
66.11,0.044765,2.012,0.0054302,0.0051905,0,0,0
66.61,0.045987,2.0226,0.0058618,0.0055605,0,0,0
67.11,0.046803,2.0331,0.0061381,0.0060417,0,0,0
67.61,0.047616,2.0439,0.0064988,0.0060944,0,0,0
68.11,0.048582,2.0541,0.0070918,0.0064352,0,0,0
68.61,0.04963,2.064,0.0071851,0.0067452,0,0,0
69.11,0.050708,2.0736,0.0075187,0.0070858,0,0,0
69.61,0.052178,2.0831,0.0076586,0.0073519,0,0,0
70.11,0.053534,2.0926,0.0078184,0.0076388,0,0,0
70.61,0.055116,2.1017,0.0080951,0.0075951,0,0,0
71.11,0.056536,2.111,0.0081378,0.0079682,0,0,0
71.61,0.058063,2.1197,0.0082648,0.008112,0,0,0
72.11,0.059644,2.1283,0.0085583,0.008238,0,0,0
72.61,0.060994,2.1367,0.0087377,0.0085047,0,0,0
73.11,0.062877,2.1444,0.0089806,0.0085642,0,0,0
73.61,0.06411,2.1521,0.0091302,0.0089568,0,0,0
74.11,0.065583,2.1604,0.0093799,0.0092233,0,0,0
74.61,0.067306,2.1687,0.0099583,0.009476,0,0,0
75.11,0.068699,2.1757,0.010347,0.0098315,0,0,0
75.61,0.070371,2.1829,0.010673,0.010101,0,0,0
76.11,0.07211,2.1901,0.011287,0.010649,0,0,0
76.61,0.073825,2.1976,0.01199,0.011197,0,0,0
77.11,0.075732,2.2047,0.012395,0.011576,0,0,0
77.61,0.077703,2.2117,0.012759,0.01199,0,0,0
78.11,0.079781,2.2186,0.013323,0.012617,0,0,0
78.61,0.081681,2.226,0.013469,0.012846,0,0,0
79.11,0.083514,2.2334,0.014094,0.013213,0,0,0
79.61,0.085243,2.24,0.014313,0.013714,0,0,0
80.11,0.086878,2.2463,0.014813,0.014025,0,0,0
80.61,0.089074,2.2527,0.014816,0.01427,0,0,0
81.11,0.090739,2.2596,0.0151,0.014591,0,0,0
81.61,0.092394,2.2664,0.015371,0.014776,0,0,0
82.11,0.094019,2.2727,0.015673,0.015011,0,0,0
82.61,0.096057,2.2786,0.015821,0.015179,0,0,0
83.11,0.097648,2.2853,0.016065,0.015484,0,0,0
83.61,0.099958,2.2921,0.016518,0.015771,0,0,0
84.11,0.10194,2.298,0.016686,0.016184,0,0,0
84.61,0.10421,2.3033,0.017033,0.016376,0,0,0
85.11,0.10629,2.3093,0.017515,0.016683,0,0,0
85.61,0.10842,2.316,0.017792,0.017399,0,0,0
86.11,0.11019,2.3224,0.018375,0.017614,0,0,0
86.61,0.11214,2.328,0.018933,0.018049,0,0,0
87.11,0.1142,2.3336,0.01938,0.018514,0,0,0
87.61,0.11578,2.3394,0.019753,0.019008,0,0,0
88.11,0.11759,2.3453,0.020357,0.019348,0,0,0
88.61,0.1195,2.351,0.020776,0.019805,0,0,0
89.11,0.12155,2.357,0.021169,0.020078,0,0,0
89.61,0.12376,2.3627,0.021578,0.020453,0,0,0
90.11,0.12581,2.3686,0.02187,0.02089,0,0,0
90.61,0.12783,2.3744,0.021926,0.021019,0,0,0
91.11,0.13003,2.38,0.02229,0.02135,0,0,0
91.61,0.13243,2.3853,0.022589,0.021732,0,0,0
92.11,0.1347,2.391,0.022996,0.021866,0,0,0
92.61,0.13659,2.3967,0.023258,0.022254,0,0,0
93.11,0.1389,2.402,0.023508,0.022517,0,0,0
93.61,0.14053,2.407,0.023953,0.022947,0,0,0
94.11,0.14194,2.4123,0.024215,0.023196,0,0,0
94.61,0.14489,2.418,0.024667,0.023658,0,0,0
95.11,0.14641,2.4237,0.024939,0.0241,0,0,0
95.61,0.1491,2.4287,0.025444,0.02453,0,0,0
96.11,0.15113,2.4336,0.025764,0.024802,0,0,0
96.61,0.15342,2.439,0.026232,0.025063,0,0,0
97.11,0.1558,2.4447,0.026601,0.025613,0,0,0
97.61,0.15805,2.4497,0.02702,0.025885,0,0,0
98.11,0.15995,2.4546,0.027383,0.026242,0,0,0
98.61,0.16213,2.4594,0.027631,0.026572,0,0,0
99.11,0.16426,2.4646,0.028088,0.026769,0,0,0
99.61,0.16627,2.4694,0.02842,0.027317,0,0,0
100.11,0.16839,2.4743,0.028929,0.027621,0,0,0
100.61,0.17059,2.4793,0.029422,0.027944,0,0,0
101.11,0.17241,2.4847,0.029562,0.028232,0,0,0
101.61,0.17471,2.4897,0.029982,0.028586,0,0,0
102.11,0.17688,2.4943,0.03023,0.028819,0,0,0
102.61,0.17918,2.499,0.030783,0.029282,0,0,0
103.11,0.18155,2.5037,0.030992,0.029585,0,0,0
103.61,0.18383,2.5086,0.031418,0.029986,0,0,0
104.11,0.18626,2.5134,0.031792,0.030282,0,0,0
104.61,0.18847,2.518,0.032195,0.030572,0,0,0
105.11,0.19054,2.5226,0.032429,0.031076,0,0,0
105.61,0.19266,2.5277,0.032787,0.03134,0,0,0
106.11,0.19482,2.5324,0.033057,0.031701,0,0,0
106.61,0.19646,2.5366,0.033537,0.031926,0,0,0
107.11,0.19875,2.541,0.033813,0.032345,0,0,0
107.61,0.20087,2.5457,0.0344,0.032764,0,0,0
108.11,0.20305,2.55,0.034627,0.032858,0,0,0
108.61,0.20531,2.5543,0.034967,0.033258,0,0,0
109.11,0.20743,2.5587,0.035311,0.0338,0,0,0
109.61,0.20945,2.5633,0.035717,0.033978,0,0,0
110.11,0.21199,2.568,0.035888,0.03431,0,0,0
110.61,0.21425,2.5727,0.036263,0.034728,0,0,0
111.11,0.21619,2.577,0.036616,0.0349,0,0,0
111.61,0.21817,2.5813,0.037014,0.035189,0,0,0
112.11,0.22027,2.5857,0.037196,0.035612,0,0,0
112.61,0.22232,2.59,0.037865,0.035872,0,0,0
113.11,0.22427,2.594,0.038282,0.036182,0,0,0
113.61,0.22622,2.5983,0.038443,0.036532,0,0,0
114.11,0.22831,2.6027,0.038786,0.036924,0,0,0
114.61,0.2306,2.607,0.038953,0.037351,0,0,0
115.11,0.23218,2.6107,0.039322,0.037613,0,0,0
115.61,0.23503,2.6143,0.039512,0.037865,0,0,0
116.11,0.23709,2.6183,0.03998,0.038185,0,0,0
116.61,0.23931,2.6227,0.040238,0.038689,0,0,0
117.11,0.24127,2.6267,0.040593,0.038786,0,0,0
117.61,0.24272,2.6306,0.040883,0.039012,0,0,0
118.11,0.24599,2.6347,0.041495,0.0394,0,0,0
118.61,0.24761,2.639,0.041882,0.039787,0,0,0
119.11,0.24899,2.643,0.042139,0.040044,0,0,0
119.61,0.25133,2.647,0.042493,0.040303,0,0,0
120.11,0.25307,2.6507,0.042878,0.040754,0,0,0
120.61,0.25508,2.6543,0.043072,0.040947,0,0,0
121.11,0.25752,2.6577,0.043714,0.041302,0,0,0
121.61,0.2593,2.6613,0.04378,0.041528,0,0,0
122.11,0.26208,2.665,0.044293,0.041978,0,0,0
122.61,0.2641,2.669,0.044518,0.042171,0,0,0
123.11,0.26586,2.6727,0.044614,0.042429,0,0,0
123.61,0.26812,2.6763,0.044999,0.04275,0,0,0
124.11,0.27001,2.68,0.04532,0.043105,0,0,0
124.61,0.27207,2.6837,0.045384,0.043489,0,0,0
125.11,0.27352,2.6873,0.045833,0.043811,0,0,0
125.61,0.27571,2.6907,0.046186,0.044036,0,0,0
126.11,0.27748,2.694,0.046282,0.044197,0,0,0
126.61,0.27953,2.6973,0.046731,0.044614,0,0,0
127.11,0.28168,2.701,0.047019,0.044935,0,0,0
127.61,0.28371,2.7047,0.047307,0.045256,0,0,0
128.11,0.28579,2.708,0.04766,0.045448,0,0,0
128.61,0.28812,2.7113,0.048012,0.045994,0,0,0
129.11,0.29028,2.7147,0.048556,0.046154,0,0,0
129.61,0.29182,2.718,0.04878,0.046315,0,0,0
130.11,0.29451,2.721,0.049131,0.046763,0,0,0
130.61,0.29585,2.724,0.049515,0.046827,0,0,0
131.11,0.29773,2.7273,0.049771,0.047243,0,0,0
131.61,0.29966,2.7307,0.050185,0.047436,0,0,0
132.11,0.30174,2.734,0.050218,0.047788,0,0,0
132.61,0.30323,2.7373,0.050505,0.048139,0,0,0
133.11,0.30496,2.7407,0.050983,0.048236,0,0,0
133.61,0.3071,2.7437,0.051079,0.048492,0,0,0
134.11,0.30927,2.7466,0.051462,0.048876,0,0,0
134.61,0.31112,2.7497,0.051525,0.049067,0,0,0
135.11,0.31322,2.7527,0.051845,0.049387,0,0,0
135.61,0.31534,2.7556,0.051972,0.04977,0,0,0
136.11,0.31742,2.7587,0.052322,0.04993,0,0,0
136.61,0.31898,2.762,0.052704,0.050089,0,0,0
137.11,0.32068,2.765,0.052832,0.050569,0,0,0
137.61,0.32283,2.768,0.05315,0.050792,0,0,0
138.11,0.32457,2.771,0.053373,0.050952,0,0,0
138.61,0.32623,2.774,0.053914,0.051366,0,0,0
139.11,0.32845,2.777,0.054168,0.051525,0,0,0
139.61,0.33082,2.7797,0.054423,0.051908,0,0,0
140.11,0.33227,2.7826,0.054804,0.052163,0,0,0
140.61,0.33436,2.7857,0.055059,0.052291,0,0,0
141.11,0.33596,2.7887,0.055567,0.052545,0,0,0
141.61,0.33886,2.7916,0.055821,0.052737,0,0,0
142.11,0.34051,2.7944,0.056043,0.052896,0,0,0
142.61,0.34217,2.7973,0.056075,0.053119,0,0,0
143.11,0.34327,2.8,0.056424,0.053373,0,0,0
143.61,0.34739,2.8027,0.056741,0.053818,0,0,0
144.11,0.34698,2.8053,0.057059,0.053914,0,0,0
144.61,0.34868,2.8077,0.05709,0.054168,0,0,0
145.11,0.35012,2.8106,0.05747,0.054455,0,0,0
145.61,0.35196,2.8134,0.057724,0.054741,0,0,0
146.11,0.35373,2.8163,0.057756,0.054995,0,0,0
146.61,0.35547,2.819,0.058136,0.05509,0,0,0
147.11,0.35785,2.8217,0.058294,0.055535,0,0,0
147.61,0.35987,2.8243,0.058516,0.055694,0,0,0
148.11,0.36186,2.827,0.058801,0.055853,0,0,0
148.61,0.36335,2.8297,0.059086,0.056297,0,0,0
149.11,0.36512,2.8323,0.059402,0.056615,0,0,0
149.61,0.36686,2.835,0.059719,0.056837,0,0,0
150.11,0.36847,2.8377,0.059782,0.0569,0,0,0
150.61,0.37047,2.8403,0.060161,0.057407,0,0,0
151.11,0.3725,2.843,0.060446,0.057534,0,0,0
151.61,0.37407,2.8457,0.060982,0.057756,0,0,0
152.11,0.37604,2.8483,0.061172,0.058073,0,0,0
152.61,0.37843,2.8507,0.061424,0.058262,0,0,0
153.11,0.38028,2.853,0.061677,0.058484,0,0,0
153.61,0.38194,2.8553,0.061961,0.058611,0,0,0
154.11,0.38372,2.858,0.062024,0.058927,0,0,0
154.61,0.38574,2.861,0.062435,0.059149,0,0,0
155.11,0.38771,2.8637,0.062624,0.059497,0,0,0
155.61,0.38963,2.8663,0.062971,0.059687,0,0,0
156.11,0.39144,2.8687,0.063002,0.05994,0,0,0
156.61,0.39332,2.8713,0.063192,0.060161,0,0,0
157.11,0.39486,2.8737,0.063475,0.060225,0,0,0
157.61,0.39671,2.876,0.063884,0.06073,0,0,0
158.11,0.39847,2.878,0.06401,0.060983,0,0,0
158.61,0.40023,2.8803,0.064262,0.061204,0,0,0
159.11,0.40202,2.883,0.064545,0.061456,0,0,0
159.61,0.404,2.8857,0.064766,0.06174,0,0,0
160.11,0.40583,2.8883,0.065112,0.061993,0,0,0
160.61,0.40775,2.8907,0.065646,0.062246,0,0,0
161.11,0.40994,2.893,0.065678,0.062498,0,0,0
161.61,0.41178,2.8953,0.065898,0.062781,0,0,0
162.11,0.41368,2.8977,0.066181,0.062781,0,0,0
162.61,0.41548,2.9003,0.066495,0.063128,0,0,0
163.11,0.41737,2.9027,0.066683,0.06338,0,0,0
163.61,0.41885,2.905,0.066872,0.063633,0,0,0
164.11,0.42058,2.9073,0.067217,0.063759,0,0,0
164.61,0.42247,2.9097,0.067625,0.064168,0,0,0
165.11,0.42402,2.912,0.067657,0.064262,0,0,0
165.61,0.42559,2.9143,0.067971,0.064357,0,0,0
166.11,0.42752,2.9167,0.068128,0.06464,0,0,0
166.61,0.42958,2.919,0.068567,0.064828,0,0,0
167.11,0.43143,2.921,0.068692,0.065269,0,0,0
167.61,0.43333,2.923,0.068911,0.065363,0,0,0
168.11,0.43535,2.9253,0.069099,0.065678,0,0,0
168.61,0.43719,2.9277,0.069318,0.065898,0,0,0
169.11,0.43893,2.93,0.069913,0.066213,0,0,0
169.61,0.44063,2.932,0.069976,0.066526,0,0,0
170.11,0.44229,2.9343,0.069913,0.066746,0,0,0
170.61,0.4442,2.937,0.07057,0.066872,0,0,0
171.11,0.44596,2.9394,0.070602,0.067217,0,0,0
171.61,0.44757,2.9416,0.070852,0.067437,0,0,0
172.11,0.44936,2.9437,0.07104,0.067814,0,0,0
172.61,0.45148,2.946,0.071446,0.068128,0,0,0
173.11,0.45339,2.9483,0.071602,0.068064,0,0,0
173.61,0.45529,2.9507,0.071821,0.068378,0,0,0
174.11,0.45745,2.953,0.072164,0.068535,0,0,0
174.61,0.45919,2.955,0.072477,0.068723,0,0,0
175.11,0.46134,2.957,0.072477,0.068942,0,0,0
175.61,0.46298,2.959,0.072852,0.069193,0,0,0
176.11,0.46472,2.9613,0.073008,0.069381,0,0,0
176.61,0.46656,2.9634,0.073413,0.069506,0,0,0
177.11,0.4682,2.9656,0.073445,0.069788,0,0,0
177.61,0.46998,2.9677,0.073787,0.069913,0,0,0
178.11,0.47167,2.97,0.073975,0.070195,0,0,0
178.61,0.47362,2.972,0.074286,0.070321,0,0,0
179.11,0.47542,2.9743,0.074692,0.070664,0,0,0
179.61,0.47719,2.9767,0.07491,0.070977,0,0,0
180.11,0.4791,2.9787,0.07519,0.071259,0,0,0
180.61,0.48097,2.9806,0.075222,0.071446,0,0,0
181.11,0.4832,2.9827,0.075812,0.071789,0,0,0
181.61,0.48492,2.985,0.075906,0.072009,0,0,0
182.11,0.48669,2.987,0.076154,0.072321,0,0,0
182.61,0.48852,2.989,0.07631,0.072633,0,0,0
183.11,0.49019,2.991,0.076559,0.072758,0,0,0
183.61,0.49205,2.9933,0.076683,0.072883,0,0,0
184.11,0.49371,2.9957,0.07715,0.073289,0,0,0
184.61,0.49532,2.9977,0.077305,0.073413,0,0,0
185.11,0.49702,2.9993,0.077647,0.073601,0,0,0
185.61,0.49869,3.0013,0.077709,0.073787,0,0,0
186.11,0.50058,3.0037,0.077988,0.073912,0,0,0
186.61,0.50249,3.006,0.078206,0.073944,0,0,0
187.11,0.50425,3.008,0.078299,0.074318,0,0,0
187.61,0.5064,3.01,0.078485,0.074474,0,0,0
188.11,0.50815,3.012,0.079013,0.074785,0,0,0
188.61,0.50999,3.014,0.079044,0.074847,0,0,0
189.11,0.5118,3.016,0.07923,0.075096,0,0,0
189.61,0.51345,3.018,0.079726,0.075346,0,0,0
190.11,0.51513,3.02,0.080036,0.075812,0,0,0
190.61,0.51674,3.022,0.080284,0.075906,0,0,0
191.11,0.51862,3.024,0.080439,0.076466,0,0,0
191.61,0.5203,3.026,0.080873,0.076528,0,0,0
192.11,0.52198,3.0277,0.081058,0.076591,0,0,0
192.61,0.52379,3.0296,0.081182,0.077026,0,0,0
193.11,0.52574,3.0317,0.081461,0.077336,0,0,0
193.61,0.52765,3.0337,0.081708,0.077398,0,0,0
194.11,0.5294,3.0356,0.082048,0.077709,0,0,0
194.61,0.53141,3.0377,0.082141,0.077926,0,0,0
195.11,0.53326,3.04,0.082451,0.07805,0,0,0
195.61,0.53514,3.042,0.082574,0.078361,0,0,0
196.11,0.53685,3.044,0.082852,0.078578,0,0,0
196.61,0.53876,3.046,0.083192,0.078702,0,0,0
197.11,0.54024,3.048,0.083161,0.078827,0,0,0
197.61,0.54182,3.05,0.083409,0.079013,0,0,0
198.11,0.54336,3.0517,0.083717,0.079136,0,0,0
198.61,0.54571,3.0533,0.084056,0.07954,0,0,0
199.11,0.54753,3.0553,0.084303,0.079757,0,0,0
199.61,0.54947,3.0574,0.084458,0.080005,0,0,0
200.11,0.55129,3.0596,0.084674,0.080098,0,0,0
200.61,0.55347,3.0614,0.08489,0.08047,0,0,0
201.11,0.55518,3.0633,0.08529,0.08081,0,0,0
201.61,0.55723,3.065,0.085599,0.081027,0,0,0
202.11,0.55904,3.067,0.085814,0.081151,0,0,0
202.61,0.56045,3.0687,0.086184,0.081523,0,0,0
203.11,0.5625,3.0703,0.086461,0.081646,0,0,0
203.61,0.56414,3.072,0.086646,0.081893,0,0,0
204.11,0.56606,3.074,0.086739,0.08211,0,0,0
204.61,0.56754,3.076,0.087077,0.082296,0,0,0
205.11,0.56918,3.078,0.087231,0.082512,0,0,0
205.61,0.57099,3.08,0.087385,0.082697,0,0,0
206.11,0.57281,3.082,0.087538,0.083068,0,0,0
206.61,0.57479,3.084,0.087969,0.083161,0,0,0
207.11,0.57677,3.086,0.087877,0.083439,0,0,0
207.61,0.57868,3.0877,0.08803,0.083594,0,0,0
208.11,0.58059,3.0896,0.088308,0.083717,0,0,0
208.61,0.58237,3.0914,0.088492,0.084087,0,0,0
209.11,0.58409,3.0933,0.088707,0.084365,0,0,0
209.61,0.58583,3.095,0.089168,0.084581,0,0,0
210.11,0.58754,3.097,0.089444,0.08489,0,0,0
210.61,0.58905,3.099,0.089751,0.085074,0,0,0
211.11,0.59083,3.101,0.089966,0.08529,0,0,0
211.61,0.59251,3.1027,0.090181,0.085567,0,0,0
212.11,0.59436,3.1043,0.09061,0.085691,0,0,0
212.61,0.5962,3.106,0.091008,0.085999,0,0,0
213.11,0.59812,3.108,0.091039,0.086184,0,0,0
213.61,0.59996,3.1097,0.091345,0.086492,0,0,0
214.11,0.60174,3.1113,0.091591,0.086646,0,0,0
214.61,0.60366,3.113,0.091774,0.086861,0,0,0
215.11,0.6054,3.115,0.091958,0.087016,0,0,0
215.61,0.60705,3.117,0.092295,0.087446,0,0,0
216.11,0.60873,3.119,0.092356,0.087477,0,0,0
216.61,0.61054,3.1207,0.092509,0.087723,0,0,0
217.11,0.61225,3.1226,0.092784,0.088215,0,0,0
217.61,0.6142,3.1244,0.092967,0.088338,0,0,0
218.11,0.61591,3.1263,0.093151,0.088522,0,0,0
218.61,0.61752,3.128,0.093336,0.088768,0,0,0
219.11,0.6196,3.1297,0.093886,0.089075,0,0,0
219.61,0.62138,3.1313,0.093916,0.089167,0,0,0
220.11,0.62326,3.133,0.09416,0.089413,0,0,0
220.61,0.62541,3.135,0.094405,0.089843,0,0,0
221.11,0.62726,3.1367,0.094771,0.089843,0,0,0
221.61,0.62921,3.1383,0.094955,0.090241,0,0,0
222.11,0.63085,3.14,0.095321,0.090394,0,0,0
222.61,0.6326,3.142,0.095626,0.090732,0,0,0
223.11,0.63428,3.144,0.095992,0.090916,0,0,0
223.61,0.63606,3.1457,0.096175,0.091038,0,0,0
224.11,0.6377,3.1473,0.096328,0.091284,0,0,0
224.61,0.63938,3.149,0.09651,0.091621,0,0,0
225.11,0.64133,3.1507,0.096785,0.091713,0,0,0
225.61,0.64311,3.1523,0.096876,0.091866,0,0,0
226.11,0.64492,3.154,0.09715,0.092203,0,0,0
226.61,0.64683,3.156,0.097424,0.092417,0,0,0
227.11,0.64878,3.158,0.097608,0.09257,0,0,0
227.61,0.65069,3.1597,0.09776,0.092815,0,0,0
228.11,0.65251,3.1613,0.098125,0.093151,0,0,0
228.61,0.65425,3.163,0.098337,0.093457,0,0,0
229.11,0.65559,3.1647,0.098368,0.093672,0,0,0
229.61,0.65774,3.1663,0.098855,0.094129,0,0,0
230.11,0.65915,3.168,0.099068,0.094282,0,0,0
230.61,0.66103,3.17,0.099311,0.094557,0,0,0
231.11,0.66278,3.172,0.099676,0.094557,0,0,0
231.61,0.66439,3.174,0.099949,0.094985,0,0,0
232.11,0.66614,3.1757,0.10047,0.095168,0,0,0
232.61,0.66818,3.1773,0.10044,0.095381,0,0,0
233.11,0.66959,3.1787,0.1008,0.095534,0,0,0
233.61,0.67181,3.1803,0.10092,0.095839,0,0,0
234.11,0.67386,3.1817,0.10113,0.096022,0,0,0
234.61,0.67554,3.1833,0.1015,0.096113,0,0,0
235.11,0.67715,3.185,0.10168,0.096388,0,0,0
235.61,0.67893,3.187,0.10195,0.09651,0,0,0
236.11,0.68077,3.1887,0.1021,0.096937,0,0,0
236.61,0.68245,3.1903,0.10232,0.097089,0,0,0
237.11,0.68413,3.192,0.10262,0.097241,0,0,0
237.61,0.68588,3.1937,0.10268,0.097546,0,0,0
238.11,0.68776,3.1953,0.10286,0.09782,0,0,0
238.61,0.6895,3.1967,0.10332,0.098155,0,0,0
239.11,0.69105,3.1983,0.1035,0.098246,0,0,0
239.61,0.69326,3.2,0.10392,0.098763,0,0,0
240.11,0.69521,3.202,0.10431,0.098793,0,0,0
240.61,0.69699,3.204,0.10453,0.099158,0,0,0
241.11,0.69894,3.2057,0.10477,0.09928,0,0,0
241.61,0.70078,3.2073,0.10507,0.099523,0,0,0
242.11,0.70243,3.209,0.10537,0.099827,0,0,0
242.61,0.70414,3.2107,0.10555,0.1001,0,0,0
243.11,0.70602,3.2123,0.10589,0.10025,0,0,0
243.61,0.7078,3.214,0.10613,0.10047,0,0,0
244.11,0.70934,3.2157,0.10622,0.10074,0,0,0
244.61,0.71105,3.2173,0.10658,0.10098,0,0,0
245.11,0.71324,3.219,0.1067,0.10113,0,0,0
245.61,0.71505,3.2207,0.10673,0.10122,0,0,0
246.11,0.71703,3.2223,0.10715,0.10159,0,0,0
246.61,0.71874,3.2237,0.10727,0.1018,0,0,0
247.11,0.72069,3.2253,0.10764,0.10216,0,0,0
247.61,0.72267,3.2267,0.10773,0.10222,0,0,0
248.11,0.72448,3.2283,0.10794,0.10235,0,0,0
248.61,0.72623,3.23,0.10812,0.10271,0,0,0
249.11,0.72791,3.2317,0.10866,0.1031,0,0,0
249.61,0.72962,3.2333,0.10905,0.10313,0,0,0
250.11,0.73143,3.235,0.10935,0.10335,0,0,0
250.61,0.73294,3.2367,0.10956,0.10368,0,0,0
251.11,0.73455,3.2383,0.10998,0.10386,0,0,0
251.61,0.7366,3.24,0.11016,0.10416,0,0,0
252.11,0.73835,3.2414,0.1105,0.1044,0,0,0
252.61,0.74013,3.2429,0.11083,0.10459,0,0,0
253.11,0.74201,3.2444,0.11104,0.10492,0,0,0
253.61,0.74382,3.2463,0.11104,0.10504,0,0,0
254.11,0.7458,3.248,0.11137,0.10534,0,0,0
254.61,0.74748,3.2497,0.11164,0.10543,0,0,0
255.11,0.74913,3.251,0.11197,0.10588,0,0,0
255.61,0.75101,3.2526,0.11209,0.10604,0,0,0
256.11,0.75275,3.2544,0.11221,0.10616,0,0,0
256.61,0.7543,3.2563,0.11245,0.1064,0,0,0
257.11,0.75604,3.2577,0.11254,0.10673,0,0,0
257.61,0.75772,3.2593,0.11284,0.10682,0,0,0
258.11,0.75953,3.2607,0.11341,0.10712,0,0,0
258.61,0.76118,3.2623,0.11362,0.1073,0,0,0
259.11,0.76313,3.264,0.11371,0.10761,0,0,0
259.61,0.76494,3.2657,0.11407,0.10776,0,0,0
260.11,0.76685,3.2673,0.11449,0.108,0,0,0
260.61,0.76863,3.2687,0.11473,0.10824,0,0,0
261.11,0.77051,3.27,0.11491,0.10848,0,0,0
261.61,0.77212,3.2713,0.11538,0.10869,0,0,0
262.11,0.7739,3.273,0.11553,0.1089,0,0,0
262.61,0.77524,3.2747,0.11583,0.10917,0,0,0
263.11,0.77743,3.2763,0.1161,0.10941,0,0,0
263.61,0.779,3.2777,0.11631,0.10947,0,0,0
264.11,0.78078,3.2793,0.11655,0.10998,0,0,0
264.61,0.78253,3.2807,0.11685,0.1101,0,0,0
265.11,0.78434,3.2823,0.11706,0.1105,0,0,0
265.61,0.78612,3.2837,0.11733,0.11056,0,0,0
266.11,0.78794,3.2853,0.11747,0.11086,0,0,0
266.61,0.79015,3.287,0.11771,0.11131,0,0,0
267.11,0.79193,3.2887,0.11786,0.11158,0,0,0
267.61,0.79351,3.2903,0.11822,0.1117,0,0,0
268.11,0.79569,3.2917,0.11852,0.11194,0,0,0
268.61,0.79717,3.2933,0.1187,0.11215,0,0,0
269.11,0.79891,3.2947,0.11894,0.11221,0,0,0
269.61,0.80069,3.2963,0.11929,0.11251,0,0,0
270.11,0.80217,3.2977,0.11956,0.11284,0,0,0
270.61,0.80415,3.2993,0.11977,0.11293,0,0,0
271.11,0.8058,3.301,0.12001,0.11326,0,0,0
271.61,0.80778,3.3027,0.12019,0.1135,0,0,0
272.11,0.80959,3.304,0.12069,0.11365,0,0,0
272.61,0.81147,3.3053,0.12078,0.11395,0,0,0
273.11,0.81368,3.3067,0.1212,0.11422,0,0,0
273.61,0.81499,3.3083,0.12138,0.11454,0,0,0
274.11,0.81711,3.3097,0.12156,0.11466,0,0,0
274.61,0.81902,3.3113,0.12206,0.11499,0,0,0
275.11,0.8207,3.313,0.12218,0.11523,0,0,0
275.61,0.82258,3.315,0.12254,0.11544,0,0,0
276.11,0.8247,3.3167,0.12251,0.11583,0,0,0
276.61,0.82634,3.318,0.12313,0.11616,0,0,0
277.11,0.82752,3.3193,0.12322,0.11649,0,0,0
277.61,0.8293,3.3207,0.12369,0.11664,0,0,0
278.11,0.83141,3.3223,0.12396,0.11688,0,0,0
278.61,0.83285,3.3237,0.12408,0.11721,0,0,0
279.11,0.83457,3.325,0.12435,0.11738,0,0,0
279.61,0.83641,3.3263,0.12452,0.11759,0,0,0
280.11,0.83836,3.328,0.12485,0.11804,0,0,0
280.61,0.84001,3.3297,0.12524,0.1181,0,0,0
281.11,0.84178,3.331,0.1253,0.11831,0,0,0
281.61,0.8437,3.3323,0.1258,0.11849,0,0,0
282.11,0.84534,3.334,0.12586,0.11882,0,0,0
282.61,0.84696,3.336,0.12618,0.11912,0,0,0
283.11,0.84887,3.3374,0.12636,0.11914,0,0,0
283.61,0.85038,3.3386,0.12666,0.11953,0,0,0
284.11,0.85243,3.3397,0.12681,0.11986,0,0,0
284.61,0.85411,3.3413,0.12731,0.12004,0,0,0
285.11,0.85592,3.3427,0.12754,0.12034,0,0,0
285.61,0.8577,3.3443,0.12781,0.12078,0,0,0
286.11,0.85968,3.3457,0.12805,0.12108,0,0,0
286.61,0.86169,3.3473,0.12849,0.12132,0,0,0
287.11,0.86344,3.3487,0.1287,0.12156,0,0,0
287.61,0.86528,3.35,0.12935,0.12168,0,0,0
288.11,0.8671,3.3513,0.1292,0.12203,0,0,0
288.61,0.86901,3.3527,0.1297,0.12236,0,0,0
289.11,0.87066,3.3543,0.13005,0.12242,0,0,0
289.61,0.8724,3.3557,0.13032,0.12292,0,0,0
290.11,0.87432,3.3573,0.13029,0.1231,0,0,0
290.61,0.87596,3.359,0.1307,0.12331,0,0,0
291.11,0.87764,3.3607,0.131,0.12358,0,0,0
291.61,0.87955,3.3623,0.13094,0.12366,0,0,0
292.11,0.8815,3.3637,0.13138,0.12402,0,0,0
292.61,0.88338,3.365,0.13167,0.12441,0,0,0
293.11,0.88526,3.3663,0.13182,0.12464,0,0,0
293.61,0.88711,3.3677,0.13203,0.125,0,0,0
294.11,0.88926,3.3693,0.13235,0.12527,0,0,0
294.61,0.89104,3.3707,0.13261,0.12535,0,0,0
295.11,0.89258,3.372,0.13297,0.12574,0,0,0
295.61,0.89422,3.373,0.13317,0.12583,0,0,0
296.11,0.8959,3.3743,0.13353,0.12627,0,0,0
296.61,0.89748,3.3757,0.13373,0.12642,0,0,0
297.11,0.89929,3.3773,0.13399,0.1268,0,0,0
297.61,0.90107,3.3787,0.13426,0.12704,0,0,0
298.11,0.90268,3.38,0.13473,0.12725,0,0,0
298.61,0.90473,3.3813,0.13505,0.12754,0,0,0
299.11,0.90658,3.383,0.13534,0.12772,0,0,0
299.61,0.90846,3.3847,0.13567,0.12799,0,0,0
300.11,0.91024,3.386,0.13602,0.12828,0,0,0
300.61,0.91198,3.3873,0.13619,0.12852,0,0,0
301.11,0.91366,3.3887,0.13637,0.12867,0,0,0
301.61,0.91558,3.3903,0.13675,0.12905,0,0,0
302.11,0.91719,3.3917,0.13678,0.12931,0,0,0
302.61,0.9189,3.393,0.1369,0.12952,0,0,0
303.11,0.92061,3.3943,0.13745,0.12973,0,0,0
303.61,0.92249,3.3957,0.13748,0.1302,0,0,0
304.11,0.9243,3.3973,0.13781,0.13046,0,0,0
304.61,0.92575,3.3987,0.13798,0.13061,0,0,0
305.11,0.9279,3.4003,0.1383,0.13105,0,0,0
305.61,0.92981,3.4017,0.13871,0.13135,0,0,0
306.11,0.93159,3.403,0.1388,0.13167,0,0,0
306.61,0.9332,3.404,0.13947,0.13179,0,0,0
307.11,0.93525,3.4053,0.1395,0.13203,0,0,0
307.61,0.93703,3.4067,0.13991,0.13232,0,0,0
308.11,0.93888,3.4083,0.14038,0.13238,0,0,0
308.61,0.94062,3.4097,0.14064,0.13279,0,0,0
309.11,0.94206,3.411,0.14096,0.133,0,0,0
309.61,0.94384,3.412,0.14125,0.13329,0,0,0
310.11,0.94546,3.4133,0.14169,0.13341,0,0,0
310.61,0.9474,3.4147,0.14178,0.13388,0,0,0
311.11,0.94908,3.4163,0.14215,0.13405,0,0,0
311.61,0.95096,3.4177,0.14236,0.13443,0,0,0
312.11,0.95264,3.4193,0.14265,0.13476,0,0,0
312.61,0.95452,3.4207,0.14294,0.1349,0,0,0
313.11,0.95657,3.4223,0.14294,0.13505,0,0,0
313.61,0.95841,3.4237,0.14326,0.13537,0,0,0
314.11,0.96026,3.425,0.14361,0.1357,0,0,0
314.61,0.96211,3.4263,0.14381,0.13593,0,0,0
315.11,0.96382,3.4277,0.14413,0.13625,0,0,0
315.61,0.96533,3.4293,0.14463,0.13649,0,0,0
316.11,0.96697,3.4307,0.14492,0.13672,0,0,0
316.61,0.96892,3.432,0.14509,0.13704,0,0,0
317.11,0.9706,3.4333,0.14553,0.13737,0,0,0
317.61,0.97235,3.4347,0.14582,0.13757,0,0,0
318.11,0.97429,3.436,0.14631,0.13792,0,0,0
318.61,0.97624,3.4373,0.14654,0.13804,0,0,0
319.11,0.97812,3.4384,0.14698,0.13839,0,0,0
319.61,0.97983,3.4396,0.14721,0.13874,0,0,0
320.11,0.98185,3.4407,0.14753,0.13909,0,0,0
320.61,0.98359,3.4423,0.14761,0.13944,0,0,0
321.11,0.98544,3.4437,0.14811,0.13947,0,0,0
321.61,0.98685,3.445,0.14854,0.13976,0,0,0
322.11,0.98873,3.446,0.14871,0.14002,0,0,0
322.61,0.99047,3.4473,0.149,0.1404,0,0,0
323.11,0.99235,3.449,0.14918,0.14078,0,0,0
323.61,0.99387,3.4507,0.14964,0.14093,0,0,0
324.11,0.99588,3.452,0.14996,0.14116,0,0,0
324.61,0.99773,3.453,0.15016,0.14148,0,0,0
325.11,0.99927,3.4543,0.15045,0.14189,0,0,0
325.61,1.0013,3.4557,0.15056,0.14215,0,0,0
326.11,1.0031,3.4573,0.15111,0.1423,0,0,0
326.61,1.0052,3.4587,0.15152,0.14259,0,0,0
327.11,1.0069,3.46,0.15175,0.14303,0,0,0
327.61,1.0088,3.4613,0.15198,0.1432,0,0,0
328.11,1.0105,3.4627,0.15232,0.14349,0,0,0
328.61,1.0123,3.4637,0.15255,0.14381,0,0,0
329.11,1.0139,3.4646,0.15293,0.14419,0,0,0
329.61,1.0158,3.4657,0.15339,0.14433,0,0,0
330.11,1.0175,3.467,0.15371,0.14471,0,0,0
330.61,1.0194,3.4683,0.15391,0.14497,0,0,0
331.11,1.0212,3.4697,0.15417,0.14512,0,0,0
331.61,1.0233,3.471,0.15457,0.14532,0,0,0
332.11,1.0252,3.4723,0.15489,0.14564,0,0,0
332.61,1.0269,3.4737,0.15509,0.14605,0,0,0
333.11,1.0288,3.475,0.15538,0.14642,0,0,0
333.61,1.0305,3.4763,0.15584,0.1468,0,0,0
334.11,1.0326,3.4777,0.15612,0.14689,0,0,0
334.61,1.0342,3.479,0.15629,0.14721,0,0,0
335.11,1.0358,3.4803,0.15653,0.14735,0,0,0
335.61,1.0379,3.4817,0.1569,0.14764,0,0,0
336.11,1.0393,3.483,0.1573,0.14805,0,0,0
336.61,1.0413,3.4843,0.1577,0.1484,0,0,0
337.11,1.043,3.4857,0.15793,0.14857,0,0,0
337.61,1.045,3.487,0.15836,0.14894,0,0,0
338.11,1.0469,3.488,0.15856,0.14938,0,0,0
338.61,1.0483,3.4893,0.15882,0.14964,0,0,0
339.11,1.0507,3.4907,0.1591,0.14984,0,0,0
339.61,1.0524,3.492,0.15939,0.15027,0,0,0
340.11,1.0542,3.4933,0.15942,0.15059,0,0,0
340.61,1.056,3.4947,0.15999,0.15071,0,0,0
341.11,1.0574,3.496,0.16016,0.15105,0,0,0
341.61,1.0595,3.497,0.16071,0.15134,0,0,0
342.11,1.061,3.498,0.16119,0.1516,0,0,0
342.61,1.0628,3.4993,0.16128,0.1518,0,0,0
343.11,1.0649,3.5007,0.16168,0.15227,0,0,0
343.61,1.0662,3.502,0.16214,0.15258,0,0,0
344.11,1.0681,3.5033,0.16239,0.15278,0,0,0
344.61,1.0694,3.5047,0.16268,0.15307,0,0,0
345.11,1.0718,3.506,0.16288,0.15333,0,0,0
345.61,1.0738,3.5073,0.16353,0.15368,0,0,0
346.11,1.0755,3.5087,0.16382,0.15402,0,0,0
346.61,1.0774,3.51,0.16402,0.15443,0,0,0
347.11,1.079,3.511,0.1643,0.15477,0,0,0
347.61,1.081,3.5123,0.16464,0.15497,0,0,0
348.11,1.0827,3.5137,0.16479,0.1552,0,0,0
348.61,1.0851,3.515,0.16527,0.15546,0,0,0
349.11,1.0862,3.516,0.1655,0.15589,0,0,0
349.61,1.0883,3.517,0.16561,0.15603,0,0,0
350.11,1.0898,3.5183,0.16627,0.15664,0,0,0
350.61,1.0915,3.5197,0.16647,0.15664,0,0,0
351.11,1.0935,3.521,0.16666,0.15716,0,0,0
351.61,1.0954,3.5223,0.16715,0.15744,0,0,0
352.11,1.0973,3.5237,0.16749,0.15759,0,0,0
352.61,1.099,3.5253,0.16783,0.1579,0,0,0
353.11,1.1015,3.5267,0.16817,0.15827,0,0,0
353.61,1.1031,3.5277,0.16854,0.1585,0,0,0
354.11,1.1048,3.5283,0.16888,0.15899,0,0,0
354.61,1.1067,3.529,0.16933,0.15928,0,0,0
355.11,1.1083,3.5303,0.1695,0.15968,0,0,0
355.61,1.1101,3.5317,0.16998,0.15988,0,0,0
356.11,1.1119,3.533,0.17024,0.16031,0,0,0
356.61,1.1139,3.534,0.17072,0.16062,0,0,0
357.11,1.1157,3.535,0.171,0.16099,0,0,0
357.61,1.1178,3.5363,0.17112,0.16122,0,0,0
358.11,1.1187,3.5377,0.17168,0.16156,0,0,0
358.61,1.1212,3.539,0.17191,0.16173,0,0,0
359.11,1.1231,3.5403,0.17233,0.16211,0,0,0
359.61,1.125,3.5417,0.17273,0.16225,0,0,0
360.11,1.1266,3.543,0.17307,0.16276,0,0,0
360.61,1.1284,3.544,0.17355,0.16296,0,0,0
361.11,1.1304,3.545,0.17383,0.16348,0,0,0
361.61,1.1321,3.5463,0.17411,0.16345,0,0,0
362.11,1.1339,3.5477,0.17434,0.16407,0,0,0
362.61,1.1356,3.549,0.1747,0.16419,0,0,0
363.11,1.1374,3.55,0.17493,0.16456,0,0,0
363.61,1.1393,3.5513,0.17552,0.16507,0,0,0
364.11,1.1413,3.5524,0.17574,0.1653,0,0,0
364.61,1.1431,3.5536,0.17606,0.16547,0,0,0
365.11,1.1449,3.5547,0.17634,0.16595,0,0,0
365.61,1.1469,3.556,0.17676,0.16624,0,0,0
366.11,1.1486,3.557,0.17693,0.16652,0,0,0
366.61,1.1503,3.558,0.17729,0.16686,0,0,0
367.11,1.1523,3.5593,0.17777,0.16712,0,0,0
367.61,1.1544,3.5607,0.17816,0.16763,0,0,0
368.11,1.156,3.562,0.17867,0.1678,0,0,0
368.61,1.1575,3.563,0.17898,0.16825,0,0,0
369.11,1.1593,3.564,0.17934,0.16862,0,0,0
369.61,1.1617,3.565,0.1799,0.16896,0,0,0
370.11,1.163,3.566,0.18007,0.16933,0,0,0
370.61,1.1648,3.5673,0.18058,0.16964,0,0,0
371.11,1.167,3.5687,0.18094,0.16995,0,0,0
371.61,1.1689,3.57,0.18142,0.17021,0,0,0
372.11,1.1707,3.571,0.18178,0.17038,0,0,0
372.61,1.1726,3.5723,0.18201,0.17083,0,0,0
373.11,1.1741,3.5734,0.18237,0.17097,0,0,0
373.61,1.1763,3.5743,0.18248,0.17143,0,0,0
374.11,1.1782,3.5753,0.18307,0.17162,0,0,0
374.61,1.1801,3.5767,0.18329,0.1721,0,0,0
375.11,1.1816,3.578,0.18363,0.17244,0,0,0
375.61,1.1831,3.579,0.18377,0.17281,0,0,0
376.11,1.1849,3.58,0.18427,0.17318,0,0,0
376.61,1.1867,3.581,0.18447,0.17346,0,0,0
377.11,1.1886,3.5823,0.18508,0.17388,0,0,0
377.61,1.1907,3.5837,0.18539,0.17425,0,0,0
378.11,1.1925,3.585,0.18569,0.1745,0,0,0
378.61,1.1944,3.5863,0.18617,0.17496,0,0,0
379.11,1.1965,3.5877,0.18667,0.17532,0,0,0
379.61,1.198,3.589,0.18689,0.17555,0,0,0
380.11,1.2,3.59,0.18748,0.17594,0,0,0
380.61,1.2012,3.591,0.18784,0.17628,0,0,0
381.11,1.2035,3.5917,0.18812,0.17653,0,0,0
381.61,1.205,3.5926,0.18828,0.17684,0,0,0
382.11,1.2069,3.5937,0.18887,0.17701,0,0,0
382.61,1.2086,3.595,0.18928,0.17752,0,0,0
383.11,1.2105,3.5963,0.18945,0.17771,0,0,0
383.61,1.2123,3.5977,0.18984,0.17819,0,0,0
384.11,1.2143,3.599,0.19028,0.17864,0,0,0
384.61,1.2161,3.6,0.19059,0.17875,0,0,0
385.11,1.2179,3.601,0.1912,0.17912,0,0,0
385.61,1.2197,3.602,0.19134,0.17948,0,0,0
386.11,1.2218,3.6033,0.19178,0.17988,0,0,0
386.61,1.2235,3.6047,0.19211,0.18032,0,0,0
387.11,1.2253,3.606,0.1925,0.18077,0,0,0
387.61,1.2273,3.607,0.19292,0.18122,0,0,0
388.11,1.2288,3.608,0.19322,0.18158,0,0,0
388.61,1.2306,3.609,0.19383,0.18175,0,0,0
389.11,1.2323,3.61,0.19383,0.18217,0,0,0
389.61,1.2343,3.611,0.19441,0.18245,0,0,0
390.11,1.2363,3.612,0.19469,0.18231,0,0,0
390.61,1.2379,3.613,0.19516,0.18217,0,0,0
391.11,1.2398,3.614,0.1956,0.18251,0,0,0
391.61,1.2418,3.615,0.19604,0.18279,0,0,0
392.11,1.2437,3.616,0.19662,0.18307,0,0,0
392.61,1.2455,3.6173,0.19673,0.18335,0,0,0
393.11,1.2473,3.6187,0.19728,0.18374,0,0,0
393.61,1.249,3.62,0.19783,0.18396,0,0,0
394.11,1.2509,3.621,0.19786,0.18452,0,0,0
394.61,1.2528,3.622,0.19846,0.18486,0,0,0
395.11,1.2546,3.6233,0.19888,0.18561,0,0,0
395.61,1.2566,3.6244,0.19913,0.18586,0,0,0
396.11,1.2584,3.6253,0.19965,0.18639,0,0,0
396.61,1.2607,3.626,0.20022,0.18664,0,0,0
397.11,1.2624,3.6273,0.20025,0.18717,0,0,0
397.61,1.2645,3.6284,0.20069,0.18739,0,0,0
398.11,1.2661,3.6296,0.20132,0.18781,0,0,0
398.61,1.268,3.6307,0.20162,0.18803,0,0,0
399.11,1.2694,3.6317,0.20201,0.18828,0,0,0
399.61,1.2711,3.6326,0.20242,0.18853,0,0,0
400.11,1.2733,3.6337,0.20264,0.18923,0,0,0
400.61,1.2752,3.635,0.2033,0.1895,0,0,0
401.11,1.2771,3.636,0.20376,0.19,0,0,0
401.61,1.2789,3.637,0.20415,0.19031,0,0,0
402.11,1.2809,3.638,0.20442,0.1907,0,0,0
402.61,1.2828,3.639,0.20472,0.19109,0,0,0
403.11,1.2846,3.6403,0.20513,0.19145,0,0,0
403.61,1.2867,3.6417,0.20576,0.19211,0,0,0
404.11,1.2885,3.643,0.20614,0.19228,0,0,0
404.61,1.2904,3.6437,0.2065,0.19283,0,0,0
405.11,1.2923,3.6443,0.20715,0.1933,0,0,0
405.61,1.2942,3.645,0.20754,0.19363,0,0,0
406.11,1.2959,3.6463,0.20803,0.19377,0,0,0
406.61,1.2979,3.6477,0.20846,0.19433,0,0,0
407.11,1.2997,3.649,0.20903,0.19457,0,0,0
407.61,1.3014,3.65,0.20931,0.19499,0,0,0
408.11,1.3034,3.651,0.2098,0.19518,0,0,0
408.61,1.3054,3.652,0.21004,0.19571,0,0,0
409.11,1.3072,3.6533,0.2105,0.19623,0,0,0
409.61,1.3091,3.6544,0.21113,0.19667,0,0,0
410.11,1.3111,3.6553,0.21159,0.19703,0,0,0
410.61,1.313,3.656,0.21178,0.19728,0,0,0
411.11,1.3148,3.657,0.21238,0.19775,0,0,0
411.61,1.3168,3.658,0.21254,0.19827,0,0,0
412.11,1.3187,3.659,0.21317,0.19866,0,0,0
412.61,1.3206,3.66,0.2136,0.19904,0,0,0
413.11,1.3223,3.661,0.21411,0.19948,0,0,0
413.61,1.3242,3.662,0.21455,0.19978,0,0,0
414.11,1.3264,3.663,0.21509,0.20031,0,0,0
414.61,1.3279,3.664,0.21544,0.20069,0,0,0
415.11,1.33,3.665,0.2156,0.20083,0,0,0
415.61,1.3319,3.666,0.21636,0.20127,0,0,0
416.11,1.3336,3.667,0.21693,0.2016,0,0,0
416.61,1.3358,3.668,0.21728,0.20187,0,0,0
417.11,1.3376,3.669,0.21766,0.20226,0,0,0
417.61,1.3396,3.6703,0.21812,0.20272,0,0,0
418.11,1.3412,3.6714,0.21844,0.20297,0,0,0
418.61,1.3431,3.6723,0.21912,0.20349,0,0,0
419.11,1.3451,3.673,0.21928,0.20401,0,0,0
419.61,1.3468,3.6743,0.21979,0.20437,0,0,0
420.11,1.3491,3.6757,0.22025,0.20494,0,0,0
420.61,1.3508,3.677,0.22057,0.20524,0,0,0
421.11,1.3524,3.678,0.22106,0.20565,0,0,0
421.61,1.3548,3.679,0.22138,0.20631,0,0,0
422.11,1.3565,3.68,0.22216,0.20661,0,0,0
422.61,1.3584,3.681,0.22237,0.20723,0,0,0
423.11,1.3605,3.682,0.22297,0.2074,0,0,0
423.61,1.3623,3.683,0.22334,0.20781,0,0,0
424.11,1.364,3.684,0.22393,0.20824,0,0,0
424.61,1.3662,3.685,0.22441,0.20846,0,0,0
425.11,1.3679,3.6857,0.22495,0.20909,0,0,0
425.61,1.3696,3.6863,0.22535,0.20931,0,0,0
426.11,1.3722,3.6873,0.22581,0.20991,0,0,0
426.61,1.374,3.6884,0.22648,0.21007,0,0,0
427.11,1.3758,3.6893,0.2268,0.2105,0,0,0
427.61,1.3775,3.69,0.22744,0.21099,0,0,0
428.11,1.3794,3.6913,0.22782,0.21154,0,0,0
428.61,1.3813,3.6927,0.22816,0.21205,0,0,0
429.11,1.3832,3.694,0.22854,0.21227,0,0,0
429.61,1.3852,3.695,0.22923,0.21281,0,0,0
430.11,1.3873,3.696,0.22968,0.21327,0,0,0
430.61,1.389,3.697,0.23024,0.21379,0,0,0
431.11,1.3914,3.698,0.23083,0.21411,0,0,0
431.61,1.3931,3.699,0.23123,0.21476,0,0,0
432.11,1.3949,3.7,0.23168,0.21506,0,0,0
432.61,1.3969,3.7007,0.2323,0.21569,0,0,0
433.11,1.3988,3.7016,0.23283,0.21612,0,0,0
433.61,1.4006,3.7024,0.23344,0.21658,0,0,0
434.11,1.4026,3.7033,0.23379,0.21698,0,0,0
434.61,1.4045,3.704,0.2344,0.21769,0,0,0
435.11,1.4061,3.705,0.23482,0.21801,0,0,0
435.61,1.4084,3.706,0.23556,0.21841,0,0,0
436.11,1.4101,3.707,0.23601,0.21898,0,0,0
436.61,1.412,3.708,0.23663,0.21941,0,0,0
437.11,1.414,3.709,0.23702,0.21987,0,0,0
437.61,1.4164,3.71,0.23747,0.22025,0,0,0
438.11,1.4184,3.711,0.23795,0.2206,0,0,0
438.61,1.4201,3.712,0.2385,0.22108,0,0,0
439.11,1.422,3.713,0.23869,0.22154,0,0,0
439.61,1.424,3.714,0.23932,0.22176,0,0,0
440.11,1.4262,3.715,0.23993,0.22229,0,0,0
440.61,1.4279,3.7157,0.2402,0.22275,0,0,0
441.11,1.4296,3.7163,0.24083,0.22321,0,0,0
441.61,1.4313,3.717,0.24149,0.22361,0,0,0
442.11,1.4336,3.718,0.24207,0.22423,0,0,0
442.61,1.4359,3.719,0.24246,0.22463,0,0,0
443.11,1.4376,3.72,0.2431,0.22527,0,0,0
443.61,1.4396,3.721,0.24378,0.22565,0,0,0
444.11,1.4415,3.722,0.24407,0.22648,0,0,0
444.61,1.4436,3.723,0.2446,0.22693,0,0,0
445.11,1.4456,3.724,0.24551,0.22741,0,0,0
445.61,1.4473,3.725,0.24591,0.22782,0,0,0
446.11,1.4493,3.726,0.24635,0.22832,0,0,0
446.61,1.4511,3.727,0.24693,0.22883,0,0,0
447.11,1.4532,3.728,0.24753,0.22915,0,0,0
447.61,1.4551,3.729,0.24814,0.2296,0,0,0
448.11,1.457,3.73,0.24874,0.23008,0,0,0
448.61,1.4589,3.7307,0.24932,0.23062,0,0,0
449.11,1.4611,3.7313,0.25007,0.23094,0,0,0
449.61,1.4632,3.732,0.25047,0.23171,0,0,0
450.11,1.4648,3.733,0.25107,0.23203,0,0,0
450.61,1.4668,3.734,0.25138,0.23251,0,0,0
451.11,1.4689,3.735,0.25188,0.23304,0,0,0
451.61,1.4709,3.736,0.25269,0.23363,0,0,0
452.11,1.473,3.7367,0.25313,0.2341,0,0,0
452.61,1.475,3.7373,0.25394,0.23477,0,0,0
453.11,1.4771,3.738,0.2543,0.23527,0,0,0
453.61,1.4786,3.7393,0.25495,0.23586,0,0,0
454.11,1.4807,3.7404,0.25534,0.23615,0,0,0
454.61,1.4829,3.7413,0.25604,0.23654,0,0,0
455.11,1.4852,3.742,0.25685,0.23718,0,0,0
455.61,1.487,3.743,0.25716,0.23782,0,0,0
456.11,1.4891,3.744,0.25807,0.23835,0,0,0
456.61,1.491,3.7447,0.25846,0.23864,0,0,0
457.11,1.4929,3.7453,0.25903,0.2393,0,0,0
457.61,1.495,3.746,0.25973,0.23993,0,0,0
458.11,1.4971,3.747,0.2604,0.24051,0,0,0
458.61,1.4993,3.748,0.26081,0.24112,0,0,0
459.11,1.5012,3.749,0.26141,0.2417,0,0,0
459.61,1.5028,3.7497,0.26211,0.24244,0,0,0
460.11,1.5049,3.7503,0.26283,0.24291,0,0,0
460.61,1.5072,3.751,0.26368,0.24341,0,0,0
461.11,1.509,3.752,0.26412,0.24386,0,0,0
461.61,1.511,3.753,0.26471,0.24438,0,0,0
462.11,1.5131,3.754,0.26538,0.24494,0,0,0
462.61,1.5153,3.755,0.2661,0.24554,0,0,0
463.11,1.5174,3.756,0.267,0.24609,0,0,0
463.61,1.5194,3.757,0.26705,0.24643,0,0,0
464.11,1.5215,3.758,0.26813,0.24691,0,0,0
464.61,1.5236,3.759,0.26872,0.24772,0,0,0
465.11,1.5256,3.76,0.26926,0.24829,0,0,0
465.61,1.5281,3.7607,0.27021,0.24866,0,0,0
466.11,1.5298,3.7613,0.27052,0.24937,0,0,0
466.61,1.5317,3.7617,0.27146,0.24981,0,0,0
467.11,1.5336,3.7623,0.27205,0.25052,0,0,0
467.61,1.5359,3.763,0.27262,0.25094,0,0,0
468.11,1.5379,3.764,0.27356,0.25159,0,0,0
468.61,1.5399,3.765,0.2743,0.25224,0,0,0
469.11,1.5424,3.766,0.27509,0.25274,0,0,0
469.61,1.5443,3.7667,0.2755,0.25328,0,0,0
470.11,1.5463,3.7673,0.27614,0.25381,0,0,0
470.61,1.5482,3.768,0.27693,0.25446,0,0,0
471.11,1.5504,3.769,0.27754,0.25498,0,0,0
471.61,1.5527,3.77,0.27817,0.25576,0,0,0
472.11,1.5546,3.7707,0.27876,0.25646,0,0,0
472.61,1.5567,3.7713,0.27977,0.257,0,0,0
473.11,1.559,3.772,0.28041,0.25765,0,0,0
473.61,1.561,3.773,0.28117,0.25856,0,0,0
474.11,1.5633,3.774,0.2815,0.25913,0,0,0
474.61,1.5653,3.7747,0.28243,0.25967,0,0,0
475.11,1.5676,3.7753,0.28345,0.2605,0,0,0
475.61,1.5695,3.776,0.28415,0.26128,0,0,0
476.11,1.5717,3.777,0.28476,0.2618,0,0,0
476.61,1.5739,3.7777,0.28559,0.26218,0,0,0
477.11,1.5761,3.7783,0.28642,0.26306,0,0,0
477.61,1.578,3.779,0.28708,0.2636,0,0,0
478.11,1.5802,3.78,0.28746,0.26422,0,0,0
478.61,1.5824,3.781,0.28824,0.26484,0,0,0
479.11,1.5843,3.782,0.28914,0.26543,0,0,0
479.61,1.5866,3.7827,0.29005,0.2661,0,0,0
480.11,1.5887,3.7833,0.29075,0.26672,0,0,0
480.61,1.5908,3.784,0.29173,0.26728,0,0,0
481.11,1.5931,3.7847,0.29248,0.26818,0,0,0
481.61,1.5956,3.7853,0.29331,0.2688,0,0,0
482.11,1.5973,3.786,0.29406,0.2697,0,0,0
482.61,1.5999,3.7867,0.29514,0.27029,0,0,0
483.11,1.6021,3.7873,0.29568,0.27085,0,0,0
483.61,1.6041,3.7877,0.29643,0.27162,0,0,0
484.11,1.6066,3.7883,0.29716,0.27231,0,0,0
484.61,1.6088,3.789,0.29795,0.2729,0,0,0
485.11,1.611,3.7897,0.29895,0.27364,0,0,0
485.61,1.6128,3.7903,0.29992,0.27435,0,0,0
486.11,1.6151,3.791,0.30077,0.27491,0,0,0
486.61,1.6174,3.792,0.30166,0.27591,0,0,0
487.11,1.6195,3.7927,0.30233,0.27649,0,0,0
487.61,1.6218,3.7933,0.3032,0.27746,0,0,0
488.11,1.6242,3.7937,0.30419,0.2782,0,0,0
488.61,1.6263,3.7943,0.30518,0.27904,0,0,0
489.11,1.6286,3.795,0.30602,0.27998,0,0,0
489.61,1.6309,3.796,0.30718,0.28063,0,0,0
490.11,1.6331,3.797,0.30807,0.28145,0,0,0
490.61,1.6351,3.7977,0.30911,0.28223,0,0,0
491.11,1.6374,3.7983,0.30958,0.28291,0,0,0
491.61,1.6396,3.799,0.31036,0.2836,0,0,0
492.11,1.6415,3.7997,0.31142,0.28433,0,0,0
492.61,1.6443,3.8,0.31221,0.28524,0,0,0
493.11,1.6466,3.8003,0.31324,0.28587,0,0,0
493.61,1.6489,3.801,0.31407,0.28668,0,0,0
494.11,1.6513,3.8017,0.31508,0.28751,0,0,0
494.61,1.6537,3.8023,0.31598,0.28844,0,0,0
495.11,1.6559,3.803,0.31669,0.28899,0,0,0
495.61,1.6584,3.8037,0.31777,0.29007,0,0,0
496.11,1.6602,3.8043,0.31867,0.29088,0,0,0
496.61,1.6622,3.8047,0.32016,0.29181,0,0,0
497.11,1.6652,3.805,0.32133,0.29271,0,0,0
497.61,1.6673,3.8056,0.3223,0.29356,0,0,0
498.11,1.6697,3.8064,0.32332,0.29436,0,0,0
498.61,1.6722,3.8073,0.32432,0.29551,0,0,0
499.11,1.6746,3.8077,0.32551,0.29621,0,0,0
499.61,1.6771,3.8083,0.32641,0.29711,0,0,0
500.11,1.6794,3.8087,0.32752,0.29803,0,0,0
500.61,1.6816,3.8093,0.32846,0.29873,0,0,0
501.11,1.6841,3.8097,0.32998,0.29975,0,0,0
501.61,1.6865,3.8103,0.3308,0.30084,0,0,0
502.11,1.6888,3.8107,0.33174,0.30154,0,0,0
502.61,1.6913,3.811,0.33283,0.3027,0,0,0
503.11,1.6936,3.8113,0.33384,0.30342,0,0,0
503.61,1.6962,3.8117,0.3349,0.30451,0,0,0
504.11,1.6988,3.8123,0.33617,0.30553,0,0,0
504.61,1.7011,3.8127,0.3377,0.30619,0,0,0
505.11,1.7034,3.8133,0.33876,0.30726,0,0,0
505.61,1.706,3.8137,0.33978,0.30829,0,0,0
506.11,1.7083,3.814,0.34124,0.3093,0,0,0
506.61,1.7107,3.8143,0.34248,0.30994,0,0,0
507.11,1.7135,3.8147,0.34336,0.3111,0,0,0
507.61,1.7161,3.815,0.34474,0.31211,0,0,0
508.11,1.7186,3.8153,0.34619,0.31294,0,0,0
508.61,1.7213,3.8157,0.34721,0.31407,0,0,0
509.11,1.7232,3.816,0.34868,0.31523,0,0,0
509.61,1.7263,3.816,0.34951,0.31601,0,0,0
510.11,1.7284,3.816,0.35062,0.31709,0,0,0
510.61,1.7315,3.8163,0.35195,0.31806,0,0,0
511.11,1.7339,3.8167,0.35339,0.31906,0,0,0
511.61,1.7364,3.8173,0.3544,0.32026,0,0,0
512.11,1.7391,3.8177,0.35607,0.32135,0,0,0
512.61,1.7415,3.818,0.35757,0.32255,0,0,0
513.11,1.7444,3.818,0.35922,0.32364,0,0,0
513.61,1.7467,3.818,0.36069,0.32461,0,0,0
514.11,1.7493,3.818,0.36184,0.3258,0,0,0
514.61,1.7521,3.818,0.36396,0.32699,0,0,0
515.11,1.755,3.818,0.36497,0.3282,0,0,0
515.61,1.7573,3.818,0.36632,0.32912,0,0,0
516.11,1.7599,3.8177,0.36822,0.33035,0,0,0
516.61,1.7629,3.8176,0.36999,0.33148,0,0,0
517.11,1.7656,3.8174,0.37117,0.33266,0,0,0
517.61,1.7682,3.8173,0.37286,0.33415,0,0,0
518.11,1.7714,3.8167,0.37489,0.33518,0,0,0
518.61,1.7741,3.8163,0.37641,0.3361,0,0,0
519.11,1.7768,3.816,0.37791,0.33732,0,0,0
519.61,1.7796,3.816,0.37982,0.33847,0,0,0
520.11,1.7823,3.8157,0.38126,0.34012,0,0,0
520.61,1.7851,3.8156,0.38278,0.34127,0,0,0
521.11,1.7877,3.8154,0.38479,0.34232,0,0,0
521.61,1.7903,3.8153,0.38609,0.34372,0,0,0
522.11,1.7933,3.815,0.3875,0.34493,0,0,0
522.61,1.7964,3.8147,0.38953,0.34629,0,0,0
523.11,1.7992,3.8143,0.39112,0.3475,0,0,0
523.61,1.8022,3.8137,0.39323,0.3488,0,0,0
524.11,1.8051,3.8133,0.39525,0.35008,0,0,0
524.61,1.8081,3.8127,0.39696,0.35122,0,0,0
525.11,1.8112,3.812,0.39901,0.35322,0,0,0
525.61,1.8141,3.811,0.40063,0.35419,0,0,0
526.11,1.8171,3.81,0.40297,0.35548,0,0,0
526.61,1.8199,3.8087,0.40488,0.35706,0,0,0
527.11,1.8232,3.8073,0.40667,0.35859,0,0,0
527.61,1.8264,3.8057,0.40883,0.35987,0,0,0
528.11,1.8293,3.804,0.41086,0.36161,0,0,0
528.61,1.8328,3.802,0.41326,0.36282,0,0,0
529.11,1.8359,3.7994,0.41546,0.36439,0,0,0
529.61,1.8392,3.7966,0.41798,0.36609,0,0,0
530.11,1.8424,3.794,0.41988,0.36758,0,0,0
530.61,1.8456,3.7923,0.42213,0.36895,0,0,0
531.11,1.8485,3.7907,0.42433,0.37062,0,0,0
531.61,1.8517,3.7893,0.42632,0.37196,0,0,0
532.11,1.8549,3.7877,0.42836,0.37362,0,0,0
532.61,1.8581,3.786,0.43043,0.37508,0,0,0
533.11,1.8616,3.7843,0.4329,0.37699,0,0,0
533.61,1.8649,3.7824,0.43512,0.37847,0,0,0
534.11,1.8681,3.7803,0.43731,0.37991,0,0,0
534.61,1.8715,3.7774,0.43965,0.38177,0,0,0
535.11,1.8749,3.7743,0.44218,0.38324,0,0,0
535.61,1.8784,3.7704,0.44461,0.38495,0,0,0
536.11,1.8817,3.7663,0.44728,0.3868,0,0,0
536.61,1.8858,3.7614,0.44953,0.38858,0,0,0
537.11,1.8891,3.7563,0.45261,0.39028,0,0,0
537.61,1.8931,3.751,0.45523,0.39237,0,0,0
538.11,1.8969,3.7457,0.45793,0.39398,0,0,0
538.61,1.9003,3.7406,0.46024,0.3959,0,0,0
539.11,1.9038,3.7354,0.4627,0.39769,0,0,0
539.61,1.9074,3.7309,0.46565,0.39974,0,0,0
540.11,1.9106,3.7264,0.46778,0.40145,0,0,0
540.61,1.9139,3.7223,0.47028,0.40365,0,0,0
541.11,1.9179,3.7171,0.47279,0.40546,0,0,0
541.61,1.9221,3.7107,0.47593,0.40743,0,0,0
542.11,1.9266,3.7007,0.47899,0.40962,0,0,0