File: lab_data/AA6014-T4_results/DATA/CH_00_2.csv
Time[s],Displacement[mm],Force[kN],AxStrain_1,AxStrain_2,Thickness[mm],OuterWidth[mm],Diameter[mm]
0.63,0,-0.0054298,0,0,1.1177,19.967,5.2567
1.13,2.2e-05,0.0023364,0.00011499,-9.2004e-05,0,0,0
1.64,0.000499,0.011581,0.00012599,1.4e-05,0,0,0
2.13,0.000894,0.034004,-4.7001e-05,3.7999e-05,0,0,0
2.63,0.001438,0.062282,0.00016999,0.00010799,0,0,0
3.13,0.001624,0.089427,0.00015199,6.2998e-05,0,0,0
3.63,0.002033,0.11028,0.00027096,0.00019798,0,0,0
4.13,0.002217,0.12729,2.7e-05,0.00019198,0,0,0
4.63,0.002334,0.14371,0.00022997,0.00036993,0,0,0
5.13,0.002745,0.16315,0.00021698,0.00013199,0,0,0
5.63,0.002892,0.18257,4.8999e-05,0.00026996,0,0,0
6.13,0.003242,0.201,0.00024897,0.00030295,0,0,0
6.63,0.003568,0.21943,0.00034694,0.00030395,0,0,0
7.13,0.003674,0.23828,0.00022797,0.00024297,0,0,0
7.63,0.003724,0.25371,0.00021598,0.00034294,0,0,0
8.13,0.003609,0.26314,0.00031695,0.00038992,0,0,0
8.63,0.003811,0.27129,0.00015499,0.00026896,0,0,0
9.13,0.004242,0.28229,0.00014699,0.00019098,0,0,0
9.63,0.004487,0.29686,0.00027396,0.00033794,0,0,0
10.13,0.004555,0.31185,0.00030495,0.00025397,0,0,0
10.63,0.004776,0.326,0.00025797,0.00037193,0,0,0
11.13,0.005061,0.34015,0.00033894,0.00028796,0,0,0
11.63,0.005478,0.35485,0.00014399,0.00036093,0,0,0
12.13,0.005521,0.369,0.00033494,0.00026896,0,0,0
12.63,0.006172,0.38315,0.00027896,0.00036593,0,0,0
13.13,0.006942,0.399,0.00047089,0.00034494,0,0,0
13.63,0.006934,0.41514,0.00027896,0.00053686,0,0,0
14.13,0.007124,0.43086,0.00051687,0.0004469,0,0,0
14.63,0.007343,0.44614,0.00067777,0.00074472,0,0,0
15.13,0.007601,0.461,0.00041591,0.0004499,0,0,0
15.63,0.007722,0.47615,0.00061781,0.00061781,0,0,0
16.13,0.007631,0.49185,0.00046989,0.00056384,0,0,0
16.64,0.007554,0.50729,0.00057683,0.00052386,0,0,0
17.13,0.007947,0.52286,0.00053686,0.00051986,0,0,0
17.63,0.008182,0.54,0.00055684,0.00058783,0,0,0
18.13,0.00846,0.55685,0.00064779,0.00057084,0,0,0
18.63,0.008591,0.57343,0.00064079,0.00075472,0,0,0
19.13,0.008809,0.58957,0.00064479,0.00058383,0,0,0
19.63,0.008991,0.60529,0.00066078,0.00055684,0,0,0
20.13,0.009051,0.62115,0.00061081,0.00061781,0,0,0
20.63,0.009612,0.63785,0.00049388,0.00073173,0,0,0
21.13,0.009753,0.654,0.00057384,0.00067077,0,0,0
21.63,0.01033,0.66986,0.0006308,0.00067777,0,0,0
22.13,0.010696,0.68729,0.00069776,0.00066478,0,0,0
22.63,0.011042,0.70485,0.00075172,0.00058383,0,0,0
23.13,0.011253,0.72215,0.00075172,0.00060082,0,0,0
23.63,0.011851,0.73857,0.00074472,0.00068776,0,0,0
24.13,0.012472,0.75429,0.00078569,0.00081167,0,0,0
24.63,0.012875,0.77015,0.00078869,0.00096653,0,0,0
25.13,0.013036,0.78771,0.00082266,0.00092957,0,0,0
25.63,0.013419,0.80428,0.0010904,0.00084564,0,0,0
26.13,0.013466,0.81972,0.00087262,0.00087961,0,0,0
26.63,0.013983,0.83629,0.00091658,0.0010305,0,0,0
27.13,0.013993,0.85385,0.00082866,0.00093956,0,0,0
27.63,0.014295,0.87086,0.00092257,0.0010235,0,0,0
28.13,0.014255,0.88714,0.00086563,0.0010734,0,0,0
28.63,0.01451,0.903,0.00081866,0.0010205,0,0,0
29.13,0.014614,0.91915,0.0008996,0.00098951,0,0,0
29.63,0.014644,0.93557,0.00085863,0.0010904,0,0,0
30.13,0.01506,0.95129,0.00096653,0.00096354,0,0,0
30.63,0.015463,0.96715,0.00090259,0.0011673,0,0,0
31.13,0.015692,0.98471,0.0010405,0.0011344,0,0,0
31.63,0.01589,1.0019,0.0010165,0.0010704,0,0,0
32.13,0.016323,1.0181,0.0010834,0.0011513,0,0,0
32.63,0.016742,1.0341,0.0011943,0.0011743,0,0,0
33.13,0.017253,1.0497,0.0010834,0.0011274,0,0,0
33.63,0.017978,1.0651,0.0011144,0.0012512,0,0,0
34.13,0.01828,1.0811,0.0010834,0.0011244,0,0,0
34.63,0.018606,1.0967,0.0013251,0.0011813,0,0,0
35.13,0.019049,1.1124,0.001433,0.0012982,0,0,0
35.63,0.019398,1.1297,0.001406,0.0012282,0,0,0
36.13,0.019801,1.1469,0.0014689,0.0013451,0,0,0
36.63,0.020174,1.1631,0.001386,0.0016407,0,0,0
37.13,0.020338,1.1789,0.001392,0.001443,0,0,0
37.63,0.020845,1.1943,0.0014489,0.001402,0,0,0
38.13,0.020946,1.2099,0.0012312,0.0014829,0,0,0
38.63,0.021137,1.2259,0.0014759,0.0015428,0,0,0
39.13,0.021305,1.241,0.0015328,0.001436,0,0,0
39.63,0.021369,1.2561,0.001433,0.0015628,0,0,0
40.13,0.021473,1.273,0.0014799,0.0016237,0,0,0
40.63,0.021835,1.2899,0.0012342,0.0014999,0,0,0
41.13,0.022299,1.3061,0.001402,0.0013621,0,0,0
41.63,0.022426,1.3219,0.0014999,0.0015628,0,0,0
42.13,0.022846,1.337,0.0014759,0.0014659,0,0,0
42.63,0.023071,1.3519,0.0016097,0.0015698,0,0,0
43.13,0.023537,1.3674,0.0015198,0.0016706,0,0,0
43.63,0.02395,1.3827,0.0014959,0.0015468,0,0,0
44.13,0.024414,1.3979,0.0017674,0.0017145,0,0,0
44.63,0.025011,1.414,0.0018453,0.0018313,0,0,0
45.13,0.025377,1.4301,0.0019052,0.0017944,0,0,0
45.63,0.025847,1.4461,0.002022,0.0018383,0,0,0
46.13,0.026247,1.4619,0.0019691,0.0020319,0,0,0
46.63,0.026542,1.477,0.0022066,0.0021667,0,0,0
47.13,0.026794,1.4919,0.0022674,0.0020459,0,0,0
47.63,0.027613,1.5071,0.0021936,0.0022904,0,0,0
48.13,0.027526,1.5217,0.002438,0.0023203,0,0,0
48.63,0.027757,1.5364,0.0024779,0.0023602,0,0,0
49.13,0.028187,1.5527,0.0023642,0.0024709,0,0,0
49.63,0.028607,1.5689,0.0024181,0.0023173,0,0,0
50.13,0.028607,1.5841,0.0023871,0.0025747,0,0,0
50.63,0.029151,1.5989,0.0023672,0.0021257,0,0,0
51.13,0.029215,1.6133,0.002441,0.002465,0,0,0
51.63,0.029238,1.6279,0.0024211,0.0025847,0,0,0
52.13,0.030097,1.6429,0.002468,0.0024809,0,0,0
52.63,0.030319,1.657,0.0026455,0.0025378,0,0,0
53.13,0.030567,1.6711,0.0025587,0.0026754,0,0,0
53.63,0.031175,1.6867,0.0027023,0.0026415,0,0,0
54.13,0.031753,1.7024,0.0029636,0.0027223,0,0,0
54.63,0.032115,1.7176,0.0030434,0.0028459,0,0,0
55.13,0.032448,1.7321,0.0030743,0.0030135,0,0,0
55.63,0.033032,1.7457,0.0032916,0.0030533,0,0,0
56.13,0.03322,1.7591,0.0031939,0.003154,0,0,0
56.63,0.034056,1.7731,0.0036294,0.0034451,0,0,0
57.13,0.034375,1.787,0.0035895,0.0034789,0,0,0
57.63,0.034667,1.8009,0.0039542,0.0037699,0,0,0
58.13,0.035328,1.816,0.0040807,0.0036364,0,0,0
58.63,0.035681,1.8309,0.0041046,0.0038834,0,0,0
59.13,0.03603,1.8451,0.0040876,0.0037231,0,0,0
59.63,0.036624,1.8589,0.0041812,0.0041414,0,0,0
60.13,0.03705,1.872,0.004245,0.0041743,0,0,0
60.63,0.037383,1.8849,0.0042918,0.0043286,0,0,0
61.13,0.038141,1.8981,0.004469,0.0044421,0,0,0
61.63,0.038803,1.911,0.0043585,0.004469,0,0,0
62.13,0.039525,1.9236,0.0045218,0.004458,0,0,0
62.63,0.040112,1.937,0.0045685,0.0044521,0,0,0
63.13,0.041099,1.9504,0.0047756,0.0046522,0,0,0
63.63,0.041952,1.9633,0.0049796,0.004903,0,0,0
64.13,0.042502,1.9754,0.0050502,0.0049597,0,0,0
64.63,0.043244,1.987,0.0052701,0.0049766,0,0,0
65.13,0.044258,1.9983,0.0053775,0.0051706,0,0,0
65.63,0.04504,2.0094,0.0056242,0.005471,0,0,0
66.13,0.045893,2.02,0.0059185,0.0057882,0,0,0
66.63,0.046743,2.0306,0.0061779,0.0060049,0,0,0
67.13,0.047622,2.042,0.0066618,0.0064323,0,0,0
67.63,0.048676,2.0531,0.0071156,0.006625,0,0,0
68.13,0.049586,2.0636,0.0073023,0.0069985,0,0,0
68.63,0.050707,2.0734,0.007735,0.0073886,0,0,0
69.13,0.052013,2.0827,0.0081289,0.0077916,0,0,0
69.63,0.053376,2.0916,0.0083252,0.0081616,0,0,0
70.13,0.055042,2.1007,0.0086713,0.0085642,0,0,0
70.63,0.056522,2.1094,0.0088378,0.0086178,0,0,0
71.13,0.058134,2.1179,0.0091034,0.0088577,0,0,0
71.63,0.059614,2.1267,0.0091441,0.009037,0,0,0
72.13,0.061387,2.1354,0.0094165,0.0091698,0,0,0
72.63,0.062847,2.1436,0.0095562,0.0095324,0,0,0
73.13,0.064401,2.1514,0.0098414,0.0095195,0,0,0
73.63,0.065996,2.159,0.010184,0.0098919,0,0,0
74.13,0.067457,2.1666,0.010467,0.010054,0,0,0
74.63,0.068964,2.1744,0.010815,0.01037,0,0,0
75.13,0.070827,2.1817,0.011191,0.010636,0,0,0
75.63,0.072378,2.1889,0.011815,0.011128,0,0,0
76.13,0.074188,2.1964,0.012147,0.011774,0,0,0
76.63,0.076014,2.204,0.012749,0.01208,0,0,0
77.13,0.077699,2.211,0.013054,0.012534,0,0,0
77.63,0.079798,2.218,0.013635,0.012962,0,0,0
78.13,0.081594,2.2247,0.014084,0.013542,0,0,0
78.63,0.083729,2.2316,0.014491,0.014065,0,0,0
79.13,0.08574,2.2384,0.014697,0.014604,0,0,0
79.63,0.087573,2.245,0.015232,0.014786,0,0,0
80.13,0.089161,2.2513,0.015547,0.015266,0,0,0
80.63,0.091001,2.2583,0.015719,0.015408,0,0,0
81.13,0.092874,2.2651,0.015943,0.015844,0,0,0
81.63,0.094673,2.2716,0.016112,0.016152,0,0,0
82.13,0.09647,2.2777,0.016383,0.016184,0,0,0
82.63,0.098252,2.2837,0.016746,0.016362,0,0,0
83.13,0.10037,2.2896,0.016796,0.016564,0,0,0
83.63,0.10217,2.2963,0.017109,0.016941,0,0,0
84.13,0.10433,2.3029,0.017341,0.017231,0,0,0
84.63,0.10653,2.3086,0.018063,0.017393,0,0,0
85.13,0.10868,2.3143,0.018297,0.017877,0,0,0
85.63,0.11062,2.3204,0.018784,0.018343,0,0,0
86.13,0.1127,2.3266,0.019374,0.01855,0,0,0
86.63,0.11456,2.3327,0.019634,0.019166,0,0,0
87.13,0.11658,2.3387,0.020138,0.01966,0,0,0
87.63,0.11816,2.3443,0.020539,0.020121,0,0,0
88.13,0.12021,2.3497,0.021194,0.020693,0,0,0
88.63,0.12195,2.3553,0.02145,0.021052,0,0,0
89.13,0.12403,2.361,0.021811,0.02144,0,0,0
89.63,0.12623,2.3673,0.022313,0.021817,0,0,0
90.13,0.1283,2.3731,0.022569,0.02234,0,0,0
90.63,0.13061,2.3786,0.022668,0.022484,0,0,0
91.13,0.13263,2.3837,0.023079,0.022954,0,0,0
91.63,0.13481,2.3893,0.023489,0.023235,0,0,0
92.13,0.13692,2.395,0.023639,0.023373,0,0,0
92.63,0.13908,2.401,0.02382,0.023701,0,0,0
93.13,0.14116,2.4061,0.024492,0.024111,0,0,0
93.63,0.14306,2.4109,0.024656,0.024294,0,0,0
94.13,0.14505,2.416,0.024996,0.02457,0,0,0
94.63,0.147,2.4217,0.025372,0.025015,0,0,0
95.13,0.14912,2.4273,0.02566,0.025326,0,0,0
95.63,0.15133,2.4327,0.026079,0.02567,0,0,0
96.13,0.15352,2.438,0.026494,0.025993,0,0,0
96.63,0.15552,2.4433,0.02691,0.026372,0,0,0
97.13,0.15803,2.4484,0.027276,0.026935,0,0,0
97.63,0.16032,2.453,0.027687,0.027171,0,0,0
98.13,0.16271,2.4576,0.028059,0.027383,0,0,0
98.63,0.16479,2.463,0.028294,0.027922,0,0,0
99.13,0.16674,2.4684,0.028943,0.028352,0,0,0
99.63,0.16903,2.4736,0.029192,0.028593,0,0,0
100.13,0.17084,2.4784,0.029507,0.028963,0,0,0
100.63,0.17301,2.4833,0.02954,0.029347,0,0,0
101.13,0.17489,2.488,0.030114,0.029686,0,0,0
101.63,0.17707,2.4927,0.030414,0.03008,0,0,0
102.13,0.17869,2.4973,0.030794,0.030399,0,0,0
102.63,0.18152,2.502,0.031123,0.030722,0,0,0
103.13,0.18402,2.5073,0.031377,0.031044,0,0,0
103.63,0.18636,2.5124,0.031979,0.031344,0,0,0
104.13,0.1883,2.5173,0.03216,0.031672,0,0,0
104.63,0.19048,2.5217,0.032586,0.032137,0,0,0
105.13,0.19264,2.526,0.032969,0.032491,0,0,0
105.63,0.19479,2.5306,0.033366,0.032738,0,0,0
106.13,0.19675,2.5354,0.033464,0.033116,0,0,0
106.63,0.19893,2.54,0.033873,0.03346,0,0,0
107.13,0.20072,2.5443,0.034366,0.033596,0,0,0
107.63,0.20304,2.549,0.034528,0.034154,0,0,0
108.13,0.20525,2.5537,0.03491,0.034264,0,0,0
108.63,0.20747,2.5583,0.0355,0.034647,0,0,0
109.13,0.20986,2.5627,0.035526,0.035081,0,0,0
109.63,0.21198,2.567,0.035912,0.035418,0,0,0
110.13,0.2143,2.5713,0.036472,0.035642,0,0,0
110.63,0.21651,2.5757,0.036657,0.036115,0,0,0
111.13,0.2186,2.58,0.037113,0.036552,0,0,0
111.63,0.22049,2.584,0.037339,0.036928,0,0,0
112.13,0.22274,2.5883,0.03775,0.037119,0,0,0
112.63,0.22443,2.5927,0.037944,0.037688,0,0,0
113.13,0.2266,2.5973,0.038287,0.038057,0,0,0
113.63,0.22862,2.6014,0.038729,0.038166,0,0,0
114.13,0.23072,2.6053,0.039,0.038725,0,0,0
114.63,0.23311,2.6093,0.039181,0.038793,0,0,0
115.13,0.23544,2.6137,0.039749,0.039245,0,0,0
115.63,0.23749,2.6177,0.03992,0.039594,0,0,0
116.13,0.23982,2.6216,0.040207,0.039874,0,0,0
116.63,0.24193,2.6257,0.040755,0.040155,0,0,0
117.13,0.24391,2.63,0.040885,0.040367,0,0,0
117.63,0.24603,2.6337,0.041239,0.040754,0,0,0
118.13,0.24805,2.6376,0.041529,0.041174,0,0,0
118.63,0.24967,2.6414,0.042076,0.04127,0,0,0
119.13,0.25175,2.6456,0.042334,0.04172,0,0,0
119.63,0.25357,2.6494,0.042591,0.041882,0,0,0
120.13,0.25564,2.6533,0.043106,0.042365,0,0,0
120.63,0.25769,2.657,0.043171,0.042751,0,0,0
121.13,0.26003,2.661,0.043556,0.043136,0,0,0
121.63,0.26229,2.6647,0.044005,0.043233,0,0,0
122.13,0.26444,2.6683,0.044102,0.04378,0,0,0
122.63,0.26626,2.672,0.044488,0.0441,0,0,0
123.13,0.26861,2.6757,0.045002,0.04439,0,0,0
123.63,0.27082,2.6793,0.045098,0.04471,0,0,0
124.13,0.27252,2.6827,0.045386,0.04516,0,0,0
124.63,0.27443,2.6866,0.04574,0.045192,0,0,0
125.13,0.27651,2.6901,0.045996,0.045545,0,0,0
125.63,0.2782,2.6936,0.046284,0.045577,0,0,0
126.13,0.28031,2.6967,0.046701,0.04593,0,0,0
126.63,0.28238,2.7003,0.046958,0.046282,0,0,0
127.13,0.2842,2.704,0.047341,0.046507,0,0,0
127.63,0.28655,2.7077,0.047566,0.046955,0,0,0
128.13,0.28868,2.7113,0.047918,0.047179,0,0,0
128.63,0.29096,2.7144,0.048366,0.047403,0,0,0
129.13,0.29311,2.7179,0.048591,0.047692,0,0,0
129.63,0.29481,2.7214,0.048719,0.04814,0,0,0
130.13,0.29671,2.725,0.049135,0.048396,0,0,0
130.63,0.29866,2.728,0.04939,0.048492,0,0,0
131.13,0.30064,2.731,0.049645,0.049067,0,0,0
131.63,0.30232,2.7343,0.049932,0.049355,0,0,0
132.13,0.30422,2.7377,0.050316,0.049738,0,0,0
132.63,0.30613,2.741,0.050443,0.049962,0,0,0
133.13,0.30854,2.744,0.050666,0.050218,0,0,0
133.63,0.31046,2.747,0.051082,0.050536,0,0,0
134.13,0.31219,2.75,0.051241,0.050792,0,0,0
134.63,0.31437,2.7533,0.051433,0.050952,0,0,0
135.13,0.31644,2.7564,0.051657,0.051335,0,0,0
135.63,0.31862,2.7593,0.052102,0.051494,0,0,0
136.13,0.32026,2.762,0.052389,0.051781,0,0,0
136.63,0.32216,2.765,0.052612,0.052035,0,0,0
137.13,0.32387,2.7683,0.05293,0.052323,0,0,0
137.63,0.32576,2.7714,0.053312,0.052673,0,0,0
138.13,0.32713,2.7743,0.053663,0.052896,0,0,0
138.63,0.32884,2.777,0.053948,0.053055,0,0,0
139.13,0.33102,2.78,0.054427,0.053278,0,0,0
139.63,0.33284,2.783,0.05449,0.053818,0,0,0
140.13,0.33471,2.786,0.054745,0.05401,0,0,0
140.63,0.33674,2.789,0.055157,0.054392,0,0,0
141.13,0.3389,2.792,0.055475,0.0549,0,0,0
141.63,0.34075,2.795,0.055539,0.054963,0,0,0
142.13,0.34267,2.7977,0.055888,0.055249,0,0,0
142.63,0.34432,2.8006,0.055824,0.055504,0,0,0
143.13,0.34631,2.8034,0.056173,0.055757,0,0,0
143.63,0.34766,2.8063,0.056554,0.056012,0,0,0
144.13,0.34943,2.809,0.05665,0.056234,0,0,0
144.63,0.35107,2.8117,0.056872,0.056583,0,0,0
145.13,0.35308,2.8143,0.05722,0.056963,0,0,0
145.63,0.35483,2.8167,0.057505,0.05709,0,0,0
146.13,0.35689,2.8196,0.057633,0.057344,0,0,0
146.63,0.3587,2.8224,0.057886,0.057661,0,0,0
147.13,0.36075,2.8253,0.058298,0.057946,0,0,0
147.63,0.36271,2.8277,0.058678,0.058199,0,0,0
148.13,0.36472,2.8306,0.058868,0.058263,0,0,0
148.63,0.36678,2.8334,0.059248,0.058421,0,0,0
149.13,0.36842,2.836,0.059532,0.05877,0,0,0
149.63,0.37022,2.8383,0.059849,0.05915,0,0,0
150.13,0.37204,2.8407,0.060038,0.059339,0,0,0
150.63,0.37387,2.8436,0.06026,0.059656,0,0,0
151.13,0.37546,2.8464,0.060355,0.059908,0,0,0
151.63,0.3772,2.8493,0.060702,0.060288,0,0,0
152.13,0.37917,2.8517,0.06086,0.060509,0,0,0
152.63,0.38109,2.8543,0.061081,0.060825,0,0,0
153.13,0.38316,2.857,0.061334,0.060951,0,0,0
153.63,0.38512,2.8597,0.061555,0.061204,0,0,0
154.13,0.38714,2.8623,0.061681,0.061583,0,0,0
154.63,0.38916,2.8644,0.061997,0.061835,0,0,0
155.13,0.39099,2.8666,0.062155,0.062056,0,0,0
155.63,0.39309,2.869,0.062533,0.062246,0,0,0
156.13,0.39463,2.872,0.062816,0.062624,0,0,0
156.63,0.39647,2.8747,0.063006,0.062876,0,0,0
157.13,0.39826,2.8773,0.063289,0.06316,0,0,0
157.63,0.40007,2.8797,0.063636,0.063349,0,0,0
158.13,0.40166,2.882,0.063983,0.063601,0,0,0
158.63,0.40382,2.8843,0.064235,0.06379,0,0,0
159.13,0.40533,2.8867,0.064424,0.064042,0,0,0
159.63,0.40755,2.8893,0.064676,0.064325,0,0,0
160.13,0.40938,2.8917,0.064991,0.06442,0,0,0
160.63,0.41152,2.8943,0.065148,0.064577,0,0,0
161.13,0.41338,2.8967,0.065494,0.064828,0,0,0
161.63,0.41521,2.8993,0.065714,0.065143,0,0,0
162.13,0.41705,2.9017,0.065746,0.065395,0,0,0
162.63,0.41876,2.904,0.066091,0.065646,0,0,0
163.13,0.42061,2.9063,0.066467,0.065961,0,0,0
163.63,0.42226,2.9087,0.066499,0.066244,0,0,0
164.13,0.42392,2.911,0.066719,0.066433,0,0,0
164.63,0.42562,2.9133,0.067033,0.066715,0,0,0
165.13,0.4275,2.9157,0.067127,0.066998,0,0,0
165.63,0.42913,2.918,0.067566,0.067186,0,0,0
166.13,0.43106,2.9203,0.067848,0.0675,0,0,0
166.63,0.43311,2.9227,0.067912,0.067688,0,0,0
167.13,0.43511,2.925,0.068508,0.068033,0,0,0
167.63,0.43713,2.927,0.068539,0.06819,0,0,0
168.13,0.43908,2.9293,0.068664,0.068378,0,0,0
168.63,0.44071,2.9317,0.069166,0.068786,0,0,0
169.13,0.44256,2.934,0.069072,0.068879,0,0,0
169.63,0.44423,2.9363,0.069416,0.069193,0,0,0
170.13,0.44583,2.9384,0.06973,0.06935,0,0,0
170.63,0.44763,2.9406,0.070105,0.069694,0,0,0
171.13,0.44936,2.9427,0.070262,0.069756,0,0,0
171.63,0.45108,2.945,0.070449,0.070132,0,0,0
172.13,0.45295,2.9473,0.070543,0.070321,0,0,0
172.63,0.45485,2.9497,0.071013,0.070508,0,0,0
173.13,0.45704,2.9523,0.071013,0.070852,0,0,0
173.63,0.4589,2.9547,0.071544,0.071008,0,0,0
174.13,0.46081,2.957,0.071669,0.071196,0,0,0
174.63,0.46275,2.959,0.071919,0.071478,0,0,0
175.13,0.46482,2.961,0.072169,0.071696,0,0,0
175.63,0.46654,2.963,0.07245,0.071883,0,0,0
176.13,0.46831,2.965,0.072638,0.072258,0,0,0
176.63,0.47012,2.9673,0.072887,0.072602,0,0,0
177.13,0.47179,2.9694,0.072981,0.072727,0,0,0
177.63,0.47347,2.9716,0.073293,0.072976,0,0,0
178.13,0.47532,2.9737,0.073605,0.072976,0,0,0
178.63,0.47713,2.9763,0.073792,0.073413,0,0,0
179.13,0.47905,2.9784,0.074166,0.073663,0,0,0
179.63,0.48104,2.9806,0.074322,0.073944,0,0,0
180.13,0.48292,2.9827,0.074541,0.074224,0,0,0
180.63,0.48512,2.985,0.074727,0.074442,0,0,0
181.13,0.48686,2.987,0.075194,0.074536,0,0,0
181.63,0.48886,2.989,0.075194,0.07491,0,0,0
182.13,0.49063,2.9913,0.075475,0.075159,0,0,0
182.63,0.49231,2.9934,0.075755,0.075252,0,0,0
183.13,0.49422,2.9956,0.075941,0.075626,0,0,0
183.63,0.49582,2.9974,0.076252,0.07572,0,0,0
184.13,0.49715,2.9996,0.076283,0.076217,0,0,0
184.63,0.49922,3.0017,0.076688,0.076248,0,0,0
185.13,0.50098,3.0037,0.07675,0.076621,0,0,0
185.63,0.50275,3.0056,0.07703,0.076902,0,0,0
186.13,0.50457,3.0077,0.077466,0.076932,0,0,0
186.63,0.50647,3.01,0.077558,0.077274,0,0,0
187.13,0.50857,3.012,0.077899,0.077461,0,0,0
187.63,0.5105,3.014,0.078056,0.077834,0,0,0
188.13,0.51227,3.016,0.078366,0.07802,0,0,0
188.63,0.51389,3.018,0.078459,0.078113,0,0,0
189.13,0.51563,3.02,0.078863,0.078454,0,0,0
189.63,0.51758,3.022,0.079049,0.078703,0,0,0
190.13,0.51903,3.024,0.079111,0.079106,0,0,0
190.63,0.52091,3.026,0.079451,0.07923,0,0,0
191.13,0.52238,3.0283,0.079669,0.079478,0,0,0
191.63,0.52416,3.0304,0.079948,0.079727,0,0,0
192.13,0.52614,3.0326,0.079979,0.079912,0,0,0
192.63,0.52806,3.0344,0.080103,0.080191,0,0,0
193.13,0.53004,3.0363,0.080629,0.080439,0,0,0
193.63,0.53192,3.038,0.080722,0.080439,0,0,0
194.13,0.5341,3.04,0.080846,0.080748,0,0,0
194.63,0.53601,3.042,0.081279,0.080873,0,0,0
195.13,0.53763,3.044,0.081496,0.081244,0,0,0
195.63,0.53937,3.046,0.081899,0.081461,0,0,0
196.13,0.54132,3.048,0.082085,0.081832,0,0,0
196.63,0.54283,3.05,0.082023,0.082018,0,0,0
197.13,0.54457,3.052,0.08261,0.082141,0,0,0
197.63,0.54625,3.054,0.082765,0.082327,0,0,0
198.13,0.5481,3.056,0.083043,0.082667,0,0,0
198.63,0.55018,3.058,0.083105,0.082976,0,0,0
199.13,0.55199,3.06,0.083383,0.083193,0,0,0
199.63,0.55404,3.062,0.083661,0.083563,0,0,0
200.13,0.55592,3.064,0.083815,0.083717,0,0,0
200.63,0.55794,3.066,0.084031,0.084119,0,0,0
201.13,0.55988,3.068,0.084432,0.084303,0,0,0
201.63,0.56176,3.07,0.084586,0.084489,0,0,0
202.13,0.56344,3.072,0.084957,0.084674,0,0,0
202.63,0.56529,3.0737,0.085111,0.085044,0,0,0
203.13,0.56713,3.0753,0.085388,0.085075,0,0,0
203.63,0.56895,3.077,0.085543,0.085507,0,0,0
204.13,0.57053,3.079,0.085696,0.08566,0,0,0
204.63,0.57237,3.081,0.086097,0.085784,0,0,0
205.13,0.57439,3.0827,0.086344,0.085999,0,0,0
205.63,0.5762,3.0843,0.086344,0.086308,0,0,0
206.13,0.57818,3.086,0.086866,0.086523,0,0,0
206.63,0.58016,3.0883,0.086959,0.0868,0,0,0
207.13,0.58201,3.0904,0.087174,0.087108,0,0,0
207.63,0.58369,3.0923,0.087698,0.087231,0,0,0
208.13,0.5856,3.094,0.087913,0.087692,0,0,0
208.63,0.58751,3.096,0.088037,0.087723,0,0,0
209.13,0.58922,3.098,0.088251,0.088154,0,0,0
209.63,0.59104,3.1,0.088712,0.08846,0,0,0
210.13,0.59262,3.102,0.088897,0.088707,0,0,0
210.63,0.59426,3.1037,0.088896,0.088829,0,0,0
211.13,0.59597,3.1053,0.089173,0.089044,0,0,0
211.63,0.59782,3.107,0.08948,0.089259,0,0,0
212.13,0.5997,3.109,0.089879,0.089628,0,0,0
212.63,0.60165,3.111,0.090063,0.08975,0,0,0
213.13,0.60383,3.113,0.090216,0.089996,0,0,0
213.63,0.60564,3.115,0.090584,0.090211,0,0,0
214.13,0.60742,3.1167,0.090646,0.090518,0,0,0
214.63,0.6091,3.1183,0.090953,0.090671,0,0,0
215.13,0.61095,3.12,0.091198,0.090886,0,0,0
215.63,0.61276,3.122,0.091443,0.091162,0,0,0
216.13,0.61444,3.124,0.091535,0.091192,0,0,0
216.63,0.61605,3.1257,0.091841,0.091467,0,0,0
217.13,0.61786,3.1273,0.092148,0.091744,0,0,0
217.63,0.61961,3.129,0.09227,0.091896,0,0,0
218.13,0.62129,3.131,0.092546,0.092173,0,0,0
218.63,0.6233,3.133,0.092974,0.092448,0,0,0
219.13,0.62525,3.135,0.093157,0.092906,0,0,0
219.63,0.6273,3.1367,0.093494,0.092937,0,0,0
220.13,0.62918,3.1383,0.093708,0.093213,0,0,0
220.63,0.63122,3.14,0.093952,0.09361,0,0,0
221.13,0.63284,3.142,0.094289,0.093702,0,0,0
221.63,0.63451,3.144,0.094503,0.094008,0,0,0
222.13,0.6365,3.1457,0.094807,0.09416,0,0,0
222.63,0.63817,3.1473,0.095144,0.094557,0,0,0
223.13,0.63989,3.149,0.095357,0.094955,0,0,0
223.63,0.64156,3.151,0.095387,0.095016,0,0,0
224.13,0.64331,3.153,0.095601,0.095198,0,0,0
224.63,0.64529,3.155,0.095936,0.095412,0,0,0
225.13,0.6471,3.1567,0.096151,0.095534,0,0,0
225.63,0.64922,3.1583,0.096364,0.095809,0,0,0
226.13,0.65107,3.16,0.096394,0.096144,0,0,0
226.63,0.65298,3.1617,0.096578,0.096389,0,0,0
227.13,0.65496,3.1633,0.097004,0.096479,0,0,0
227.63,0.65677,3.165,0.097157,0.096571,0,0,0
228.13,0.65852,3.1667,0.0974,0.096815,0,0,0
228.63,0.6603,3.1683,0.097645,0.097059,0,0,0
229.13,0.66178,3.17,0.098039,0.097333,0,0,0
229.63,0.66339,3.1717,0.098192,0.097516,0,0,0
230.13,0.6653,3.1733,0.098648,0.09782,0,0,0
230.63,0.66708,3.175,0.098861,0.097942,0,0,0
231.13,0.66883,3.177,0.099104,0.098398,0,0,0
231.63,0.67064,3.179,0.099408,0.098459,0,0,0
232.13,0.67252,3.1807,0.099591,0.098855,0,0,0
232.63,0.6746,3.1823,0.099864,0.099128,0,0,0
233.13,0.67655,3.184,0.10005,0.099311,0,0,0
233.63,0.67812,3.186,0.10038,0.099737,0,0,0
234.13,0.68014,3.188,0.1005,0.099919,0,0,0
234.63,0.68178,3.1897,0.10074,0.10013,0,0,0
235.13,0.68366,3.1913,0.10087,0.10031,0,0,0
235.63,0.68531,3.193,0.10117,0.1008,0,0,0
236.13,0.68689,3.1947,0.10147,0.10092,0,0,0
236.63,0.68856,3.1963,0.10172,0.10107,0,0,0
237.13,0.69048,3.198,0.10178,0.10113,0,0,0
237.63,0.69236,3.1997,0.10205,0.10141,0,0,0
238.13,0.69404,3.2013,0.10235,0.10165,0,0,0
238.63,0.69612,3.2027,0.10263,0.10183,0,0,0
239.13,0.69807,3.2043,0.10284,0.1021,0,0,0
239.63,0.69985,3.206,0.10329,0.10235,0,0,0
240.13,0.70166,3.2077,0.10359,0.1025,0,0,0
240.63,0.70367,3.2093,0.10378,0.10289,0,0,0
241.13,0.70549,3.211,0.1039,0.10316,0,0,0
241.63,0.70727,3.213,0.10417,0.10332,0,0,0
242.13,0.70894,3.215,0.10459,0.10383,0,0,0
242.63,0.71059,3.217,0.10465,0.10404,0,0,0
243.13,0.71257,3.2187,0.10523,0.10425,0,0,0
243.63,0.71445,3.2203,0.10535,0.10459,0,0,0
244.13,0.71606,3.2217,0.10541,0.10486,0,0,0
244.63,0.71784,3.2233,0.10568,0.10513,0,0,0
245.13,0.71969,3.225,0.10607,0.10528,0,0,0
245.63,0.72194,3.2267,0.10628,0.10558,0,0,0
246.13,0.72408,3.2283,0.1064,0.10583,0,0,0
246.63,0.72606,3.2297,0.10662,0.10598,0,0,0
247.13,0.72788,3.2313,0.10674,0.10631,0,0,0
247.63,0.72972,3.2327,0.10701,0.10664,0,0,0
248.13,0.7312,3.2343,0.10731,0.10679,0,0,0
248.63,0.73298,3.236,0.1077,0.10697,0,0,0
249.13,0.73486,3.2377,0.108,0.10715,0,0,0
249.63,0.73661,3.2393,0.10812,0.10746,0,0,0
250.13,0.73822,3.241,0.10824,0.10761,0,0,0
250.63,0.73993,3.243,0.10861,0.10797,0,0,0
251.13,0.74194,3.2447,0.10885,0.10818,0,0,0
251.63,0.74382,3.2463,0.10927,0.10839,0,0,0
252.13,0.74574,3.2477,0.10945,0.10869,0,0,0
252.63,0.74755,3.249,0.10972,0.10908,0,0,0
253.13,0.74953,3.2503,0.1099,0.1092,0,0,0
253.63,0.75138,3.252,0.11017,0.10965,0,0,0
254.13,0.75296,3.254,0.11023,0.10995,0,0,0
254.63,0.75504,3.2557,0.11074,0.11022,0,0,0
255.13,0.75675,3.2573,0.11083,0.11047,0,0,0
255.63,0.75829,3.2587,0.11113,0.11068,0,0,0
256.13,0.76001,3.2603,0.11131,0.11101,0,0,0
256.63,0.76155,3.262,0.11158,0.11116,0,0,0
257.13,0.76336,3.2637,0.11179,0.11149,0,0,0
257.63,0.76511,3.2653,0.112,0.11167,0,0,0
258.13,0.76696,3.2667,0.11239,0.11191,0,0,0
258.63,0.76877,3.2683,0.11263,0.11212,0,0,0
259.13,0.77085,3.27,0.11284,0.11245,0,0,0
259.63,0.7726,3.2717,0.11293,0.11272,0,0,0
260.13,0.77464,3.2733,0.11344,0.1129,0,0,0
260.63,0.77612,3.275,0.11377,0.11338,0,0,0
261.13,0.77797,3.2767,0.1138,0.11329,0,0,0
261.63,0.77965,3.2783,0.11431,0.11368,0,0,0
262.13,0.78149,3.2797,0.11431,0.11383,0,0,0
262.63,0.78314,3.281,0.11467,0.11419,0,0,0
263.13,0.78492,3.2823,0.11494,0.11443,0,0,0
263.63,0.78646,3.2837,0.11533,0.11482,0,0,0
264.13,0.78848,3.2853,0.11557,0.11523,0,0,0
264.63,0.79029,3.287,0.11581,0.11535,0,0,0
265.13,0.7921,3.2887,0.11599,0.1158,0,0,0
265.63,0.79402,3.29,0.11635,0.11589,0,0,0
266.13,0.79603,3.2913,0.11656,0.11619,0,0,0
266.63,0.79781,3.293,0.11671,0.11667,0,0,0
267.13,0.79966,3.2947,0.11706,0.11664,0,0,0
267.63,0.80153,3.2963,0.11721,0.11694,0,0,0
268.13,0.80308,3.298,0.11766,0.11733,0,0,0
268.63,0.80506,3.2997,0.11775,0.1175,0,0,0
269.13,0.80677,3.3013,0.11808,0.11774,0,0,0
269.63,0.80832,3.303,0.11823,0.11795,0,0,0
270.13,0.81026,3.3047,0.11865,0.11831,0,0,0
270.63,0.81201,3.306,0.11885,0.11831,0,0,0
271.13,0.81386,3.3073,0.11915,0.11876,0,0,0
271.63,0.8156,3.3087,0.11939,0.11891,0,0,0
272.13,0.81765,3.3103,0.11951,0.11923,0,0,0
272.63,0.81963,3.312,0.11999,0.11977,0,0,0
273.13,0.82158,3.3137,0.12022,0.1198,0,0,0
273.63,0.82329,3.315,0.12034,0.12004,0,0,0
274.13,0.82514,3.3163,0.12061,0.12046,0,0,0
274.63,0.82681,3.318,0.12085,0.1206,0,0,0
275.13,0.82846,3.3197,0.12124,0.12099,0,0,0
275.63,0.8301,3.321,0.12156,0.1212,0,0,0
276.13,0.83195,3.3223,0.12174,0.1215,0,0,0
276.63,0.83363,3.3237,0.12213,0.12176,0,0,0
277.13,0.83524,3.3253,0.12248,0.12182,0,0,0
277.63,0.83715,3.327,0.12269,0.12215,0,0,0
278.13,0.83917,3.3287,0.12287,0.1226,0,0,0
278.63,0.84098,3.3303,0.12323,0.12274,0,0,0
279.13,0.84303,3.3317,0.12367,0.12307,0,0,0
279.63,0.84478,3.333,0.12373,0.12322,0,0,0
280.13,0.84679,3.3343,0.12406,0.12364,0,0,0
280.63,0.84844,3.3357,0.12418,0.12378,0,0,0
281.13,0.84998,3.3373,0.12441,0.12414,0,0,0
281.63,0.85199,3.339,0.12465,0.12438,0,0,0
282.13,0.8536,3.3407,0.12512,0.12461,0,0,0
282.63,0.85518,3.342,0.12548,0.12503,0,0,0
283.13,0.85706,3.3433,0.12569,0.12527,0,0,0
283.63,0.85894,3.345,0.12592,0.12535,0,0,0
284.13,0.86072,3.3467,0.12619,0.12568,0,0,0
284.63,0.86257,3.348,0.12652,0.12604,0,0,0
285.13,0.86445,3.3493,0.12675,0.12627,0,0,0
285.63,0.8665,3.351,0.12702,0.12627,0,0,0
286.13,0.86824,3.3527,0.1274,0.12651,0,0,0
286.63,0.87022,3.354,0.12767,0.12701,0,0,0
287.13,0.8719,3.3553,0.12791,0.12716,0,0,0
287.63,0.87382,3.3567,0.12814,0.12734,0,0,0
288.13,0.87549,3.3583,0.12853,0.12778,0,0,0
288.63,0.87731,3.3597,0.12876,0.1279,0,0,0
289.13,0.87912,3.3613,0.1292,0.12825,0,0,0
289.63,0.88093,3.3627,0.12941,0.1287,0,0,0
290.13,0.88268,3.364,0.12959,0.12887,0,0,0
290.63,0.88463,3.3653,0.13006,0.12917,0,0,0
291.13,0.88654,3.3667,0.13021,0.12958,0,0,0
291.63,0.88849,3.368,0.13062,0.12991,0,0,0
292.13,0.8905,3.3693,0.13068,0.13017,0,0,0
292.63,0.89238,3.371,0.13106,0.13032,0,0,0
293.13,0.89419,3.3727,0.13142,0.13044,0,0,0
293.63,0.89604,3.3743,0.13147,0.1307,0,0,0
294.13,0.89795,3.3757,0.13195,0.131,0,0,0
294.63,0.89953,3.3773,0.13233,0.1312,0,0,0
295.13,0.90134,3.3787,0.13253,0.13138,0,0,0
295.63,0.90309,3.3803,0.13286,0.13182,0,0,0
296.13,0.9047,3.3817,0.13303,0.132,0,0,0
296.63,0.90662,3.383,0.13327,0.13238,0,0,0
297.13,0.90856,3.384,0.13344,0.13244,0,0,0
297.63,0.91044,3.385,0.13391,0.13285,0,0,0
298.13,0.91212,3.3863,0.13397,0.1332,0,0,0
298.63,0.91393,3.3877,0.13447,0.1335,0,0,0
299.13,0.91598,3.3893,0.13474,0.13373,0,0,0
299.63,0.91786,3.3907,0.13497,0.13405,0,0,0
300.13,0.91954,3.3923,0.13509,0.13444,0,0,0
300.63,0.92115,3.3937,0.13556,0.13479,0,0,0
301.13,0.92286,3.3953,0.13565,0.13511,0,0,0
301.63,0.92481,3.3967,0.13597,0.13508,0,0,0
302.13,0.92639,3.3983,0.13623,0.13546,0,0,0
302.63,0.92787,3.3997,0.13664,0.13575,0,0,0
303.13,0.92975,3.4013,0.13685,0.13605,0,0,0
303.63,0.93149,3.4027,0.13726,0.13617,0,0,0
304.13,0.93344,3.4043,0.13746,0.13658,0,0,0
304.63,0.93532,3.4057,0.13778,0.13678,0,0,0
305.13,0.93727,3.407,0.13831,0.1369,0,0,0
305.63,0.93908,3.408,0.13831,0.13722,0,0,0
306.13,0.94099,3.4093,0.13878,0.13757,0,0,0
306.63,0.94287,3.4107,0.13892,0.13775,0,0,0
307.13,0.94452,3.4123,0.13904,0.13819,0,0,0
307.63,0.94603,3.4137,0.13939,0.13842,0,0,0
308.13,0.94798,3.415,0.13989,0.13886,0,0,0
308.63,0.94969,3.4163,0.13989,0.13915,0,0,0
309.13,0.95143,3.4177,0.14012,0.13953,0,0,0
309.63,0.95318,3.4193,0.14035,0.1397,0,0,0
310.13,0.95516,3.4207,0.14062,0.13997,0,0,0
310.63,0.95687,3.422,0.14094,0.14017,0,0,0
311.13,0.95889,3.423,0.14117,0.14064,0,0,0
311.63,0.96083,3.4243,0.14146,0.14093,0,0,0
312.13,0.96265,3.4257,0.14173,0.14131,0,0,0
312.63,0.96459,3.4273,0.1421,0.14137,0,0,0
313.13,0.96631,3.4287,0.14263,0.14145,0,0,0
313.63,0.96805,3.4303,0.14277,0.14192,0,0,0
314.13,0.9698,3.4314,0.14295,0.14218,0,0,0
314.63,0.97138,3.4326,0.14338,0.14242,0,0,0
315.13,0.97319,3.4337,0.14368,0.14282,0,0,0
315.63,0.9751,3.4353,0.14423,0.14311,0,0,0
316.13,0.97695,3.4367,0.14449,0.1434,0,0,0
316.63,0.97883,3.4383,0.14469,0.14373,0,0,0
317.13,0.98064,3.4397,0.1449,0.14396,0,0,0
317.63,0.98242,3.441,0.14516,0.14434,0,0,0
318.13,0.98454,3.4423,0.14548,0.14474,0,0,0
318.63,0.98618,3.4437,0.14568,0.14503,0,0,0
319.13,0.98813,3.445,0.14594,0.14541,0,0,0
319.63,0.98994,3.4463,0.14641,0.14567,0,0,0
320.13,0.99192,3.4477,0.14661,0.14593,0,0,0
320.63,0.99367,3.449,0.14687,0.14611,0,0,0
321.13,0.99508,3.45,0.14693,0.14666,0,0,0
321.63,0.99686,3.4513,0.14728,0.1466,0,0,0
322.13,0.99867,3.4527,0.14777,0.14701,0,0,0
322.63,1.0004,3.4543,0.14788,0.14744,0,0,0
323.13,1.0023,3.4557,0.14838,0.14767,0,0,0
323.63,1.0041,3.457,0.14855,0.14785,0,0,0
324.13,1.0061,3.458,0.14907,0.14837,0,0,0
324.63,1.0077,3.459,0.14927,0.14877,0,0,0
325.13,1.0096,3.4603,0.14959,0.149,0,0,0
325.63,1.0114,3.462,0.15014,0.14923,0,0,0
326.13,1.0132,3.4637,0.15046,0.14967,0,0,0
326.63,1.0152,3.465,0.15089,0.14996,0,0,0
327.13,1.0169,3.4663,0.15106,0.15025,0,0,0
327.63,1.0185,3.4674,0.1515,0.15048,0,0,0
328.13,1.0204,3.4686,0.15164,0.15079,0,0,0
328.63,1.0221,3.47,0.15193,0.15111,0,0,0
329.13,1.024,3.4717,0.15213,0.15146,0,0,0
329.63,1.0257,3.473,0.15253,0.15149,0,0,0
330.13,1.0276,3.474,0.15274,0.15201,0,0,0
330.63,1.0295,3.475,0.15297,0.15218,0,0,0
331.13,1.0317,3.4763,0.15331,0.15278,0,0,0
331.63,1.0335,3.4777,0.1536,0.15296,0,0,0
332.13,1.0353,3.479,0.15395,0.15322,0,0,0
332.63,1.0371,3.4803,0.15418,0.15368,0,0,0
333.13,1.039,3.4817,0.15452,0.15382,0,0,0
333.63,1.0408,3.483,0.15484,0.15434,0,0,0
334.13,1.0425,3.484,0.15521,0.15471,0,0,0
334.63,1.0445,3.485,0.15553,0.15483,0,0,0
335.13,1.0463,3.4863,0.15587,0.15515,0,0,0
335.63,1.0482,3.4877,0.15613,0.15549,0,0,0
336.13,1.0499,3.4893,0.15685,0.15575,0,0,0
336.63,1.0517,3.4907,0.15696,0.15586,0,0,0
337.13,1.0536,3.492,0.15722,0.15638,0,0,0
337.63,1.0554,3.493,0.15754,0.15661,0,0,0
338.13,1.0573,3.4943,0.15794,0.15678,0,0,0
338.63,1.0593,3.4957,0.1582,0.15721,0,0,0
339.13,1.0609,3.497,0.15843,0.15741,0,0,0
339.63,1.0627,3.4983,0.15854,0.1577,0,0,0
340.13,1.0644,3.4997,0.15917,0.15799,0,0,0
340.63,1.0662,3.501,0.15923,0.15833,0,0,0
341.13,1.0678,3.502,0.15966,0.15879,0,0,0
341.63,1.0696,3.5033,0.16009,0.15905,0,0,0
342.13,1.0714,3.5047,0.16017,0.15936,0,0,0
342.63,1.0733,3.506,0.16046,0.15991,0,0,0
343.13,1.0749,3.507,0.1608,0.16016,0,0,0
343.63,1.0768,3.508,0.16106,0.16054,0,0,0
344.13,1.0789,3.5093,0.16129,0.16071,0,0,0
344.63,1.0805,3.5107,0.16172,0.16111,0,0,0
345.13,1.0824,3.512,0.16192,0.16134,0,0,0
345.63,1.084,3.513,0.1624,0.16182,0,0,0
346.13,1.0862,3.5143,0.16277,0.16182,0,0,0
346.63,1.0877,3.5157,0.16326,0.16205,0,0,0
347.13,1.0894,3.517,0.16349,0.16256,0,0,0
347.63,1.0912,3.5183,0.16386,0.16268,0,0,0
348.13,1.0931,3.5197,0.16426,0.1631,0,0,0
348.63,1.0948,3.521,0.16443,0.16339,0,0,0
349.13,1.0968,3.522,0.16497,0.1637,0,0,0
349.63,1.0986,3.5233,0.16519,0.16402,0,0,0
350.13,1.1003,3.5247,0.16554,0.16447,0,0,0
350.63,1.1023,3.526,0.16574,0.16467,0,0,0
351.13,1.104,3.527,0.16599,0.16518,0,0,0
351.63,1.106,3.528,0.1665,0.16541,0,0,0
352.13,1.1077,3.529,0.16684,0.16564,0,0,0
352.63,1.1096,3.5303,0.16716,0.16618,0,0,0
353.13,1.1114,3.5317,0.16733,0.16658,0,0,0
353.63,1.1133,3.5333,0.16767,0.16689,0,0,0
354.13,1.1149,3.5347,0.16821,0.16715,0,0,0
354.63,1.1168,3.536,0.16821,0.16763,0,0,0
355.13,1.1187,3.537,0.16852,0.16777,0,0,0
355.63,1.1207,3.538,0.16911,0.16825,0,0,0
356.13,1.1226,3.539,0.16928,0.16845,0,0,0
356.63,1.1243,3.54,0.16974,0.16871,0,0,0
357.13,1.1263,3.541,0.16999,0.16928,0,0,0
357.63,1.1284,3.5423,0.17031,0.16959,0,0,0
358.13,1.1303,3.5437,0.17059,0.16993,0,0,0
358.63,1.1322,3.545,0.17096,0.17029,0,0,0
359.13,1.1339,3.546,0.17138,0.17061,0,0,0
359.63,1.1356,3.547,0.17164,0.17089,0,0,0
360.13,1.1374,3.548,0.172,0.17117,0,0,0
360.63,1.139,3.5493,0.17229,0.17151,0,0,0
361.13,1.141,3.5507,0.17265,0.17179,0,0,0
361.63,1.1427,3.552,0.17325,0.17199,0,0,0
362.13,1.1446,3.5533,0.17333,0.1725,0,0,0
362.63,1.1466,3.5547,0.17361,0.17284,0,0,0
363.13,1.1481,3.556,0.17401,0.17309,0,0,0
363.63,1.1501,3.557,0.1744,0.17363,0,0,0
364.13,1.152,3.5583,0.17466,0.17391,0,0,0
364.63,1.1539,3.5594,0.17505,0.17422,0,0,0
365.13,1.1558,3.5603,0.17539,0.17465,0,0,0
365.63,1.1575,3.5613,0.17581,0.17501,0,0,0
366.13,1.1595,3.5627,0.17612,0.17532,0,0,0
366.63,1.1612,3.564,0.17635,0.17552,0,0,0
367.13,1.1629,3.565,0.1768,0.17608,0,0,0
367.63,1.1646,3.566,0.17711,0.17636,0,0,0
368.13,1.1666,3.567,0.17753,0.17659,0,0,0
368.63,1.1685,3.5683,0.17781,0.17701,0,0,0
369.13,1.1702,3.5697,0.17795,0.17738,0,0,0
369.63,1.1721,3.571,0.1784,0.1778,0,0,0
370.13,1.1739,3.572,0.17874,0.17814,0,0,0
370.63,1.1758,3.573,0.17916,0.17819,0,0,0
371.13,1.1776,3.5743,0.17952,0.1785,0,0,0
371.63,1.1794,3.5757,0.17997,0.17909,0,0,0
372.13,1.1811,3.577,0.1802,0.17931,0,0,0
372.63,1.1829,3.578,0.1805,0.17971,0,0,0
373.13,1.185,3.579,0.18087,0.17993,0,0,0
373.63,1.1867,3.58,0.18148,0.18044,0,0,0
374.13,1.1883,3.5813,0.18168,0.18088,0,0,0
374.63,1.1904,3.5827,0.18193,0.18108,0,0,0
375.13,1.1922,3.584,0.18241,0.18167,0,0,0
375.63,1.1941,3.585,0.1828,0.18212,0,0,0
376.13,1.1958,3.586,0.18316,0.18245,0,0,0
376.63,1.1979,3.587,0.1835,0.1829,0,0,0
377.13,1.1999,3.588,0.18389,0.18318,0,0,0
377.63,1.2017,3.589,0.18411,0.18352,0,0,0
378.13,1.2033,3.59,0.18456,0.18396,0,0,0
378.63,1.2053,3.591,0.18484,0.18405,0,0,0
379.13,1.2069,3.5923,0.18503,0.18452,0,0,0
379.63,1.2088,3.5937,0.18562,0.18466,0,0,0
380.13,1.2106,3.595,0.18587,0.18527,0,0,0
380.63,1.2124,3.5963,0.18634,0.18544,0,0,0
381.13,1.2143,3.5977,0.18659,0.186,0,0,0
381.63,1.2164,3.5987,0.18698,0.18628,0,0,0
382.13,1.2183,3.5996,0.18735,0.18656,0,0,0
382.63,1.2202,3.6007,0.18771,0.18692,0,0,0
383.13,1.222,3.602,0.18824,0.18728,0,0,0
383.63,1.2237,3.6027,0.18852,0.18764,0,0,0
384.13,1.2257,3.6033,0.18896,0.18831,0,0,0
384.63,1.2277,3.6043,0.18921,0.18859,0,0,0
385.13,1.2294,3.6057,0.18963,0.18875,0,0,0
385.63,1.2312,3.607,0.18977,0.18937,0,0,0
386.13,1.2329,3.608,0.19029,0.18975,0,0,0
386.63,1.2346,3.6093,0.19057,0.19023,0,0,0
387.13,1.2363,3.6107,0.1911,0.1907,0,0,0
387.63,1.2383,3.612,0.19135,0.19092,0,0,0
388.13,1.2401,3.613,0.19182,0.1912,0,0,0
388.63,1.2421,3.614,0.19215,0.1917,0,0,0
389.13,1.2438,3.615,0.19259,0.19203,0,0,0
389.63,1.246,3.6163,0.19301,0.19236,0,0,0
390.13,1.2476,3.6177,0.19345,0.19261,0,0,0
390.63,1.2497,3.619,0.19378,0.19303,0,0,0
391.13,1.2515,3.62,0.19434,0.19347,0,0,0
391.63,1.2533,3.6207,0.19461,0.19405,0,0,0
392.13,1.2551,3.6213,0.195,0.19424,0,0,0
392.63,1.2567,3.6223,0.19528,0.19477,0,0,0
393.13,1.2587,3.6237,0.1958,0.19518,0,0,0
393.63,1.2604,3.625,0.19613,0.1956,0,0,0
394.13,1.2622,3.626,0.19638,0.19596,0,0,0
394.63,1.2643,3.627,0.19685,0.19618,0,0,0
395.13,1.2664,3.628,0.19718,0.19656,0,0,0
395.63,1.2681,3.629,0.19746,0.19714,0,0,0
396.13,1.2699,3.63,0.19787,0.19764,0,0,0
396.63,1.272,3.631,0.19815,0.19778,0,0,0
397.13,1.2737,3.6323,0.19859,0.19824,0,0,0
397.63,1.2757,3.6337,0.19916,0.19882,0,0,0
398.13,1.2776,3.635,0.19969,0.19929,0,0,0
398.63,1.2793,3.636,0.19996,0.19973,0,0,0
399.13,1.2812,3.637,0.20048,0.19998,0,0,0
399.63,1.2833,3.638,0.20087,0.20075,0,0,0
400.13,1.285,3.639,0.20139,0.20097,0,0,0
400.63,1.287,3.64,0.20186,0.20119,0,0,0
401.13,1.2889,3.641,0.20224,0.20165,0,0,0
401.63,1.2908,3.642,0.20276,0.20204,0,0,0
402.13,1.2929,3.643,0.20309,0.20247,0,0,0
402.63,1.2947,3.644,0.20342,0.2028,0,0,0
403.13,1.2966,3.645,0.20375,0.20327,0,0,0
403.63,1.2986,3.646,0.20397,0.20374,0,0,0
404.13,1.3004,3.647,0.20435,0.20398,0,0,0
404.63,1.3023,3.648,0.20495,0.20437,0,0,0
405.13,1.3042,3.649,0.20536,0.20499,0,0,0
405.63,1.306,3.65,0.20596,0.20554,0,0,0
406.13,1.3079,3.651,0.20643,0.2059,0,0,0
406.63,1.3098,3.652,0.20686,0.20633,0,0,0
407.13,1.3115,3.6533,0.207,0.20669,0,0,0
407.63,1.3136,3.6544,0.2076,0.20732,0,0,0
408.13,1.3156,3.6556,0.20798,0.20762,0,0,0
408.63,1.3173,3.6564,0.20861,0.20811,0,0,0
409.13,1.3195,3.6576,0.20886,0.20835,0,0,0
409.63,1.3213,3.6587,0.20924,0.20884,0,0,0
410.13,1.3233,3.66,0.20986,0.20917,0,0,0
410.63,1.3252,3.661,0.21022,0.20969,0,0,0
411.13,1.327,3.662,0.21073,0.21007,0,0,0
411.63,1.3286,3.663,0.21103,0.21042,0,0,0
412.13,1.3305,3.664,0.21152,0.21086,0,0,0
412.63,1.3324,3.665,0.21179,0.21156,0,0,0
413.13,1.3344,3.666,0.21231,0.21205,0,0,0
413.63,1.3364,3.667,0.21283,0.21254,0,0,0
414.13,1.3384,3.668,0.21307,0.21284,0,0,0
414.63,1.3404,3.669,0.21388,0.21322,0,0,0
415.13,1.3421,3.67,0.21415,0.21403,0,0,0
415.63,1.3439,3.671,0.21445,0.2142,0,0,0
416.13,1.3459,3.672,0.21478,0.21476,0,0,0
416.63,1.3478,3.673,0.21556,0.21509,0,0,0
417.13,1.3497,3.674,0.21597,0.21577,0,0,0
417.63,1.3516,3.6747,0.21627,0.21596,0,0,0
418.13,1.3533,3.6756,0.21692,0.21655,0,0,0
418.63,1.3552,3.6767,0.21748,0.2169,0,0,0
419.13,1.3572,3.678,0.21791,0.21723,0,0,0
419.63,1.3592,3.679,0.21821,0.21774,0,0,0
420.13,1.361,3.68,0.21883,0.21798,0,0,0
420.63,1.3632,3.681,0.21926,0.21839,0,0,0
421.13,1.3648,3.682,0.21956,0.21893,0,0,0
421.63,1.3669,3.683,0.21999,0.21944,0,0,0
422.13,1.3687,3.684,0.22056,0.21998,0,0,0
422.63,1.3708,3.685,0.22085,0.22038,0,0,0
423.13,1.3728,3.686,0.22145,0.22116,0,0,0
423.63,1.3747,3.687,0.22196,0.22165,0,0,0
424.13,1.3764,3.688,0.22236,0.22221,0,0,0
424.63,1.3783,3.689,0.22282,0.22245,0,0,0
425.13,1.3805,3.69,0.2233,0.22302,0,0,0
425.63,1.3823,3.691,0.22386,0.22356,0,0,0
426.13,1.3844,3.692,0.22429,0.22401,0,0,0
426.63,1.3864,3.693,0.22478,0.22452,0,0,0
427.13,1.3883,3.694,0.22521,0.2249,0,0,0
427.63,1.3903,3.695,0.22561,0.22538,0,0,0
428.13,1.3921,3.696,0.22636,0.22565,0,0,0
428.63,1.3941,3.6967,0.22673,0.22616,0,0,0
429.13,1.3961,3.6976,0.22748,0.22648,0,0,0
429.63,1.3982,3.6984,0.22783,0.22701,0,0,0
430.13,1.4001,3.6993,0.22823,0.22747,0,0,0
430.63,1.4017,3.7003,0.22874,0.22795,0,0,0
431.13,1.4038,3.7017,0.22924,0.22864,0,0,0
431.63,1.4057,3.703,0.22975,0.2292,0,0,0
432.13,1.4076,3.704,0.23031,0.22974,0,0,0
432.63,1.4096,3.705,0.23074,0.23,0,0,0
433.13,1.4115,3.706,0.23119,0.23072,0,0,0
433.63,1.4134,3.707,0.23188,0.23112,0,0,0
434.13,1.4155,3.7077,0.23231,0.23168,0,0,0
434.63,1.4172,3.7083,0.23271,0.23227,0,0,0
435.13,1.4193,3.709,0.23332,0.23275,0,0,0
435.63,1.4213,3.71,0.23377,0.2332,0,0,0
436.13,1.4234,3.7113,0.23431,0.23352,0,0,0
436.63,1.4253,3.7124,0.23486,0.234,0,0,0
437.13,1.4272,3.7133,0.23531,0.2345,0,0,0
437.63,1.4292,3.714,0.23587,0.23517,0,0,0
438.13,1.4311,3.715,0.23624,0.23562,0,0,0
438.63,1.433,3.716,0.2368,0.23617,0,0,0
439.13,1.4349,3.717,0.2372,0.23673,0,0,0
439.63,1.437,3.7177,0.23783,0.23742,0,0,0
440.13,1.4392,3.7183,0.23828,0.23779,0,0,0
440.63,1.4411,3.7193,0.23889,0.23842,0,0,0
441.13,1.4431,3.7207,0.23939,0.23911,0,0,0
441.63,1.4449,3.7217,0.24018,0.23964,0,0,0
442.13,1.4469,3.7223,0.24076,0.23998,0,0,0
442.63,1.4489,3.723,0.24129,0.24059,0,0,0
443.13,1.4509,3.724,0.24192,0.24107,0,0,0
443.63,1.4529,3.725,0.24235,0.24149,0,0,0
444.13,1.4547,3.726,0.2429,0.24207,0,0,0
444.63,1.4568,3.7267,0.24356,0.24241,0,0,0
445.13,1.4588,3.7273,0.24403,0.24302,0,0,0
445.63,1.4607,3.728,0.2444,0.2437,0,0,0
446.13,1.4629,3.729,0.24506,0.24417,0,0,0
446.63,1.465,3.73,0.24542,0.24486,0,0,0
447.13,1.4669,3.731,0.24587,0.24533,0,0,0
447.63,1.4691,3.732,0.24648,0.24599,0,0,0
448.13,1.4709,3.733,0.24718,0.24654,0,0,0
448.63,1.473,3.734,0.24758,0.24717,0,0,0
449.13,1.4749,3.735,0.24818,0.24774,0,0,0
449.63,1.4769,3.736,0.24891,0.24801,0,0,0
450.13,1.4788,3.7367,0.24938,0.24871,0,0,0
450.63,1.481,3.7373,0.24985,0.24918,0,0,0
451.13,1.4827,3.738,0.25056,0.24976,0,0,0
451.63,1.4848,3.739,0.25108,0.25023,0,0,0
452.13,1.4869,3.7397,0.25179,0.25094,0,0,0
452.63,1.489,3.7403,0.25221,0.25175,0,0,0
453.13,1.491,3.741,0.25325,0.25208,0,0,0
453.63,1.4929,3.742,0.25348,0.25292,0,0,0
454.13,1.4949,3.743,0.25419,0.25357,0,0,0
454.63,1.4969,3.744,0.25481,0.2542,0,0,0
455.13,1.4989,3.745,0.2552,0.25469,0,0,0
455.63,1.5008,3.746,0.25596,0.25537,0,0,0
456.13,1.503,3.747,0.25658,0.25591,0,0,0
456.63,1.5049,3.748,0.25689,0.25654,0,0,0
457.13,1.5067,3.749,0.25754,0.25724,0,0,0
457.63,1.5088,3.7497,0.25829,0.25763,0,0,0
458.13,1.5109,3.7503,0.25881,0.25809,0,0,0
458.63,1.5129,3.751,0.25951,0.25898,0,0,0
459.13,1.515,3.752,0.25992,0.25916,0,0,0
459.63,1.5171,3.753,0.26086,0.25978,0,0,0
460.13,1.5191,3.7537,0.26137,0.2604,0,0,0
460.63,1.5212,3.7543,0.26228,0.26115,0,0,0
461.13,1.5233,3.755,0.26261,0.26156,0,0,0
461.63,1.5251,3.7557,0.26328,0.26218,0,0,0
462.13,1.5272,3.7563,0.26398,0.26291,0,0,0
462.63,1.5293,3.757,0.26447,0.26368,0,0,0
463.13,1.5312,3.758,0.26519,0.26432,0,0,0
463.63,1.533,3.759,0.26565,0.26507,0,0,0
464.13,1.5352,3.76,0.2665,0.26574,0,0,0
464.63,1.5373,3.7607,0.26699,0.26646,0,0,0
465.13,1.5393,3.7613,0.26766,0.26703,0,0,0
465.63,1.5415,3.7623,0.2682,0.26772,0,0,0
466.13,1.5435,3.7634,0.26923,0.26808,0,0,0
466.63,1.5455,3.7643,0.26997,0.26877,0,0,0
467.13,1.5476,3.765,0.27059,0.26939,0,0,0
467.63,1.5497,3.766,0.2713,0.27008,0,0,0
468.13,1.5518,3.767,0.27197,0.2708,0,0,0
468.63,1.5539,3.7677,0.27251,0.27169,0,0,0
469.13,1.5561,3.7683,0.2733,0.27236,0,0,0
469.63,1.5579,3.769,0.27404,0.27308,0,0,0
470.13,1.56,3.77,0.27462,0.27371,0,0,0
470.63,1.5621,3.7707,0.27524,0.27468,0,0,0
471.13,1.5645,3.7713,0.27577,0.27555,0,0,0
471.63,1.5665,3.772,0.27672,0.27639,0,0,0
472.13,1.5685,3.7727,0.27717,0.27682,0,0,0
472.63,1.5708,3.7733,0.27817,0.27754,0,0,0
473.13,1.5731,3.774,0.27865,0.2784,0,0,0
473.63,1.5752,3.7747,0.27948,0.27893,0,0,0
474.13,1.577,3.7753,0.27999,0.27957,0,0,0
474.63,1.5793,3.776,0.28091,0.2802,0,0,0
475.13,1.5817,3.777,0.28167,0.28074,0,0,0
475.63,1.5837,3.7777,0.28243,0.2817,0,0,0
476.13,1.5858,3.7783,0.28319,0.28246,0,0,0
476.63,1.588,3.779,0.2841,0.28327,0,0,0
477.13,1.5901,3.7797,0.28473,0.28395,0,0,0
477.63,1.5922,3.7803,0.28571,0.28478,0,0,0
478.13,1.5943,3.781,0.28634,0.28557,0,0,0
478.63,1.5964,3.782,0.2869,0.2864,0,0,0
479.13,1.599,3.783,0.28793,0.28716,0,0,0
479.63,1.6011,3.7837,0.28883,0.28799,0,0,0
480.13,1.6033,3.7843,0.28936,0.28879,0,0,0
480.63,1.6054,3.785,0.29022,0.28952,0,0,0
481.13,1.6076,3.786,0.2911,0.2904,0,0,0
481.63,1.6097,3.7867,0.2919,0.29108,0,0,0
482.13,1.6119,3.7873,0.2925,0.2917,0,0,0
482.63,1.6141,3.7877,0.29335,0.29276,0,0,0
483.13,1.6165,3.7883,0.29423,0.29361,0,0,0
483.63,1.6187,3.789,0.29483,0.29446,0,0,0
484.13,1.6208,3.7897,0.2957,0.29528,0,0,0
484.63,1.6233,3.7903,0.2966,0.29621,0,0,0
485.13,1.6253,3.7907,0.29752,0.29718,0,0,0
485.63,1.6277,3.7913,0.2983,0.29773,0,0,0
486.13,1.6299,3.792,0.29929,0.29885,0,0,0
486.63,1.6322,3.793,0.29992,0.29967,0,0,0
487.13,1.6345,3.7937,0.30098,0.30069,0,0,0
487.63,1.6367,3.7943,0.30168,0.30134,0,0,0
488.13,1.6389,3.7947,0.3025,0.30241,0,0,0
488.63,1.6411,3.7953,0.30332,0.30305,0,0,0
489.13,1.6434,3.796,0.30404,0.30389,0,0,0
489.63,1.6457,3.7967,0.30503,0.30476,0,0,0
490.13,1.648,3.7973,0.30579,0.30553,0,0,0
490.63,1.6502,3.798,0.30668,0.30644,0,0,0
491.13,1.6525,3.7987,0.30747,0.30738,0,0,0
491.63,1.6549,3.7993,0.30863,0.3082,0,0,0
492.13,1.6573,3.8,0.3092,0.30911,0,0,0
492.63,1.6593,3.8007,0.31036,0.31012,0,0,0
493.13,1.6617,3.801,0.31107,0.31115,0,0,0
493.63,1.6643,3.8013,0.3124,0.31189,0,0,0
494.13,1.6666,3.802,0.31328,0.31285,0,0,0
494.63,1.6686,3.8027,0.31424,0.31405,0,0,0
495.13,1.671,3.8033,0.31485,0.31486,0,0,0
495.63,1.6737,3.8037,0.31593,0.31596,0,0,0
496.13,1.676,3.804,0.31683,0.3166,0,0,0
496.63,1.6783,3.8043,0.31752,0.31765,0,0,0
497.13,1.6807,3.805,0.31881,0.31865,0,0,0
497.63,1.683,3.8057,0.31957,0.31945,0,0,0
498.13,1.6851,3.806,0.32079,0.3204,0,0,0
498.63,1.6877,3.8063,0.32171,0.32155,0,0,0
499.13,1.6901,3.807,0.32262,0.32243,0,0,0
499.63,1.6923,3.8077,0.32354,0.32328,0,0,0
500.13,1.6949,3.8083,0.32463,0.32439,0,0,0
500.63,1.6974,3.8087,0.32584,0.32517,0,0,0
501.13,1.6997,3.8093,0.32671,0.32641,0,0,0
501.63,1.7022,3.8097,0.32756,0.32737,0,0,0
502.13,1.7049,3.81,0.32851,0.32875,0,0,0
502.63,1.707,3.81,0.32962,0.32989,0,0,0
503.13,1.7094,3.8103,0.3307,0.33078,0,0,0
503.63,1.7119,3.8107,0.33169,0.33199,0,0,0
504.13,1.7144,3.811,0.33244,0.33338,0,0,0
504.63,1.7171,3.8113,0.33376,0.3342,0,0,0
505.13,1.7195,3.8117,0.33465,0.33542,0,0,0
505.63,1.722,3.8123,0.33568,0.33638,0,0,0
506.13,1.7245,3.8127,0.33688,0.33751,0,0,0
506.63,1.727,3.8133,0.33825,0.33885,0,0,0
507.13,1.7297,3.8137,0.33899,0.33983,0,0,0
507.63,1.7319,3.814,0.34062,0.34079,0,0,0
508.13,1.7347,3.814,0.34169,0.342,0,0,0
508.63,1.7373,3.814,0.3425,0.34339,0,0,0
509.13,1.74,3.814,0.34383,0.34479,0,0,0
509.63,1.7426,3.814,0.34502,0.34581,0,0,0
510.13,1.7451,3.8143,0.34595,0.34717,0,0,0
510.63,1.7479,3.8147,0.34711,0.34835,0,0,0
511.13,1.7504,3.815,0.3484,0.34977,0,0,0
511.63,1.7532,3.815,0.34951,0.35084,0,0,0
512.13,1.7558,3.815,0.35088,0.35199,0,0,0
512.63,1.7584,3.815,0.35206,0.35329,0,0,0
513.13,1.7611,3.815,0.35319,0.35452,0,0,0
513.63,1.7638,3.8153,0.35421,0.35576,0,0,0
514.13,1.7663,3.8157,0.35555,0.35694,0,0,0
514.63,1.769,3.816,0.35658,0.35849,0,0,0
515.13,1.7717,3.816,0.35797,0.35971,0,0,0
515.63,1.7746,3.816,0.35924,0.36116,0,0,0
516.13,1.7773,3.816,0.36043,0.36242,0,0,0
516.63,1.7802,3.816,0.36165,0.36403,0,0,0
517.13,1.7828,3.816,0.3631,0.36571,0,0,0
517.63,1.7856,3.816,0.36422,0.36715,0,0,0
518.13,1.7886,3.816,0.36538,0.36871,0,0,0
518.63,1.7915,3.8157,0.3668,0.36996,0,0,0
519.13,1.7941,3.8153,0.36804,0.37161,0,0,0
519.63,1.797,3.815,0.3695,0.37279,0,0,0
520.13,1.7999,3.8147,0.37091,0.37411,0,0,0
520.63,1.8027,3.8143,0.37226,0.37547,0,0,0
521.13,1.8055,3.814,0.37362,0.3769,0,0,0
521.63,1.8084,3.814,0.37494,0.37819,0,0,0
522.13,1.8112,3.8137,0.3762,0.37982,0,0,0
522.63,1.8142,3.8133,0.37752,0.38142,0,0,0
523.13,1.817,3.8127,0.3791,0.38298,0,0,0
523.63,1.8197,3.8123,0.38067,0.3847,0,0,0
524.13,1.8227,3.8117,0.38218,0.38582,0,0,0
524.63,1.8257,3.8113,0.38344,0.38746,0,0,0
525.13,1.8288,3.8107,0.38483,0.38887,0,0,0
525.63,1.8317,3.81,0.38618,0.39071,0,0,0
526.13,1.8347,3.809,0.38775,0.39225,0,0,0
526.63,1.8379,3.808,0.38903,0.39447,0,0,0
527.13,1.8406,3.807,0.39101,0.39585,0,0,0
527.63,1.8437,3.8057,0.39241,0.39755,0,0,0
528.13,1.8469,3.8043,0.39393,0.39949,0,0,0
528.63,1.85,3.8027,0.39588,0.40093,0,0,0
529.13,1.853,3.8013,0.39757,0.40281,0,0,0
529.63,1.8564,3.7997,0.39915,0.40479,0,0,0
530.13,1.8598,3.798,0.40079,0.40718,0,0,0
530.63,1.8631,3.7957,0.40259,0.40874,0,0,0
531.13,1.8662,3.793,0.40441,0.41073,0,0,0
531.63,1.8695,3.7903,0.40597,0.41302,0,0,0
532.13,1.8731,3.7871,0.40745,0.41554,0,0,0
532.63,1.8768,3.7816,0.40961,0.41844,0,0,0
533.13,1.8808,3.7724,0.41162,0.42204,0,0,0
533.63,1.8849,3.7616,0.41386,0.42542,0,0,0
534.13,1.8888,3.7516,0.41588,0.42796,0,0,0
534.63,1.8925,3.7424,0.41776,0.43128,0,0,0
535.13,1.8984,3.7181,0.4209,0.43705,0,0,0