File: lab_data/AA6014-T4_results/DATA/CH_00_1.csv
Time[s],Displacement[mm],Force[kN],AxStrain_1,AxStrain_2,Thickness[mm],OuterWidth[mm],Diameter[mm]
0.58,0,-0.0053786,0,0,1.1255,19.962,5.2269
1.08,0.000235,0.0032267,2.5e-05,0.00013799,0,0,0
1.58,0.000505,0.013871,-7.7003e-05,0.00021298,0,0,0
2.08,0.001064,0.03771,6.3998e-05,-1.3e-05,0,0,0
2.59,0.001272,0.066718,-3.3001e-05,0.00017099,0,0,0
3.08,0.001681,0.091992,0.00010099,-2e-06,0,0,0
3.58,0.00157,0.11157,3.4999e-05,-0.00016201,0,0,0
4.08,0.001883,0.12615,8.0997e-05,8.5996e-05,0,0,0
4.58,0.002176,0.14272,4.7999e-05,-6.1002e-05,0,0,0
5.08,0.002553,0.16157,0.00011799,0.00021198,0,0,0
5.58,0.002718,0.18,0.00010599,0.00010999,0,0,0
6.08,0.002859,0.19557,0.00014799,0.00016699,0,0,0
6.58,0.002815,0.20642,0.00015699,0.00017998,0,0,0
7.08,0.002938,0.21486,9.6995e-05,8.2997e-05,0,0,0
7.58,0.003116,0.225,0.00020598,0.00013799,0,0,0
8.09,0.003326,0.23915,5.4998e-05,0.00018798,0,0,0
8.59,0.00352,0.25385,0.00014199,0.00027496,0,0,0
9.09,0.003925,0.26915,0.00028496,0.00015099,0,0,0
9.59,0.004092,0.28385,0.00029596,0.00028796,0,0,0
10.09,0.004248,0.29829,0.00021498,0.0004419,0,0,0
10.59,0.004609,0.31257,9.7995e-05,0.00032195,0,0,0
11.08,0.004924,0.32743,0.00019498,0.00035594,0,0,0
11.58,0.005161,0.34257,0.00022597,0.00040392,0,0,0
12.09,0.005453,0.35743,0.00031195,0.00041791,0,0,0
12.59,0.005696,0.37257,0.00040092,0.00027796,0,0,0
13.09,0.005892,0.38743,0.00026896,0.00035894,0,0,0
13.58,0.006352,0.40286,0.00032595,0.00019798,0,0,0
14.09,0.006437,0.41814,0.0004529,0.00029496,0,0,0
14.59,0.006607,0.43271,0.00039292,0.0004529,0,0,0
15.09,0.006714,0.44715,0.00019098,0.00025497,0,0,0
15.59,0.006923,0.46214,0.00033894,0.00029896,0,0,0
16.09,0.007097,0.47786,0.00023497,0.00042591,0,0,0
16.59,0.007379,0.49314,0.00049988,0.00048688,0,0,0
17.09,0.007436,0.50915,0.00018098,0.00038593,0,0,0
17.59,0.007537,0.52514,0.00037593,0.00032895,0,0,0
18.09,0.007775,0.54071,0.0004429,0.00047289,0,0,0
18.59,0.008004,0.55615,0.00038892,0.00033594,0,0,0
19.09,0.008088,0.57214,0.00035594,0.00037593,0,0,0
19.59,0.008511,0.58886,0.00052386,0.00052386,0,0,0
20.09,0.008574,0.60485,0.00048288,0.00056384,0,0,0
20.59,0.008967,0.62115,0.00040592,0.0006278,0,0,0
21.09,0.009078,0.63714,0.00049688,0.00045989,0,0,0
21.59,0.009642,0.65386,0.00053386,0.00059083,0,0,0
22.09,0.010122,0.67014,0.00060782,0.00060082,0,0,0
22.59,0.010595,0.68686,0.00076171,0.00078169,0,0,0
23.09,0.010726,0.70285,0.00062081,0.00083565,0,0,0
23.58,0.011314,0.71829,0.00078169,0.00076471,0,0,0
24.09,0.01169,0.73386,0.00070775,0.00076171,0,0,0
24.59,0.011948,0.75014,0.00065079,0.00076171,0,0,0
25.09,0.01219,0.76686,0.00072474,0.00086563,0,0,0
25.59,0.012519,0.78314,0.00084864,0.0007717,0,0,0
26.09,0.012734,0.79986,0.00064479,0.00053386,0,0,0
26.59,0.012982,0.81614,0.00080568,0.00082566,0,0,0
27.09,0.013036,0.83257,0.00071474,0.00075472,0,0,0
27.59,0.013365,0.84843,0.00065778,0.00070775,0,0,0
28.09,0.01355,0.864,0.00058383,0.00091658,0,0,0
28.59,0.01359,0.87986,0.00079868,0.00079568,0,0,0
29.08,0.01362,0.89614,0.00064479,0.00085264,0,0,0
29.58,0.013832,0.91286,0.00075871,0.00096354,0,0,0
30.08,0.014231,0.92885,0.00073873,0.00076471,0,0,0
30.58,0.0145,0.94515,0.00086263,0.00098951,0,0,0
31.09,0.014758,0.96114,0.00066478,0.00085264,0,0,0
31.59,0.015188,0.97757,0.00071474,0.00086962,0,0,0
32.09,0.015235,0.99343,0.00090559,0.0010205,0,0,0
32.59,0.015796,1.0087,0.00088561,0.0009965,0,0,0
33.08,0.016229,1.0239,0.00092257,0.00095255,0,0,0
33.59,0.0169,1.0394,0.00090959,0.00094256,0,0,0
34.08,0.017239,1.0556,0.0010734,0.0011773,0,0,0
34.59,0.017568,1.0714,0.0010574,0.0011573,0,0,0
35.08,0.017995,1.0876,0.0010874,0.0012282,0,0,0
35.59,0.018438,1.1031,0.0012243,0.0012782,0,0,0
36.09,0.018445,1.1191,0.0013081,0.0011843,0,0,0
36.59,0.019187,1.134,0.0012582,0.0012952,0,0,0
37.09,0.019358,1.1487,0.0011104,0.0012512,0,0,0
37.59,0.01966,1.1643,0.0012382,0.0012183,0,0,0
38.09,0.01965,1.1809,0.0012143,0.0011403,0,0,0
38.59,0.019727,1.1969,0.0011443,0.0012582,0,0,0
39.09,0.020036,1.2121,0.0012183,0.0011843,0,0,0
39.59,0.020117,1.2267,0.0012282,0.0012752,0,0,0
40.08,0.020174,1.2414,0.0011513,0.0012852,0,0,0
40.59,0.02066,1.2577,0.0013181,0.0013421,0,0,0
41.09,0.020707,1.2741,0.0013521,0.0013551,0,0,0
41.59,0.021006,1.289,0.001382,0.0013022,0,0,0
42.09,0.021178,1.3036,0.0012922,0.001382,0,0,0
42.58,0.021668,1.3184,0.0012882,0.0014659,0,0,0
43.08,0.022158,1.3339,0.0013151,0.001386,0,0,0
43.58,0.022624,1.3489,0.0014859,0.0014799,0,0,0
44.09,0.023094,1.3641,0.0014529,0.0016237,0,0,0
44.59,0.02343,1.3791,0.0016976,0.0015568,0,0,0
45.09,0.02387,1.3949,0.0016836,0.0017145,0,0,0
45.59,0.024353,1.409,0.0016067,0.0017175,0,0,0
46.08,0.024609,1.4227,0.0018683,0.0018752,0,0,0
46.58,0.025169,1.4373,0.0017944,0.0018782,0,0,0
47.09,0.025559,1.4529,0.0020958,0.0020629,0,0,0
47.59,0.025609,1.4681,0.002022,0.0020459,0,0,0
48.09,0.026049,1.4829,0.0021467,0.002009,0,0,0
48.59,0.02628,1.4979,0.0021427,0.001985,0,0,0
49.09,0.026479,1.5124,0.001992,0.0018712,0,0,0
49.58,0.026734,1.5276,0.0019491,0.001985,0,0,0
50.09,0.026945,1.5421,0.0020319,0.0020529,0,0,0
50.58,0.027076,1.5563,0.0020489,0.0020389,0,0,0
51.08,0.027462,1.5706,0.0021966,0.0021996,0,0,0
51.59,0.027764,1.5851,0.0020659,0.0022874,0,0,0
52.09,0.027969,1.5999,0.0021696,0.0023103,0,0,0
52.59,0.028406,1.6141,0.0022535,0.0022804,0,0,0
53.08,0.028845,1.6291,0.002458,0.0022874,0,0,0
53.58,0.029161,1.6439,0.0025587,0.002461,0,0,0
54.08,0.029839,1.6589,0.0024071,0.002454,0,0,0
54.59,0.02997,1.6729,0.0027023,0.0025148,0,0,0
55.09,0.030417,1.6863,0.0027931,0.0026784,0,0,0
55.58,0.030883,1.7001,0.0029536,0.002836,0,0,0
56.09,0.031478,1.7149,0.0031271,0.0027592,0,0,0
56.58,0.031937,1.7296,0.0032308,0.0028659,0,0,0
57.09,0.032377,1.7434,0.0033245,0.0030573,0,0,0
57.58,0.032559,1.7579,0.003475,0.0032248,0,0,0
58.08,0.0332,1.7719,0.0035457,0.0032348,0,0,0
58.58,0.033458,1.7861,0.0036463,0.0033813,0,0,0
59.08,0.033838,1.7999,0.0036693,0.0033713,0,0,0
59.59,0.034254,1.813,0.0037191,0.003465,0,0,0
60.09,0.034617,1.8261,0.00373,0.0033912,0,0,0
60.58,0.035013,1.8399,0.0036663,0.0034182,0,0,0
61.09,0.035436,1.8539,0.0038336,0.0035058,0,0,0
61.59,0.03606,1.8671,0.0037769,0.0036792,0,0,0
62.09,0.036822,1.8809,0.0038536,0.0036762,0,0,0
62.59,0.037443,1.8941,0.0039333,0.0038267,0,0,0
63.08,0.038021,1.9076,0.004,0.0037061,0,0,0
63.59,0.038414,1.9201,0.0040837,0.0040139,0,0,0
64.08,0.039461,1.932,0.0044889,0.0040368,0,0,0
64.58,0.040102,1.9439,0.0045088,0.0042012,0,0,0
65.08,0.040549,1.9561,0.0047358,0.0044252,0,0,0
65.58,0.041113,1.9686,0.0050363,0.0047059,0,0,0
66.08,0.041838,1.9804,0.0051467,0.0049467,0,0,0
66.58,0.042338,1.9926,0.0054511,0.0050701,0,0,0
67.08,0.043258,2.0041,0.0058409,0.0052064,0,0,0
67.58,0.043842,2.0156,0.0060944,0.0054869,0,0,0
68.08,0.04488,2.0264,0.0063717,0.0056112,0,0,0
68.58,0.045672,2.0367,0.006625,0.0061381,0,0,0
69.08,0.046689,2.0469,0.0068257,0.0063081,0,0,0
69.58,0.047797,2.0571,0.0067591,0.0063717,0,0,0
70.08,0.048781,2.0673,0.0070322,0.0065614,0,0,0
70.58,0.050214,2.0767,0.0072288,0.0066816,0,0,0
71.08,0.051581,2.0863,0.007202,0.0068257,0,0,0
71.58,0.05291,2.0957,0.0076824,0.0069051,0,0,0
72.08,0.054377,2.105,0.0077122,0.0072387,0,0,0
72.58,0.055905,2.1137,0.0079622,0.007469,0,0,0
73.08,0.057597,2.1217,0.0082112,0.0075425,0,0,0
73.58,0.05903,2.1299,0.0086247,0.0080188,0,0,0
74.08,0.060199,2.1381,0.0087744,0.0082419,0,0,0
74.58,0.06182,2.1466,0.0088438,0.0085513,0,0,0
75.08,0.063086,2.1544,0.0094225,0.0088735,0,0,0
75.58,0.064701,2.1623,0.0098979,0.0091401,0,0,0
76.08,0.066057,2.1697,0.010473,0.0096493,0,0,0
76.58,0.06786,2.177,0.010882,0.010034,0,0,0
77.08,0.069414,2.1843,0.011257,0.010563,0,0,0
77.58,0.07122,2.1914,0.011738,0.010832,0,0,0
78.08,0.072879,2.1986,0.012176,0.011356,0,0,0
78.58,0.074735,2.2057,0.012634,0.011748,0,0,0
79.08,0.076572,2.213,0.012978,0.012,0,0,0
79.58,0.078532,2.22,0.013164,0.012272,0,0,0
80.09,0.080513,2.227,0.013498,0.012773,0,0,0
80.58,0.082051,2.2337,0.013681,0.013061,0,0,0
81.08,0.083632,2.2406,0.014098,0.013396,0,0,0
81.58,0.085435,2.2474,0.014191,0.013496,0,0,0
82.08,0.087033,2.2537,0.014306,0.013789,0,0,0
82.58,0.089094,2.2599,0.014624,0.013889,0,0,0
83.08,0.090541,2.2661,0.014747,0.014326,0,0,0
83.58,0.092414,2.2729,0.015283,0.01471,0,0,0
84.08,0.094382,2.2791,0.01561,0.014892,0,0,0
84.58,0.096117,2.2856,0.016002,0.01516,0,0,0
85.08,0.098172,2.2914,0.016435,0.015709,0,0,0
85.58,0.10043,2.2973,0.01698,0.01596,0,0,0
86.08,0.10245,2.3033,0.017439,0.016528,0,0,0
86.58,0.10457,2.3094,0.017746,0.016921,0,0,0
87.08,0.10646,2.3156,0.018411,0.01741,0,0,0
87.58,0.10816,2.3214,0.018781,0.01763,0,0,0
88.08,0.11021,2.3276,0.019251,0.018343,0,0,0
88.58,0.11197,2.3334,0.019525,0.018649,0,0,0
89.08,0.11361,2.3396,0.020091,0.019173,0,0,0
89.58,0.11555,2.3454,0.020239,0.019456,0,0,0
90.08,0.11772,2.3513,0.020597,0.019805,0,0,0
90.58,0.11964,2.3567,0.020914,0.020187,0,0,0
91.08,0.12198,2.362,0.021278,0.02043,0,0,0
91.58,0.124,2.3676,0.02135,0.020825,0,0,0
92.08,0.12636,2.3731,0.021699,0.020943,0,0,0
92.58,0.1286,2.3786,0.022093,0.021328,0,0,0
93.08,0.13065,2.3837,0.022372,0.021679,0,0,0
93.58,0.13259,2.3896,0.022536,0.021807,0,0,0
94.08,0.13459,2.3951,0.023002,0.022168,0,0,0
94.58,0.13653,2.4009,0.023449,0.022487,0,0,0
95.08,0.13857,2.4064,0.023891,0.022868,0,0,0
95.58,0.14067,2.4117,0.024307,0.023268,0,0,0
96.08,0.14285,2.4166,0.024703,0.023727,0,0,0
96.58,0.14473,2.4217,0.025113,0.024097,0,0,0
97.08,0.14689,2.4273,0.025676,0.024497,0,0,0
97.58,0.14943,2.4324,0.025817,0.024903,0,0,0
98.08,0.15155,2.4373,0.026291,0.02527,0,0,0
98.58,0.15394,2.4423,0.026798,0.025617,0,0,0
99.08,0.15591,2.448,0.027056,0.025983,0,0,0
99.58,0.15826,2.4534,0.027359,0.026362,0,0,0
100.08,0.16013,2.458,0.027703,0.026706,0,0,0
100.58,0.16226,2.4626,0.027905,0.026957,0,0,0
101.08,0.16433,2.4674,0.028532,0.027369,0,0,0
101.58,0.16621,2.4726,0.028587,0.02782,0,0,0
102.08,0.1682,2.4774,0.028982,0.028045,0,0,0
102.58,0.17065,2.4826,0.029354,0.028345,0,0,0
103.08,0.1729,2.4874,0.029673,0.028554,0,0,0
103.58,0.17505,2.4926,0.030132,0.028864,0,0,0
104.08,0.17703,2.4971,0.030504,0.029318,0,0,0
104.58,0.17954,2.5016,0.03095,0.029672,0,0,0
105.08,0.18161,2.5063,0.031334,0.029966,0,0,0
105.58,0.18402,2.5114,0.031591,0.030481,0,0,0
106.08,0.18572,2.5163,0.031936,0.030742,0,0,0
106.58,0.18825,2.5207,0.032413,0.031128,0,0,0
107.08,0.18986,2.525,0.032777,0.031464,0,0,0
107.58,0.19178,2.5296,0.03304,0.031753,0,0,0
108.08,0.194,2.5347,0.033531,0.032218,0,0,0
108.58,0.19581,2.5394,0.033544,0.03242,0,0,0
109.08,0.19792,2.5433,0.034008,0.032881,0,0,0
109.58,0.20004,2.5476,0.03415,0.03331,0,0,0
110.08,0.20223,2.5524,0.034725,0.033586,0,0,0
110.58,0.20479,2.5573,0.034806,0.033901,0,0,0
111.08,0.20697,2.5614,0.03548,0.0343,0,0,0
111.58,0.20919,2.5656,0.035671,0.034608,0,0,0
112.08,0.21122,2.5697,0.036108,0.034903,0,0,0
112.58,0.21326,2.5743,0.036332,0.035146,0,0,0
113.08,0.21514,2.5787,0.036804,0.03558,0,0,0
113.58,0.21708,2.583,0.037115,0.035826,0,0,0
114.08,0.2191,2.587,0.037335,0.036212,0,0,0
114.58,0.22096,2.5913,0.037671,0.036519,0,0,0
115.08,0.22294,2.5957,0.038172,0.036943,0,0,0
115.58,0.225,2.6,0.038528,0.037179,0,0,0
116.08,0.22776,2.6043,0.03885,0.037429,0,0,0
116.58,0.22977,2.6084,0.039076,0.037881,0,0,0
117.08,0.2322,2.6126,0.039625,0.038269,0,0,0
117.58,0.23438,2.6164,0.03998,0.038495,0,0,0
118.08,0.23667,2.6203,0.040238,0.038883,0,0,0
118.58,0.23853,2.6243,0.040464,0.039238,0,0,0
119.08,0.24058,2.6284,0.040947,0.039593,0,0,0
119.58,0.24236,2.6323,0.041205,0.040044,0,0,0
120.08,0.24406,2.636,0.041624,0.040303,0,0,0
120.58,0.2464,2.6403,0.041946,0.040529,0,0,0
121.08,0.24813,2.6444,0.042235,0.040915,0,0,0
121.58,0.25033,2.6483,0.042557,0.041366,0,0,0
122.08,0.25244,2.652,0.042847,0.041527,0,0,0
122.58,0.25483,2.6557,0.043136,0.041817,0,0,0
123.08,0.25716,2.6593,0.04349,0.042332,0,0,0
123.58,0.25921,2.663,0.043555,0.042493,0,0,0
124.08,0.26136,2.6667,0.0441,0.042783,0,0,0
124.58,0.26351,2.6703,0.04439,0.043169,0,0,0
125.08,0.26538,2.674,0.04471,0.043683,0,0,0
125.58,0.2672,2.6777,0.045,0.04378,0,0,0
126.08,0.26926,2.6813,0.045289,0.043972,0,0,0
126.58,0.27115,2.6847,0.045705,0.044357,0,0,0
127.08,0.27303,2.6883,0.045866,0.04455,0,0,0
127.58,0.27511,2.6917,0.046315,0.044839,0,0,0
128.08,0.27698,2.6953,0.046475,0.04516,0,0,0
128.58,0.2793,2.6987,0.046891,0.045641,0,0,0
129.08,0.28098,2.7023,0.047308,0.045897,0,0,0
129.58,0.28352,2.706,0.047628,0.046251,0,0,0
130.08,0.28557,2.7097,0.047884,0.046507,0,0,0
130.58,0.28734,2.713,0.048236,0.046924,0,0,0
131.08,0.28958,2.7163,0.048556,0.047148,0,0,0
131.58,0.29142,2.7194,0.048843,0.047628,0,0,0
132.08,0.29311,2.7226,0.0491,0.047852,0,0,0
132.58,0.29511,2.7257,0.049387,0.048236,0,0,0
133.08,0.29676,2.729,0.049547,0.04846,0,0,0
133.58,0.29882,2.7323,0.049802,0.048651,0,0,0
134.08,0.30074,2.7357,0.05009,0.048875,0,0,0
134.58,0.30258,2.739,0.050377,0.049099,0,0,0
135.08,0.30463,2.742,0.050632,0.049451,0,0,0
135.58,0.3067,2.745,0.050952,0.049611,0,0,0
136.09,0.30864,2.748,0.051175,0.04993,0,0,0
136.58,0.31082,2.751,0.051525,0.050089,0,0,0
137.08,0.31254,2.754,0.051781,0.0506,0,0,0
137.58,0.31416,2.7573,0.052068,0.050823,0,0,0
138.08,0.31606,2.7607,0.052227,0.050983,0,0,0
138.58,0.31779,2.764,0.052705,0.051335,0,0,0
139.08,0.31946,2.7667,0.05296,0.05143,0,0,0
139.58,0.32132,2.7696,0.053437,0.051876,0,0,0
140.08,0.32316,2.7724,0.05366,0.052227,0,0,0
140.58,0.32484,2.7753,0.054073,0.052577,0,0,0
141.08,0.32672,2.778,0.054328,0.052641,0,0,0
141.58,0.32883,2.781,0.054455,0.05296,0,0,0
142.08,0.33077,2.784,0.054932,0.053342,0,0,0
142.58,0.33281,2.787,0.054932,0.053628,0,0,0
143.08,0.3348,2.79,0.055249,0.053628,0,0,0
143.58,0.33663,2.7927,0.055472,0.054073,0,0,0
144.08,0.33836,2.7953,0.055726,0.054296,0,0,0
144.58,0.34005,2.798,0.055979,0.05455,0,0,0
145.08,0.34181,2.8007,0.056203,0.054741,0,0,0
145.58,0.34369,2.8036,0.056741,0.054963,0,0,0
146.08,0.34554,2.8064,0.056773,0.055345,0,0,0
146.58,0.34732,2.8093,0.057122,0.055567,0,0,0
147.08,0.34901,2.812,0.05747,0.055757,0,0,0
147.58,0.35117,2.815,0.05782,0.055947,0,0,0
148.08,0.35315,2.8177,0.057946,0.056265,0,0,0
148.58,0.35521,2.8203,0.058422,0.056456,0,0,0
149.08,0.35662,2.823,0.058548,0.0569,0,0,0
149.58,0.35908,2.8257,0.058865,0.056963,0,0,0
150.08,0.36098,2.8283,0.059276,0.057438,0,0,0
150.58,0.36258,2.8307,0.059339,0.05766,0,0,0
151.08,0.36465,2.8333,0.059561,0.057788,0,0,0
151.58,0.36617,2.836,0.059972,0.058104,0,0,0
152.08,0.36779,2.839,0.060161,0.058484,0,0,0
152.58,0.36996,2.8417,0.060446,0.05861,0,0,0
153.08,0.37156,2.8443,0.060635,0.058864,0,0,0
153.58,0.37335,2.8467,0.06092,0.059244,0,0,0
154.08,0.3751,2.849,0.061109,0.05937,0,0,0
154.58,0.37714,2.8513,0.06133,0.059496,0,0,0
155.08,0.37934,2.854,0.061614,0.059813,0,0,0
155.58,0.38122,2.857,0.06193,0.060129,0,0,0
156.08,0.38348,2.86,0.062214,0.060414,0,0,0
156.58,0.38505,2.8627,0.062625,0.06054,0,0,0
157.08,0.38698,2.865,0.062971,0.060888,0,0,0
157.58,0.38868,2.8673,0.063097,0.061109,0,0,0
158.08,0.39019,2.8697,0.063444,0.061361,0,0,0
158.58,0.39195,2.872,0.06357,0.061614,0,0,0
159.08,0.39348,2.8743,0.063885,0.061835,0,0,0
159.58,0.39551,2.8767,0.064168,0.062151,0,0,0
160.08,0.39751,2.8793,0.064483,0.062529,0,0,0
160.58,0.39838,2.882,0.064703,0.062655,0,0,0
161.08,0.40104,2.8847,0.065143,0.062907,0,0,0
161.58,0.403,2.887,0.065333,0.063317,0,0,0
162.08,0.40465,2.8893,0.065553,0.063601,0,0,0
162.58,0.40709,2.8917,0.065804,0.063821,0,0,0
163.08,0.40877,2.894,0.066055,0.064042,0,0,0
163.58,0.41038,2.8963,0.066401,0.064262,0,0,0
164.08,0.41218,2.8987,0.066401,0.064514,0,0,0
164.58,0.41394,2.9013,0.066715,0.064798,0,0,0
165.08,0.41554,2.9037,0.066967,0.064828,0,0,0
165.58,0.41729,2.906,0.067217,0.065081,0,0,0
166.08,0.41898,2.9083,0.067562,0.065646,0,0,0
166.58,0.42105,2.9107,0.067876,0.065804,0,0,0
167.08,0.42312,2.913,0.068221,0.065898,0,0,0
167.58,0.42492,2.915,0.068535,0.066181,0,0,0
168.08,0.42688,2.9173,0.068849,0.066558,0,0,0
168.58,0.42896,2.9197,0.068849,0.066809,0,0,0
169.08,0.43067,2.9223,0.069319,0.06706,0,0,0
169.58,0.43265,2.9247,0.069476,0.067248,0,0,0
170.08,0.43444,2.927,0.069757,0.067562,0,0,0
170.58,0.43607,2.929,0.06982,0.067876,0,0,0
171.08,0.43797,2.9313,0.070132,0.068096,0,0,0
171.58,0.43954,2.9337,0.070415,0.068315,0,0,0
172.08,0.44139,2.936,0.070634,0.068597,0,0,0
172.58,0.44327,2.9383,0.070789,0.068817,0,0,0
173.08,0.4451,2.9407,0.07104,0.069067,0,0,0
173.58,0.44704,2.943,0.071102,0.069318,0,0,0
174.08,0.44886,2.9453,0.071415,0.069537,0,0,0
174.58,0.4511,2.9477,0.071821,0.069819,0,0,0
175.08,0.45286,2.95,0.072134,0.069976,0,0,0
175.58,0.45509,2.952,0.07229,0.070195,0,0,0
176.08,0.45686,2.954,0.072633,0.070382,0,0,0
176.58,0.45865,2.956,0.073008,0.070695,0,0,0
177.08,0.46044,2.9583,0.073102,0.070914,0,0,0
177.58,0.46228,2.9607,0.073382,0.071289,0,0,0
178.08,0.4639,2.963,0.073787,0.071446,0,0,0
178.58,0.46557,2.965,0.074224,0.071695,0,0,0
179.08,0.46719,2.967,0.074287,0.071977,0,0,0
179.58,0.46909,2.969,0.074442,0.072134,0,0,0
180.08,0.47089,2.9713,0.074722,0.072415,0,0,0
180.58,0.47306,2.9737,0.074972,0.072726,0,0,0
181.08,0.47499,2.9757,0.075222,0.072882,0,0,0
181.58,0.47685,2.9776,0.075314,0.073319,0,0,0
182.08,0.4787,2.9797,0.075532,0.073538,0,0,0
182.58,0.48061,2.982,0.07575,0.073756,0,0,0
183.08,0.48253,2.9843,0.07603,0.074068,0,0,0
183.58,0.48417,2.9867,0.076186,0.074286,0,0,0
184.08,0.48579,2.9887,0.076497,0.074442,0,0,0
184.58,0.48757,2.9906,0.076653,0.074691,0,0,0
185.08,0.48908,2.9927,0.076902,0.07494,0,0,0
185.58,0.49069,2.995,0.077274,0.075065,0,0,0
186.08,0.49257,2.997,0.077399,0.075283,0,0,0
186.58,0.49452,2.999,0.077678,0.075594,0,0,0
187.08,0.49633,3.001,0.078083,0.075781,0,0,0
187.58,0.4975,3.0033,0.078082,0.076092,0,0,0
188.08,0.50043,3.0054,0.078672,0.076216,0,0,0
188.58,0.50237,3.0076,0.078734,0.076528,0,0,0
189.08,0.50402,3.0097,0.079014,0.076839,0,0,0
189.58,0.50576,3.0117,0.079261,0.077025,0,0,0
190.08,0.50758,3.0133,0.079447,0.077367,0,0,0
190.58,0.50936,3.0153,0.079664,0.077709,0,0,0
191.08,0.5111,3.0174,0.079974,0.077833,0,0,0
191.58,0.51285,3.0196,0.080316,0.078174,0,0,0
192.08,0.51456,3.0217,0.080501,0.078361,0,0,0
192.58,0.51627,3.0237,0.080656,0.078764,0,0,0
193.08,0.51825,3.0253,0.080966,0.079136,0,0,0
193.58,0.52023,3.027,0.081213,0.079168,0,0,0
194.08,0.52211,3.029,0.081275,0.079602,0,0,0
194.58,0.52426,3.031,0.081461,0.079694,0,0,0
195.08,0.52624,3.033,0.081801,0.079726,0,0,0
195.58,0.52806,3.035,0.081894,0.080098,0,0,0
196.08,0.52987,3.037,0.082079,0.080345,0,0,0
196.58,0.53158,3.0393,0.082296,0.080532,0,0,0
197.08,0.53319,3.0417,0.082729,0.080655,0,0,0
197.58,0.53504,3.0437,0.083224,0.080934,0,0,0
198.08,0.53655,3.0456,0.083223,0.081275,0,0,0
198.58,0.53856,3.0474,0.083563,0.081398,0,0,0
199.08,0.54017,3.0496,0.083903,0.081738,0,0,0
199.58,0.54239,3.0517,0.084087,0.081986,0,0,0
200.08,0.54407,3.0537,0.084242,0.082172,0,0,0
200.58,0.54595,3.0553,0.084551,0.082574,0,0,0
201.08,0.548,3.0573,0.084767,0.082882,0,0,0
201.58,0.55014,3.0597,0.084921,0.082975,0,0,0
202.08,0.55189,3.0617,0.085198,0.083346,0,0,0
202.58,0.5535,3.0633,0.085507,0.083624,0,0,0
203.08,0.55528,3.065,0.085723,0.08384,0,0,0
203.58,0.55716,3.067,0.085815,0.084056,0,0,0
204.08,0.55894,3.0687,0.085938,0.084211,0,0,0
204.58,0.56055,3.0703,0.086246,0.084458,0,0,0
205.08,0.56196,3.072,0.086585,0.08492,0,0,0
205.58,0.56408,3.074,0.086769,0.085013,0,0,0
206.08,0.56589,3.0763,0.087016,0.085074,0,0,0
206.58,0.56754,3.0784,0.087385,0.085383,0,0,0
207.08,0.56942,3.0803,0.087631,0.085537,0,0,0
207.58,0.57146,3.082,0.087907,0.085845,0,0,0
208.08,0.57341,3.084,0.088061,0.085999,0,0,0
208.58,0.57546,3.086,0.088215,0.086276,0,0,0
209.08,0.57727,3.088,0.088676,0.086491,0,0,0
209.58,0.57882,3.09,0.088799,0.0868,0,0,0
210.08,0.58053,3.092,0.089168,0.087046,0,0,0
210.58,0.58207,3.0937,0.089505,0.087384,0,0,0
211.08,0.58399,3.0953,0.089843,0.087507,0,0,0
211.58,0.58566,3.097,0.089935,0.087815,0,0,0
212.08,0.58764,3.099,0.090088,0.087999,0,0,0
212.58,0.58942,3.101,0.090426,0.088492,0,0,0
213.08,0.59117,3.103,0.090671,0.088522,0,0,0
213.58,0.59328,3.1047,0.090794,0.088829,0,0,0
214.08,0.5953,3.1063,0.091039,0.089137,0,0,0
214.58,0.59708,3.108,0.091315,0.089259,0,0,0
215.08,0.59906,3.11,0.091406,0.089597,0,0,0
215.58,0.60101,3.112,0.091744,0.089597,0,0,0
216.08,0.60275,3.114,0.091927,0.089904,0,0,0
216.58,0.60463,3.116,0.091989,0.090149,0,0,0
217.08,0.60641,3.1177,0.092387,0.090333,0,0,0
217.58,0.60799,3.1193,0.092693,0.090609,0,0,0
218.08,0.6096,3.121,0.092968,0.090855,0,0,0
218.58,0.61158,3.123,0.093244,0.091069,0,0,0
219.08,0.61343,3.125,0.093519,0.091253,0,0,0
219.58,0.61528,3.127,0.093794,0.091528,0,0,0
220.08,0.61729,3.1287,0.093886,0.091621,0,0,0
220.58,0.61924,3.1303,0.094405,0.092142,0,0,0
221.08,0.62138,3.132,0.094527,0.092356,0,0,0
221.58,0.62313,3.1337,0.094863,0.092661,0,0,0
222.08,0.62488,3.1356,0.095168,0.092875,0,0,0
222.58,0.62689,3.1374,0.095351,0.093151,0,0,0
223.08,0.62854,3.1393,0.095626,0.093396,0,0,0
223.58,0.63028,3.141,0.095809,0.093518,0,0,0
224.08,0.63193,3.143,0.095962,0.093702,0,0,0
224.58,0.6336,3.145,0.096175,0.094007,0,0,0
225.08,0.63555,3.1467,0.09645,0.094282,0,0,0
225.58,0.63703,3.1483,0.096815,0.094373,0,0,0
226.08,0.63904,3.1497,0.096815,0.09474,0,0,0
226.58,0.64099,3.1516,0.097029,0.09474,0,0,0
227.08,0.6429,3.1534,0.097364,0.094924,0,0,0
227.58,0.64472,3.1553,0.097577,0.095259,0,0,0
228.08,0.64673,3.157,0.09779,0.095686,0,0,0
228.58,0.64848,3.1587,0.098065,0.095747,0,0,0
229.08,0.65019,3.1603,0.098399,0.096053,0,0,0
229.58,0.65194,3.162,0.098551,0.096174,0,0,0
230.08,0.65372,3.164,0.098946,0.09654,0,0,0
230.58,0.65529,3.1657,0.09922,0.096784,0,0,0
231.08,0.657,3.1673,0.099524,0.096997,0,0,0
231.58,0.65872,3.169,0.099524,0.097393,0,0,0
232.08,0.66053,3.171,0.10019,0.097637,0,0,0
232.58,0.66238,3.173,0.10013,0.09782,0,0,0
233.08,0.66412,3.1747,0.10047,0.098002,0,0,0
233.58,0.6662,3.1763,0.10065,0.09852,0,0,0
234.08,0.66818,3.178,0.10089,0.09855,0,0,0
234.58,0.67017,3.18,0.10129,0.098702,0,0,0
235.08,0.67194,3.1817,0.10147,0.099067,0,0,0
235.58,0.67369,3.1833,0.10189,0.099402,0,0,0
236.08,0.67537,3.1847,0.10183,0.099462,0,0,0
236.58,0.67732,3.1863,0.10213,0.099736,0,0,0
237.08,0.67886,3.188,0.1025,0.099888,0,0,0
237.58,0.68067,3.19,0.10271,0.099979,0,0,0
238.08,0.68239,3.1917,0.10295,0.10031,0,0,0
238.58,0.68433,3.1933,0.10347,0.10059,0,0,0
239.08,0.68631,3.1947,0.10362,0.10092,0,0,0
239.58,0.68809,3.1963,0.10371,0.10125,0,0,0
240.08,0.69014,3.198,0.1041,0.10147,0,0,0
240.58,0.69205,3.1997,0.10434,0.10186,0,0,0
241.08,0.6938,3.2016,0.10456,0.10192,0,0,0
241.58,0.69568,3.2037,0.10495,0.10213,0,0,0
242.08,0.69769,3.2057,0.10507,0.10253,0,0,0
242.58,0.69937,3.2073,0.10531,0.10274,0,0,0
243.08,0.70115,3.2087,0.1057,0.10304,0,0,0
243.58,0.703,3.2103,0.10586,0.10338,0,0,0
244.08,0.70461,3.212,0.10622,0.10371,0,0,0
244.58,0.70649,3.214,0.10649,0.10377,0,0,0
245.08,0.7084,3.2157,0.10667,0.10383,0,0,0
245.58,0.71032,3.2173,0.10694,0.10452,0,0,0
246.08,0.71216,3.2187,0.10733,0.1044,0,0,0
246.58,0.71418,3.2203,0.10758,0.10474,0,0,0
247.08,0.71629,3.2217,0.10782,0.10495,0,0,0
247.58,0.71801,3.2233,0.10824,0.10513,0,0,0
248.08,0.72005,3.225,0.10845,0.1054,0,0,0
248.58,0.72146,3.2267,0.10851,0.10567,0,0,0
249.09,0.72311,3.2283,0.10884,0.10576,0,0,0
249.58,0.72512,3.23,0.10905,0.10613,0,0,0
250.08,0.72667,3.2317,0.10953,0.10646,0,0,0
250.58,0.72845,3.2333,0.10953,0.10673,0,0,0
251.08,0.73019,3.235,0.10971,0.107,0,0,0
251.58,0.73197,3.2367,0.10998,0.1073,0,0,0
252.08,0.73358,3.2383,0.11038,0.10755,0,0,0
252.58,0.7355,3.2397,0.11047,0.10776,0,0,0
253.08,0.73754,3.2413,0.11092,0.10803,0,0,0
253.58,0.73952,3.2427,0.1111,0.10845,0,0,0
254.08,0.74114,3.2443,0.11152,0.10857,0,0,0
254.58,0.74302,3.246,0.11173,0.10884,0,0,0
255.08,0.7448,3.248,0.112,0.10932,0,0,0
255.58,0.74654,3.2497,0.11221,0.10947,0,0,0
256.08,0.74815,3.2513,0.1126,0.10956,0,0,0
256.58,0.74987,3.2527,0.11287,0.10986,0,0,0
257.08,0.75178,3.2543,0.11296,0.10989,0,0,0
257.58,0.75346,3.2557,0.11341,0.11028,0,0,0
258.08,0.75514,3.2573,0.11359,0.11058,0,0,0
258.58,0.75695,3.259,0.11395,0.11077,0,0,0
259.08,0.75906,3.2607,0.11404,0.1111,0,0,0
259.58,0.76064,3.2623,0.11428,0.11119,0,0,0
260.08,0.76259,3.264,0.11461,0.11149,0,0,0
260.58,0.76494,3.2657,0.11476,0.11176,0,0,0
261.08,0.76621,3.2673,0.11499,0.11212,0,0,0
261.58,0.76836,3.2687,0.11514,0.1123,0,0,0
262.08,0.77001,3.27,0.11544,0.11272,0,0,0
262.58,0.77172,3.2713,0.11568,0.11287,0,0,0
263.08,0.77347,3.273,0.11598,0.11311,0,0,0
263.58,0.77521,3.275,0.11622,0.11344,0,0,0
264.08,0.77686,3.2767,0.11655,0.11368,0,0,0
264.58,0.77877,3.278,0.11697,0.11404,0,0,0
265.08,0.78042,3.2793,0.11712,0.11425,0,0,0
265.58,0.78246,3.281,0.11733,0.11454,0,0,0
266.08,0.78431,3.2827,0.11774,0.11475,0,0,0
266.58,0.78636,3.2843,0.11801,0.11493,0,0,0
267.08,0.78804,3.286,0.11822,0.11508,0,0,0
267.58,0.78985,3.2877,0.11858,0.1155,0,0,0
268.08,0.79173,3.2893,0.1187,0.11586,0,0,0
268.58,0.79351,3.291,0.11891,0.11589,0,0,0
269.08,0.79509,3.2927,0.11926,0.11607,0,0,0
269.58,0.79707,3.294,0.11926,0.11658,0,0,0
270.08,0.79875,3.295,0.11962,0.11667,0,0,0
270.58,0.80053,3.2963,0.11989,0.11697,0,0,0
271.08,0.80204,3.298,0.12001,0.11729,0,0,0
271.58,0.80405,3.3,0.12016,0.11753,0,0,0
272.08,0.80586,3.3017,0.12072,0.11771,0,0,0
272.58,0.80781,3.303,0.12084,0.11831,0,0,0
273.08,0.80959,3.304,0.12129,0.11831,0,0,0
273.58,0.8113,3.3056,0.12135,0.11861,0,0,0
274.08,0.81322,3.3074,0.12197,0.11885,0,0,0
274.58,0.81506,3.3093,0.12206,0.11929,0,0,0
275.08,0.81681,3.3107,0.12233,0.11956,0,0,0
275.58,0.81852,3.312,0.1226,0.11971,0,0,0
276.08,0.82023,3.3133,0.12295,0.12013,0,0,0
276.58,0.82211,3.315,0.12313,0.12037,0,0,0
277.08,0.82379,3.3167,0.12352,0.12051,0,0,0
277.58,0.82537,3.3183,0.12361,0.12078,0,0,0
278.08,0.82715,3.3197,0.12387,0.12117,0,0,0
278.58,0.82903,3.3213,0.1242,0.12126,0,0,0
279.08,0.83114,3.3227,0.12441,0.12156,0,0,0
279.58,0.83289,3.3243,0.12452,0.12185,0,0,0
280.08,0.83487,3.3257,0.125,0.12197,0,0,0
280.58,0.83661,3.3273,0.12512,0.12245,0,0,0
281.08,0.83866,3.3287,0.1255,0.12265,0,0,0
281.58,0.84024,3.3303,0.12571,0.12307,0,0,0
282.08,0.84199,3.3317,0.12615,0.12322,0,0,0
282.58,0.8439,3.3333,0.12648,0.12363,0,0,0
283.08,0.84551,3.3347,0.12675,0.1239,0,0,0
283.58,0.84732,3.3363,0.1271,0.12426,0,0,0
284.08,0.84927,3.3377,0.12743,0.12429,0,0,0
284.58,0.85102,3.3393,0.12763,0.12467,0,0,0
285.08,0.85286,3.3407,0.12805,0.12491,0,0,0
285.58,0.85515,3.342,0.12813,0.12544,0,0,0
286.08,0.85693,3.3433,0.12852,0.12559,0,0,0
286.58,0.85877,3.345,0.1287,0.12574,0,0,0
287.08,0.86096,3.3467,0.12899,0.12624,0,0,0
287.58,0.8627,3.348,0.12914,0.1263,0,0,0
288.08,0.86445,3.3493,0.12937,0.12663,0,0,0
288.58,0.86633,3.3507,0.12964,0.12692,0,0,0
289.08,0.86794,3.352,0.13002,0.12725,0,0,0
289.58,0.86999,3.3533,0.13008,0.1274,0,0,0
290.08,0.87156,3.3547,0.13049,0.12763,0,0,0
290.58,0.87304,3.3563,0.13076,0.1279,0,0,0
291.08,0.87509,3.358,0.13111,0.12822,0,0,0
291.58,0.87687,3.3597,0.13135,0.12855,0,0,0
292.08,0.87868,3.3613,0.13191,0.1289,0,0,0
292.58,0.88096,3.363,0.13208,0.12908,0,0,0
293.08,0.88281,3.3647,0.13241,0.12943,0,0,0
293.58,0.88459,3.366,0.13258,0.12973,0,0,0
294.08,0.88637,3.3673,0.13308,0.13017,0,0,0
294.58,0.88818,3.3687,0.13341,0.13035,0,0,0
295.08,0.88986,3.3703,0.13353,0.13055,0,0,0
295.58,0.89154,3.3717,0.13391,0.13097,0,0,0
296.08,0.89338,3.373,0.13414,0.13141,0,0,0
296.58,0.89506,3.374,0.13446,0.13152,0,0,0
297.08,0.89684,3.3753,0.13461,0.13164,0,0,0
297.58,0.89879,3.3767,0.13479,0.13185,0,0,0
298.08,0.90057,3.3783,0.1352,0.13208,0,0,0
298.58,0.90242,3.3797,0.13526,0.13238,0,0,0
299.08,0.90383,3.3813,0.13561,0.13267,0,0,0
299.58,0.90611,3.3827,0.13587,0.13291,0,0,0
300.08,0.90785,3.384,0.13628,0.13314,0,0,0
300.58,0.90994,3.3853,0.13652,0.13349,0,0,0
301.08,0.91158,3.3867,0.13693,0.13391,0,0,0
301.58,0.91326,3.3883,0.1371,0.13391,0,0,0
302.08,0.91494,3.3897,0.1376,0.13441,0,0,0
302.58,0.91662,3.391,0.13801,0.13487,0,0,0
303.08,0.91853,3.3923,0.13819,0.13496,0,0,0
303.58,0.92021,3.394,0.13859,0.1354,0,0,0
304.08,0.92195,3.3957,0.13865,0.13549,0,0,0
304.58,0.92373,3.397,0.13906,0.13599,0,0,0
305.08,0.92592,3.3983,0.13924,0.13619,0,0,0
305.58,0.92753,3.3997,0.13947,0.13643,0,0,0
306.08,0.92968,3.4013,0.13973,0.13675,0,0,0
306.58,0.93149,3.4027,0.14008,0.13701,0,0,0
307.08,0.93307,3.404,0.14043,0.13728,0,0,0
307.58,0.93518,3.4053,0.14072,0.13751,0,0,0
308.08,0.937,3.4067,0.14081,0.13769,0,0,0
308.58,0.93861,3.408,0.14113,0.13804,0,0,0
309.08,0.94032,3.4093,0.14148,0.13821,0,0,0
309.58,0.94196,3.4107,0.14163,0.13842,0,0,0
310.08,0.94395,3.412,0.14212,0.13897,0,0,0
310.58,0.94562,3.4133,0.14253,0.13912,0,0,0
311.08,0.94777,3.4147,0.14279,0.13935,0,0,0
311.58,0.94948,3.4163,0.14326,0.13967,0,0,0
312.08,0.95123,3.4177,0.14346,0.14005,0,0,0
312.58,0.95334,3.419,0.14358,0.14032,0,0,0
313.08,0.95499,3.42,0.14396,0.14064,0,0,0
313.58,0.9566,3.4213,0.14422,0.14102,0,0,0
314.08,0.95848,3.423,0.14445,0.14131,0,0,0
314.58,0.96026,3.4247,0.14483,0.1416,0,0,0
315.08,0.96241,3.426,0.14521,0.14195,0,0,0
315.58,0.96385,3.4273,0.14535,0.14224,0,0,0
316.08,0.96557,3.4287,0.1457,0.14247,0,0,0
316.58,0.96718,3.4303,0.14602,0.14294,0,0,0
317.08,0.96912,3.4317,0.14637,0.14306,0,0,0
317.58,0.97097,3.433,0.1466,0.14349,0,0,0
318.08,0.97272,3.4343,0.14712,0.14355,0,0,0
318.58,0.9746,3.4357,0.14727,0.14387,0,0,0
319.08,0.97641,3.437,0.14756,0.14425,0,0,0
319.58,0.97862,3.4383,0.1479,0.1446,0,0,0
320.08,0.98034,3.4397,0.14825,0.14506,0,0,0
320.58,0.98215,3.441,0.14857,0.14521,0,0,0
321.08,0.98413,3.442,0.14897,0.14553,0,0,0
321.58,0.98551,3.4433,0.14906,0.14584,0,0,0
322.08,0.98725,3.4447,0.14932,0.14608,0,0,0
322.58,0.9891,3.446,0.14978,0.14631,0,0,0
323.08,0.99058,3.4473,0.1501,0.14672,0,0,0
323.58,0.99242,3.4487,0.15019,0.14706,0,0,0
324.08,0.99464,3.45,0.15059,0.14741,0,0,0
324.58,0.99645,3.4513,0.15094,0.14755,0,0,0
325.08,0.99847,3.4527,0.15134,0.14799,0,0,0
325.58,1.0002,3.4543,0.15172,0.14819,0,0,0
326.08,1.002,3.4557,0.15183,0.14851,0,0,0
326.58,1.0039,3.457,0.15227,0.14897,0,0,0
327.08,1.0049,3.458,0.15261,0.14926,0,0,0
327.58,1.0073,3.4593,0.15319,0.1497,0,0,0
328.08,1.0093,3.4607,0.15342,0.1499,0,0,0
328.58,1.0112,3.4623,0.15371,0.15036,0,0,0
329.08,1.0125,3.4634,0.15411,0.15053,0,0,0
329.58,1.0145,3.4646,0.15428,0.15088,0,0,0
330.08,1.0164,3.4657,0.15463,0.15114,0,0,0
330.58,1.0184,3.467,0.15497,0.15146,0,0,0
331.08,1.0201,3.4683,0.15523,0.15169,0,0,0
331.58,1.0221,3.4697,0.15555,0.15209,0,0,0
332.08,1.024,3.471,0.15558,0.15229,0,0,0
332.58,1.0258,3.4723,0.15621,0.1527,0,0,0
333.08,1.0276,3.4737,0.15632,0.15293,0,0,0
333.58,1.0294,3.475,0.1567,0.1531,0,0,0
334.08,1.0313,3.476,0.15678,0.15356,0,0,0
334.58,1.0334,3.4773,0.15721,0.15376,0,0,0
335.08,1.0346,3.4787,0.15759,0.15417,0,0,0
335.58,1.0365,3.48,0.15799,0.15431,0,0,0
336.08,1.0384,3.4813,0.15822,0.15468,0,0,0
336.58,1.0401,3.4827,0.15865,0.155,0,0,0
337.08,1.042,3.484,0.15899,0.15526,0,0,0
337.58,1.0434,3.485,0.15933,0.1556,0,0,0
338.08,1.0456,3.4863,0.15982,0.15603,0,0,0
338.58,1.0474,3.4877,0.16005,0.15655,0,0,0
339.08,1.0492,3.489,0.16042,0.15684,0,0,0
339.58,1.0511,3.49,0.16056,0.15713,0,0,0
340.08,1.0528,3.4913,0.16088,0.15747,0,0,0
340.58,1.0548,3.4927,0.16102,0.15781,0,0,0
341.08,1.0562,3.4943,0.16145,0.15781,0,0,0
341.58,1.058,3.4954,0.16174,0.15822,0,0,0
342.08,1.0598,3.4966,0.16205,0.15847,0,0,0
342.58,1.0616,3.4977,0.16236,0.1585,0,0,0
343.08,1.0633,3.499,0.16256,0.15882,0,0,0
343.58,1.0649,3.5003,0.16316,0.15896,0,0,0
344.08,1.0669,3.5017,0.16325,0.1595,0,0,0
344.58,1.0686,3.503,0.16356,0.15968,0,0,0
345.08,1.0703,3.504,0.16405,0.16002,0,0,0
345.58,1.0722,3.5053,0.16422,0.16022,0,0,0
346.08,1.0742,3.5067,0.16479,0.16071,0,0,0
346.58,1.0758,3.508,0.1649,0.16111,0,0,0
347.08,1.0778,3.509,0.16536,0.16148,0,0,0
347.58,1.0794,3.51,0.16587,0.16176,0,0,0
348.08,1.0812,3.5113,0.1659,0.16208,0,0,0
348.58,1.083,3.5127,0.16627,0.16239,0,0,0
349.08,1.0851,3.514,0.16669,0.16279,0,0,0
349.58,1.0865,3.515,0.1672,0.16333,0,0,0
350.08,1.0885,3.5163,0.16729,0.16345,0,0,0
350.58,1.0904,3.5177,0.1676,0.16393,0,0,0
351.08,1.0921,3.519,0.16774,0.16419,0,0,0
351.58,1.0941,3.5203,0.16823,0.16436,0,0,0
352.08,1.096,3.5217,0.16857,0.16467,0,0,0
352.58,1.0979,3.523,0.16908,0.16487,0,0,0
353.08,1.0995,3.5243,0.16916,0.1651,0,0,0
353.58,1.1016,3.5257,0.1697,0.16538,0,0,0
354.08,1.1033,3.527,0.16984,0.16578,0,0,0
354.58,1.1049,3.528,0.17032,0.16609,0,0,0
355.08,1.1068,3.529,0.17046,0.16646,0,0,0
355.58,1.1085,3.53,0.17089,0.16669,0,0,0
356.08,1.1105,3.531,0.17143,0.16723,0,0,0
356.58,1.1123,3.532,0.17177,0.16769,0,0,0
357.08,1.1141,3.5333,0.1723,0.16797,0,0,0
357.58,1.1159,3.5344,0.17244,0.16845,0,0,0
358.08,1.1177,3.5356,0.17267,0.16874,0,0,0
358.58,1.1195,3.5367,0.17295,0.16933,0,0,0
359.08,1.1217,3.538,0.17329,0.16944,0,0,0
359.58,1.1235,3.5393,0.17363,0.16984,0,0,0
360.08,1.1249,3.5407,0.17394,0.17021,0,0,0
360.58,1.1268,3.542,0.17431,0.17058,0,0,0
361.08,1.1286,3.543,0.17487,0.17066,0,0,0
361.58,1.1301,3.544,0.17512,0.171,0,0,0
362.08,1.1321,3.545,0.17535,0.17126,0,0,0
362.58,1.1339,3.5463,0.1758,0.17154,0,0,0
363.08,1.1359,3.5477,0.17625,0.17194,0,0,0
363.58,1.1375,3.549,0.17648,0.17242,0,0,0
364.08,1.1396,3.55,0.17696,0.17247,0,0,0
364.58,1.1414,3.551,0.17738,0.17292,0,0,0
365.08,1.1431,3.5523,0.1776,0.17326,0,0,0
365.58,1.1449,3.5537,0.17814,0.17349,0,0,0
366.08,1.1469,3.555,0.17833,0.1738,0,0,0
366.58,1.1487,3.556,0.1787,0.17431,0,0,0
367.08,1.1503,3.557,0.17903,0.17464,0,0,0
367.58,1.1521,3.558,0.17929,0.17512,0,0,0
368.08,1.1537,3.559,0.17988,0.17555,0,0,0
368.58,1.1559,3.5603,0.18002,0.17577,0,0,0
369.08,1.1576,3.5617,0.18035,0.17628,0,0,0
369.58,1.1594,3.563,0.18091,0.17656,0,0,0
370.08,1.1611,3.564,0.18122,0.17693,0,0,0
370.58,1.1632,3.565,0.18139,0.17718,0,0,0
371.08,1.1652,3.5663,0.18195,0.17754,0,0,0
371.58,1.1671,3.5677,0.18217,0.17805,0,0,0
372.08,1.169,3.569,0.1827,0.17847,0,0,0
372.58,1.1707,3.57,0.18296,0.17864,0,0,0
373.08,1.1724,3.571,0.18343,0.17895,0,0,0
373.58,1.1744,3.572,0.18363,0.17915,0,0,0
374.08,1.1759,3.573,0.18419,0.17959,0,0,0
374.58,1.1777,3.574,0.18438,0.17988,0,0,0
375.08,1.1798,3.575,0.18469,0.18027,0,0,0
375.58,1.1814,3.5763,0.18519,0.18066,0,0,0
376.08,1.183,3.5777,0.18555,0.18086,0,0,0
376.58,1.1852,3.579,0.18592,0.1813,0,0,0
377.08,1.187,3.58,0.18619,0.18161,0,0,0
377.58,1.1889,3.581,0.18678,0.18195,0,0,0
378.08,1.1906,3.582,0.18709,0.18245,0,0,0
378.58,1.1925,3.5833,0.18736,0.18268,0,0,0
379.08,1.1945,3.5847,0.18764,0.18318,0,0,0
379.58,1.1961,3.586,0.18814,0.18335,0,0,0
380.08,1.198,3.587,0.1885,0.18382,0,0,0
380.58,1.1995,3.588,0.18878,0.18421,0,0,0
381.08,1.2015,3.589,0.18912,0.18477,0,0,0
381.58,1.2033,3.59,0.18939,0.18499,0,0,0
382.08,1.2051,3.591,0.18998,0.18544,0,0,0
382.58,1.2069,3.592,0.19017,0.18569,0,0,0
383.08,1.2086,3.593,0.19067,0.1863,0,0,0
383.58,1.2103,3.5943,0.19092,0.18642,0,0,0
384.08,1.2124,3.5957,0.19134,0.18683,0,0,0
384.58,1.2143,3.597,0.19181,0.18717,0,0,0
385.08,1.216,3.598,0.19217,0.18739,0,0,0
385.58,1.2176,3.599,0.19261,0.18773,0,0,0
386.08,1.2195,3.6,0.19272,0.188,0,0,0
386.58,1.2215,3.601,0.19314,0.18836,0,0,0
387.08,1.2231,3.6023,0.19383,0.1887,0,0,0
387.58,1.2252,3.6037,0.19402,0.18903,0,0,0
388.08,1.2268,3.6047,0.19455,0.18942,0,0,0
388.58,1.2287,3.6056,0.19502,0.18973,0,0,0
389.08,1.2302,3.6067,0.19532,0.19025,0,0,0
389.58,1.2323,3.608,0.19579,0.19053,0,0,0
390.08,1.2344,3.609,0.19618,0.19097,0,0,0
390.58,1.2361,3.61,0.19648,0.19156,0,0,0
391.08,1.2377,3.611,0.19695,0.19195,0,0,0
391.58,1.2399,3.612,0.19725,0.19228,0,0,0
392.08,1.2416,3.613,0.19767,0.19264,0,0,0
392.58,1.2431,3.614,0.19778,0.19305,0,0,0
393.08,1.2455,3.6153,0.19819,0.19341,0,0,0
393.58,1.2469,3.6167,0.1986,0.19383,0,0,0
394.08,1.2489,3.618,0.19913,0.19391,0,0,0
394.58,1.2505,3.619,0.19948,0.1943,0,0,0
395.08,1.2523,3.62,0.19992,0.19474,0,0,0
395.58,1.2543,3.621,0.20034,0.1951,0,0,0
396.08,1.2559,3.622,0.20053,0.19546,0,0,0
396.58,1.2583,3.623,0.20116,0.19587,0,0,0
397.08,1.2601,3.624,0.20176,0.19623,0,0,0
397.58,1.2617,3.625,0.2019,0.19648,0,0,0
398.08,1.2637,3.6263,0.20264,0.19692,0,0,0
398.58,1.2655,3.6274,0.20291,0.19744,0,0,0
399.08,1.2676,3.6283,0.20338,0.19777,0,0,0
399.58,1.2694,3.6293,0.20376,0.19813,0,0,0
400.08,1.271,3.6307,0.20409,0.1986,0,0,0
400.58,1.2731,3.6317,0.20448,0.1989,0,0,0
401.08,1.2748,3.6323,0.20483,0.19934,0,0,0
401.58,1.2769,3.633,0.20538,0.19967,0,0,0
402.08,1.2786,3.6343,0.20562,0.2002,0,0,0
402.58,1.2805,3.6357,0.20617,0.20075,0,0,0
403.08,1.2826,3.637,0.20653,0.20097,0,0,0
403.58,1.2844,3.638,0.20702,0.20135,0,0,0
404.08,1.2862,3.639,0.20724,0.20195,0,0,0
404.58,1.288,3.64,0.20781,0.20217,0,0,0
405.08,1.2898,3.641,0.20811,0.20269,0,0,0
405.58,1.2917,3.642,0.20879,0.20305,0,0,0
406.08,1.2934,3.643,0.20914,0.2036,0,0,0
406.58,1.2954,3.644,0.20958,0.2039,0,0,0
407.08,1.2971,3.6453,0.21026,0.20439,0,0,0
407.58,1.299,3.6467,0.21042,0.20491,0,0,0
408.08,1.301,3.648,0.21089,0.20529,0,0,0
408.58,1.3028,3.649,0.21132,0.20557,0,0,0
409.08,1.3048,3.6497,0.21189,0.20598,0,0,0
409.58,1.3067,3.6503,0.21203,0.20641,0,0,0
410.08,1.3083,3.6513,0.21265,0.20682,0,0,0
410.58,1.3102,3.6527,0.21314,0.2071,0,0,0
411.08,1.3121,3.654,0.21349,0.20767,0,0,0
411.58,1.3142,3.655,0.21384,0.208,0,0,0
412.08,1.3162,3.6557,0.21425,0.20857,0,0,0
412.58,1.318,3.6563,0.21471,0.20892,0,0,0
413.08,1.3198,3.6573,0.21525,0.20928,0,0,0
413.58,1.3216,3.6587,0.21566,0.20974,0,0,0
414.08,1.3235,3.66,0.21601,0.21034,0,0,0
414.58,1.3254,3.6607,0.21663,0.2108,0,0,0
415.08,1.3274,3.6613,0.21693,0.21116,0,0,0
415.58,1.3294,3.6623,0.21758,0.2114,0,0,0
416.08,1.3311,3.6637,0.21804,0.21197,0,0,0
416.58,1.3332,3.665,0.21833,0.21227,0,0,0
417.08,1.3348,3.6657,0.21895,0.21281,0,0,0
417.58,1.3368,3.6663,0.21944,0.21327,0,0,0
418.08,1.3391,3.667,0.21957,0.21365,0,0,0
418.58,1.3409,3.6683,0.22022,0.21409,0,0,0
419.08,1.3426,3.6694,0.22057,0.21449,0,0,0
419.58,1.3447,3.6703,0.22106,0.21514,0,0,0
420.08,1.3464,3.6713,0.22149,0.21552,0,0,0
420.58,1.3485,3.6727,0.22194,0.21585,0,0,0
421.08,1.3503,3.674,0.22245,0.21642,0,0,0
421.58,1.352,3.675,0.22294,0.2169,0,0,0
422.08,1.354,3.676,0.22353,0.2172,0,0,0
422.58,1.3561,3.677,0.22399,0.21782,0,0,0
423.08,1.3578,3.678,0.22441,0.21814,0,0,0
423.58,1.3596,3.679,0.22506,0.21866,0,0,0
424.08,1.3617,3.68,0.22519,0.21895,0,0,0
424.58,1.3637,3.681,0.22586,0.21952,0,0,0
425.08,1.3655,3.682,0.22626,0.22003,0,0,0
425.58,1.3674,3.6827,0.22645,0.22041,0,0,0
426.08,1.3691,3.6833,0.22712,0.22079,0,0,0
426.58,1.3712,3.684,0.22752,0.22124,0,0,0
427.08,1.373,3.6853,0.2279,0.22159,0,0,0
427.58,1.3749,3.6864,0.22843,0.22205,0,0,0
428.08,1.3769,3.6873,0.22894,0.2227,0,0,0
428.58,1.3789,3.688,0.22944,0.22307,0,0,0
429.08,1.3807,3.689,0.23006,0.22331,0,0,0
429.58,1.3827,3.69,0.23017,0.22396,0,0,0
430.08,1.3844,3.6913,0.23078,0.22444,0,0,0
430.58,1.3866,3.6924,0.23134,0.2249,0,0,0
431.08,1.3884,3.6936,0.23168,0.2253,0,0,0
431.58,1.3903,3.6947,0.23248,0.22599,0,0,0
432.08,1.392,3.696,0.23299,0.22653,0,0,0
432.58,1.394,3.697,0.23344,0.22693,0,0,0
433.08,1.396,3.6977,0.23387,0.22728,0,0,0
433.58,1.3978,3.6983,0.23432,0.22776,0,0,0
434.08,1.4,3.699,0.23493,0.2283,0,0,0
434.58,1.4015,3.7,0.23533,0.22875,0,0,0
435.08,1.4036,3.701,0.2358,0.22928,0,0,0
435.58,1.4057,3.702,0.23633,0.22974,0,0,0
436.08,1.4077,3.7027,0.23692,0.23022,0,0,0
436.58,1.4097,3.7033,0.2375,0.23072,0,0,0
437.08,1.4117,3.704,0.23798,0.23112,0,0,0
437.58,1.4134,3.705,0.23858,0.23163,0,0,0
438.08,1.4153,3.7063,0.2388,0.23219,0,0,0
438.58,1.4175,3.7077,0.23935,0.23277,0,0,0
439.08,1.419,3.709,0.24009,0.23299,0,0,0
439.58,1.4211,3.7097,0.24049,0.23373,0,0,0
440.08,1.423,3.7106,0.24107,0.23402,0,0,0
440.58,1.4249,3.7117,0.2417,0.23479,0,0,0
441.08,1.427,3.7127,0.24207,0.23514,0,0,0
441.58,1.429,3.7133,0.2427,0.23543,0,0,0
442.08,1.4313,3.7137,0.2432,0.23591,0,0,0
442.58,1.4331,3.7146,0.24365,0.23641,0,0,0
443.08,1.4349,3.7157,0.24431,0.237,0,0,0
443.58,1.4368,3.7167,0.2446,0.23729,0,0,0
444.08,1.4389,3.7173,0.24523,0.23774,0,0,0
444.58,1.4406,3.718,0.24573,0.23829,0,0,0
445.08,1.4427,3.719,0.24646,0.23879,0,0,0
445.58,1.4446,3.72,0.24717,0.23935,0,0,0
446.08,1.4467,3.721,0.24743,0.23988,0,0,0
446.58,1.4484,3.722,0.24788,0.24038,0,0,0
447.08,1.4503,3.723,0.24856,0.24109,0,0,0
447.58,1.4525,3.724,0.249,0.24162,0,0,0
448.08,1.4544,3.725,0.2496,0.24215,0,0,0
448.58,1.4564,3.726,0.2501,0.24265,0,0,0
449.08,1.4583,3.727,0.25075,0.24307,0,0,0
449.58,1.4603,3.728,0.25107,0.24367,0,0,0
450.08,1.4623,3.7287,0.25177,0.24428,0,0,0
450.58,1.464,3.7293,0.2525,0.24467,0,0,0
451.08,1.4663,3.73,0.25326,0.24517,0,0,0
451.58,1.468,3.731,0.25399,0.24562,0,0,0
452.08,1.4701,3.732,0.25433,0.2462,0,0,0
452.58,1.4722,3.733,0.25487,0.24646,0,0,0
453.08,1.474,3.7337,0.25552,0.24696,0,0,0
453.58,1.4761,3.7346,0.25628,0.24769,0,0,0
454.08,1.478,3.7354,0.25669,0.24803,0,0,0
454.58,1.48,3.7363,0.25729,0.24835,0,0,0
455.08,1.4819,3.737,0.25778,0.24905,0,0,0
455.58,1.484,3.738,0.25841,0.24952,0,0,0
456.08,1.4848,3.739,0.25874,0.25007,0,0,0
456.58,1.4879,3.74,0.25921,0.25081,0,0,0
457.08,1.4898,3.741,0.25988,0.25159,0,0,0
457.58,1.4917,3.742,0.2604,0.25193,0,0,0
458.08,1.4941,3.743,0.26097,0.25271,0,0,0
458.58,1.4956,3.7437,0.26169,0.253,0,0,0
459.08,1.4979,3.7443,0.26226,0.25375,0,0,0
459.58,1.4998,3.745,0.26293,0.25422,0,0,0
460.08,1.5019,3.746,0.26381,0.25492,0,0,0
460.58,1.5041,3.7467,0.2644,0.25568,0,0,0
461.08,1.5061,3.7473,0.26525,0.25609,0,0,0
461.58,1.5081,3.748,0.26577,0.25674,0,0,0
462.08,1.5101,3.749,0.26654,0.25739,0,0,0
462.58,1.5122,3.7497,0.26711,0.25786,0,0,0
463.08,1.5139,3.7503,0.26772,0.25828,0,0,0
463.58,1.516,3.751,0.26813,0.25877,0,0,0
464.08,1.518,3.752,0.26865,0.25949,0,0,0
464.58,1.5202,3.7533,0.26931,0.25991,0,0,0
465.08,1.5221,3.7544,0.26978,0.26066,0,0,0
465.58,1.5242,3.7556,0.27034,0.26123,0,0,0
466.08,1.5265,3.7564,0.27103,0.26185,0,0,0
466.58,1.5285,3.7573,0.27185,0.26257,0,0,0
467.08,1.5304,3.758,0.27241,0.26314,0,0,0
467.58,1.5326,3.7587,0.27318,0.26358,0,0,0
468.08,1.5344,3.7593,0.27397,0.26435,0,0,0
468.58,1.5367,3.76,0.27463,0.2651,0,0,0
469.08,1.5387,3.761,0.27555,0.26564,0,0,0
469.58,1.5408,3.762,0.27629,0.26631,0,0,0
470.08,1.543,3.763,0.27705,0.26695,0,0,0
470.58,1.5451,3.7637,0.27761,0.26759,0,0,0
471.08,1.5472,3.7643,0.27822,0.26829,0,0,0
471.58,1.5494,3.765,0.27878,0.26862,0,0,0
472.08,1.5515,3.7657,0.27954,0.26939,0,0,0
472.58,1.5534,3.7663,0.28015,0.26998,0,0,0
473.08,1.5557,3.767,0.28071,0.2708,0,0,0
473.58,1.5578,3.768,0.28127,0.27116,0,0,0
474.08,1.5599,3.769,0.28198,0.27205,0,0,0
474.58,1.5618,3.77,0.28309,0.27282,0,0,0
475.08,1.564,3.7707,0.28355,0.27341,0,0,0
475.58,1.5661,3.7713,0.28458,0.2743,0,0,0
476.08,1.5683,3.772,0.28537,0.27496,0,0,0
476.58,1.5704,3.7727,0.28615,0.27563,0,0,0
477.08,1.5726,3.7733,0.28695,0.27629,0,0,0
477.58,1.5747,3.774,0.28761,0.27695,0,0,0
478.08,1.5769,3.775,0.28839,0.27774,0,0,0
478.58,1.579,3.7757,0.28899,0.27835,0,0,0
479.08,1.581,3.7763,0.28965,0.27893,0,0,0
479.58,1.583,3.777,0.29022,0.2799,0,0,0
480.08,1.5853,3.778,0.29098,0.28048,0,0,0
480.58,1.5874,3.779,0.29168,0.28102,0,0,0
481.08,1.5896,3.7797,0.29238,0.28167,0,0,0
481.58,1.5919,3.7803,0.29331,0.28238,0,0,0
482.08,1.5941,3.781,0.29378,0.28307,0,0,0
482.58,1.5962,3.782,0.29486,0.28385,0,0,0
483.08,1.5983,3.7827,0.29564,0.28468,0,0,0
483.58,1.6003,3.7833,0.29651,0.28526,0,0,0
484.08,1.6027,3.784,0.29718,0.28592,0,0,0
484.58,1.6049,3.7847,0.29776,0.28668,0,0,0
485.08,1.6071,3.7853,0.2988,0.28731,0,0,0
485.58,1.609,3.7857,0.29955,0.28836,0,0,0
486.08,1.6115,3.7863,0.30027,0.28892,0,0,0
486.58,1.6136,3.787,0.30109,0.2897,0,0,0
487.08,1.6157,3.788,0.30191,0.2906,0,0,0
487.58,1.6179,3.7887,0.3027,0.29148,0,0,0
488.08,1.62,3.7893,0.30345,0.29208,0,0,0
488.58,1.6222,3.79,0.30419,0.29286,0,0,0
489.08,1.6244,3.7907,0.30501,0.29368,0,0,0
489.58,1.6264,3.7913,0.30585,0.29456,0,0,0
490.08,1.6288,3.792,0.30644,0.29536,0,0,0
490.58,1.631,3.793,0.30755,0.29601,0,0,0
491.08,1.6329,3.7937,0.30852,0.29696,0,0,0
491.58,1.6353,3.7943,0.30948,0.29771,0,0,0
492.08,1.6375,3.795,0.31044,0.2984,0,0,0
492.58,1.6398,3.7957,0.31132,0.29915,0,0,0
493.08,1.6423,3.7963,0.31213,0.2999,0,0,0
493.58,1.6442,3.7967,0.3129,0.30064,0,0,0
494.08,1.6467,3.7973,0.31368,0.30154,0,0,0
494.58,1.6488,3.7977,0.31471,0.30251,0,0,0
495.08,1.6508,3.7983,0.31554,0.30317,0,0,0
495.58,1.6537,3.799,0.31645,0.30407,0,0,0
496.08,1.656,3.8,0.31731,0.30483,0,0,0
496.58,1.6582,3.8007,0.31809,0.30565,0,0,0
497.08,1.6605,3.801,0.31919,0.30674,0,0,0
497.58,1.6629,3.8013,0.31999,0.30748,0,0,0
498.08,1.6651,3.8017,0.32106,0.30827,0,0,0
498.58,1.6677,3.8023,0.32201,0.30908,0,0,0
499.08,1.6696,3.803,0.32291,0.30999,0,0,0
499.58,1.6723,3.8037,0.32398,0.31071,0,0,0
500.08,1.6744,3.8043,0.32471,0.31145,0,0,0
500.58,1.6768,3.8047,0.3257,0.31245,0,0,0
501.08,1.6793,3.8053,0.32658,0.31336,0,0,0
501.58,1.6814,3.8057,0.32769,0.31412,0,0,0
502.08,1.6841,3.8063,0.32873,0.31525,0,0,0
502.58,1.6865,3.8067,0.3295,0.31625,0,0,0
503.08,1.6888,3.8073,0.33068,0.31721,0,0,0
503.58,1.6912,3.8077,0.33172,0.31836,0,0,0
504.08,1.6936,3.8083,0.33295,0.31923,0,0,0
504.58,1.6961,3.8087,0.33389,0.32033,0,0,0
505.08,1.6985,3.8093,0.33509,0.32128,0,0,0
505.58,1.7006,3.8097,0.33598,0.32213,0,0,0
506.08,1.7032,3.81,0.3371,0.32342,0,0,0
506.58,1.7056,3.8103,0.33816,0.32451,0,0,0
507.08,1.7081,3.8107,0.33921,0.32529,0,0,0
507.58,1.7107,3.8113,0.34007,0.32609,0,0,0
508.08,1.7133,3.8117,0.34107,0.32725,0,0,0
508.58,1.7158,3.8123,0.34241,0.32805,0,0,0
509.08,1.7183,3.8127,0.34336,0.32931,0,0,0
509.58,1.72,3.813,0.34474,0.33015,0,0,0
510.08,1.7232,3.8133,0.34593,0.33117,0,0,0
510.58,1.7255,3.8137,0.34714,0.33247,0,0,0
511.08,1.7282,3.814,0.34835,0.33365,0,0,0
511.58,1.7305,3.814,0.34951,0.33444,0,0,0
512.08,1.733,3.8143,0.35065,0.33574,0,0,0
512.58,1.7353,3.8147,0.3519,0.33684,0,0,0
513.08,1.738,3.8153,0.35265,0.33787,0,0,0
513.58,1.7407,3.8157,0.354,0.33911,0,0,0
514.08,1.7432,3.816,0.35513,0.33997,0,0,0
514.58,1.7456,3.816,0.35656,0.34124,0,0,0
515.08,1.7486,3.8163,0.35762,0.34236,0,0,0
515.58,1.7511,3.8167,0.35894,0.34362,0,0,0
516.08,1.7537,3.817,0.36027,0.34472,0,0,0
516.58,1.756,3.817,0.36135,0.346,0,0,0
517.08,1.7589,3.817,0.36282,0.34698,0,0,0
517.58,1.7614,3.817,0.3641,0.34821,0,0,0
518.08,1.7643,3.817,0.36573,0.34942,0,0,0
518.58,1.7669,3.817,0.36702,0.35065,0,0,0
519.08,1.7697,3.817,0.36829,0.35176,0,0,0
519.58,1.7726,3.817,0.36966,0.35315,0,0,0
520.08,1.7753,3.817,0.37078,0.35435,0,0,0
520.58,1.7779,3.817,0.37198,0.35546,0,0,0
521.08,1.7807,3.817,0.37362,0.35678,0,0,0
521.58,1.7834,3.817,0.37485,0.35809,0,0,0
522.08,1.7861,3.817,0.37635,0.35924,0,0,0
522.58,1.7888,3.8167,0.37766,0.36062,0,0,0
523.08,1.7914,3.8166,0.37934,0.36177,0,0,0
523.58,1.7945,3.8167,0.38071,0.36296,0,0,0
524.08,1.7973,3.817,0.38239,0.36429,0,0,0
524.58,1.8002,3.8167,0.38387,0.36587,0,0,0
525.08,1.8026,3.8163,0.38529,0.36708,0,0,0
525.58,1.8054,3.816,0.38675,0.36848,0,0,0
526.08,1.8084,3.816,0.38832,0.37001,0,0,0
526.58,1.8112,3.8157,0.38999,0.37129,0,0,0
527.08,1.8142,3.8153,0.39153,0.37281,0,0,0
527.58,1.817,3.8147,0.39307,0.37418,0,0,0
528.08,1.8201,3.8143,0.39475,0.3754,0,0,0
528.58,1.8228,3.8137,0.39622,0.37692,0,0,0
529.08,1.8258,3.8133,0.39784,0.37823,0,0,0
529.58,1.8288,3.8127,0.39964,0.37957,0,0,0
530.08,1.8317,3.812,0.40171,0.38113,0,0,0
530.58,1.8346,3.8113,0.40313,0.38266,0,0,0
531.08,1.8375,3.8107,0.40497,0.38399,0,0,0
531.58,1.8406,3.81,0.40667,0.38575,0,0,0
532.08,1.8438,3.8093,0.40825,0.38714,0,0,0
532.58,1.8465,3.8087,0.41006,0.38873,0,0,0
533.08,1.8496,3.808,0.41204,0.39048,0,0,0
533.58,1.8525,3.8073,0.41364,0.39178,0,0,0
534.08,1.8556,3.8067,0.4155,0.39325,0,0,0
534.58,1.8585,3.806,0.41721,0.395,0,0,0
535.08,1.862,3.805,0.41913,0.3966,0,0,0
535.58,1.865,3.804,0.42114,0.39811,0,0,0
536.08,1.868,3.8027,0.42288,0.3996,0,0,0
536.58,1.8711,3.801,0.42481,0.40169,0,0,0
537.08,1.8744,3.799,0.42691,0.40346,0,0,0
537.58,1.8775,3.797,0.42917,0.40501,0,0,0
538.08,1.8809,3.7947,0.4314,0.40702,0,0,0
538.58,1.8841,3.7917,0.43384,0.40896,0,0,0
539.08,1.8876,3.788,0.43612,0.4105,0,0,0
539.58,1.891,3.7843,0.43844,0.41257,0,0,0
540.08,1.8945,3.7807,0.44099,0.41479,0,0,0
540.58,1.8979,3.7767,0.44336,0.4167,0,0,0
541.08,1.9017,3.772,0.44571,0.419,0,0,0
541.58,1.9053,3.7673,0.44863,0.42122,0,0,0
542.08,1.9089,3.763,0.45113,0.42305,0,0,0
542.58,1.9122,3.7593,0.45344,0.42518,0,0,0
543.08,1.9156,3.756,0.45574,0.42693,0,0,0
543.58,1.9191,3.7521,0.45848,0.42873,0,0,0
544.08,1.9232,3.7473,0.46113,0.43109,0,0,0
544.58,1.9268,3.7414,0.46413,0.43346,0,0,0
545.08,1.9306,3.7341,0.4669,0.43631,0,0,0
545.58,1.9348,3.7227,0.47032,0.43917,0,0,0
546.08,1.9402,3.7056,0.47463,0.4554,0,0,0