File: lab_data/AA6014-T4_results/DATA/CH_45_1.csv
Time[s],Displacement[mm],Force[kN],AxStrain_1,AxStrain_2,Thickness[mm],OuterWidth[mm],Diameter[mm]
0.64,0,-0.005032,0,0,1.1245,19.918,5.1972
1.64,6.6e-05,0.014158,0.00024397,-7.7003e-05,0,0,0
2.63,0.000919,0.069996,0.00052286,0.00016799,0,0,0
3.63,0.001195,0.11485,0.0004369,-0.00022202,0,0,0
4.63,0.001749,0.14543,0.00043391,3.2999e-05,0,0,0
5.63,0.001815,0.18271,0.00065379,-2.7e-05,0,0,0
6.63,0.002586,0.22028,0.00052286,-2.3e-05,0,0,0
7.63,0.002963,0.25485,0.00043291,-1.1e-05,0,0,0
8.63,0.003047,0.27372,0.00038493,0.00023797,0,0,0
9.63,0.003485,0.29843,0.00034394,0.00018298,0,0,0
10.63,0.003883,0.32715,0.00038493,0.00018298,0,0,0
11.63,0.004446,0.35885,0.00051487,0.00029396,0,0,0
12.63,0.004882,0.38786,0.00037793,0.00027896,0,0,0
13.63,0.005548,0.41915,0.00065978,0.00031195,0,0,0
14.63,0.006241,0.44929,0.00062381,0.00036593,0,0,0
15.63,0.006335,0.47985,0.00073173,0.00030895,0,0,0
16.63,0.006698,0.51214,0.00064779,0.00048288,0,0,0
17.64,0.00696,0.54443,0.00073873,0.00035294,0,0,0
18.64,0.007477,0.57685,0.00088561,0.00045989,0,0,0
19.64,0.007691,0.60786,0.00060082,0.00042291,0,0,0
20.64,0.008333,0.64285,0.00071774,0.00047988,0,0,0
21.64,0.008856,0.67415,0.00064079,0.00060082,0,0,0
22.64,0.009743,0.70715,0.00058383,0.0006378,0,0,0
23.64,0.010582,0.73929,0.00084864,0.00059382,0,0,0
24.64,0.011525,0.77229,0.0009995,0.00075472,0,0,0
25.63,0.011767,0.80529,0.00092657,0.00070175,0,0,0
26.64,0.012475,0.83714,0.0012013,0.00074472,0,0,0
27.64,0.012714,0.87014,0.001386,0.00074472,0,0,0
28.64,0.012959,0.90143,0.0011843,0.00057384,0,0,0
29.64,0.013557,0.93614,0.0011443,0.00074872,0,0,0
30.64,0.013681,0.96715,0.0010265,0.00061781,0,0,0
31.64,0.014486,0.99986,0.00098951,0.00093656,0,0,0
32.63,0.015064,1.0313,0.00097652,0.00095954,0,0,0
33.63,0.015631,1.0633,0.0012482,0.00098352,0,0,0
34.63,0.016413,1.094,0.0010774,0.0010465,0,0,0
35.63,0.017773,1.1269,0.0013022,0.0012752,0,0,0
36.63,0.018267,1.1589,0.0012512,0.0011983,0,0,0
37.63,0.018821,1.1891,0.0014829,0.0012083,0,0,0
38.63,0.019365,1.2221,0.0016736,0.001443,0,0,0
39.63,0.019707,1.2514,0.0016536,0.0012412,0,0,0
40.63,0.020224,1.2824,0.0016776,0.001416,0,0,0
41.63,0.020573,1.3127,0.0015768,0.001426,0,0,0
42.63,0.021117,1.343,0.0018653,0.0013391,0,0,0
43.63,0.021926,1.374,0.0016636,0.0015528,0,0,0
44.63,0.022655,1.4034,0.0020529,0.0017035,0,0,0
45.63,0.023585,1.4339,0.002016,0.0018243,0,0,0
46.63,0.024488,1.4626,0.0023602,0.0020928,0,0,0
47.63,0.025216,1.4934,0.0025218,0.0020429,0,0,0
48.63,0.025884,1.5221,0.0026016,0.0023273,0,0,0
49.63,0.026462,1.5519,0.0026994,0.0022804,0,0,0
50.63,0.027224,1.5803,0.0028798,0.0023373,0,0,0
51.63,0.027533,1.6103,0.0028968,0.002438,0,0,0
52.63,0.028073,1.6393,0.0029437,0.0026186,0,0,0
53.63,0.029127,1.6671,0.0031311,0.0026824,0,0,0
54.63,0.029889,1.6961,0.0033484,0.0029437,0,0,0
55.63,0.031195,1.7239,0.003465,0.0030803,0,0,0
56.63,0.031907,1.7534,0.0036932,0.0034122,0,0,0
57.63,0.032931,1.7799,0.004241,0.0036832,0,0,0
58.63,0.033881,1.8076,0.0046024,0.0039502,0,0,0
59.63,0.034694,1.8337,0.0047258,0.0042042,0,0,0
60.63,0.035765,1.8597,0.0047855,0.0043515,0,0,0
61.63,0.037131,1.885,0.0052601,0.0045457,0,0,0
62.63,0.038877,1.9089,0.0053974,0.0047796,0,0,0
63.63,0.040958,1.9321,0.0056242,0.0050602,0,0,0
64.63,0.042949,1.9533,0.0061878,0.0055943,0,0,0
65.64,0.044816,1.9749,0.0068852,0.0060417,0,0,0
66.64,0.046729,1.9936,0.0073886,0.0068386,0,0,0
67.63,0.049183,2.0126,0.0085712,0.0076685,0,0,0
68.64,0.051644,2.0293,0.0093462,0.0084413,0,0,0
69.63,0.054511,2.046,0.010128,0.0092927,0,0,0
70.63,0.057979,2.0627,0.01027,0.0099583,0,0,0
71.63,0.061229,2.0784,0.011018,0.010414,0,0,0
72.64,0.064563,2.0937,0.011307,0.010952,0,0,0
73.63,0.06789,2.1083,0.01206,0.011579,0,0,0
74.64,0.070888,2.1233,0.012587,0.012365,0,0,0
75.64,0.074047,2.1376,0.013767,0.013157,0,0,0
76.63,0.077938,2.1516,0.014779,0.014111,0,0,0
77.64,0.081587,2.1657,0.015639,0.015064,0,0,0
78.64,0.085475,2.179,0.016476,0.016062,0,0,0
79.63,0.089252,2.192,0.017327,0.016756,0,0,0
80.63,0.092894,2.2047,0.017927,0.017716,0,0,0
81.63,0.096406,2.2177,0.018431,0.018358,0,0,0
82.63,0.10008,2.2296,0.018958,0.018975,0,0,0
83.64,0.10409,2.2423,0.019782,0.019591,0,0,0
84.64,0.10847,2.2543,0.020519,0.02066,0,0,0
85.64,0.11227,2.266,0.021452,0.021364,0,0,0
86.63,0.11607,2.2777,0.022425,0.022142,0,0,0
87.63,0.11981,2.289,0.023399,0.022822,0,0,0
88.63,0.12377,2.3003,0.024147,0.023687,0,0,0
89.64,0.1276,2.3114,0.024851,0.024615,0,0,0
90.63,0.13206,2.3224,0.025496,0.025329,0,0,0
91.63,0.13625,2.3326,0.026022,0.026239,0,0,0
92.64,0.14025,2.3437,0.026817,0.027092,0,0,0
93.63,0.14431,2.3543,0.027888,0.027895,0,0,0
94.63,0.14814,2.3646,0.028614,0.028506,0,0,0
95.63,0.15247,2.3747,0.029282,0.029318,0,0,0
96.63,0.15695,2.385,0.030012,0.030207,0,0,0
97.64,0.16153,2.395,0.031015,0.030833,0,0,0
98.63,0.16588,2.4044,0.031695,0.031535,0,0,0
99.63,0.16988,2.4136,0.032508,0.03254,0,0,0
100.63,0.17384,2.4237,0.033229,0.033411,0,0,0
101.63,0.17828,2.433,0.034056,0.034257,0,0,0
102.63,0.18261,2.4423,0.034832,0.034883,0,0,0
103.63,0.18742,2.451,0.035659,0.035739,0,0,0
104.64,0.19166,2.4597,0.036222,0.036428,0,0,0
105.63,0.19573,2.469,0.036808,0.037112,0,0,0
106.64,0.1999,2.478,0.037674,0.03782,0,0,0
107.63,0.20401,2.4867,0.038305,0.038615,0,0,0
108.63,0.20827,2.4946,0.039187,0.039747,0,0,0
109.63,0.21262,2.503,0.039896,0.040348,0,0,0
110.63,0.21697,2.5114,0.040609,0.041125,0,0,0
111.63,0.2207,2.519,0.041186,0.041853,0,0,0
112.63,0.22438,2.5263,0.041947,0.042345,0,0,0
113.63,0.22848,2.534,0.042625,0.043065,0,0,0
114.63,0.23235,2.5416,0.043268,0.043612,0,0,0
115.63,0.23659,2.549,0.043625,0.04419,0,0,0
116.63,0.24055,2.5557,0.044487,0.044993,0,0,0
117.63,0.2441,2.5623,0.045192,0.045769,0,0,0
118.63,0.24757,2.569,0.045834,0.046508,0,0,0
119.63,0.25107,2.5757,0.046411,0.047115,0,0,0
120.63,0.25458,2.5816,0.046892,0.048012,0,0,0
121.63,0.25838,2.5877,0.047372,0.048268,0,0,0
122.63,0.26212,2.5937,0.047853,0.048876,0,0,0
123.63,0.26599,2.6,0.048557,0.049515,0,0,0
124.64,0.26932,2.6057,0.049101,0.049834,0,0,0
125.63,0.27263,2.6117,0.049675,0.050377,0,0,0
126.63,0.27603,2.6176,0.050154,0.050856,0,0,0
127.63,0.28,2.6237,0.050953,0.051654,0,0,0
128.63,0.28368,2.6294,0.051271,0.052195,0,0,0
129.63,0.2874,2.635,0.051845,0.053023,0,0,0
130.63,0.2915,2.6403,0.052228,0.053342,0,0,0
131.63,0.29512,2.646,0.052928,0.05401,0,0,0
132.63,0.29863,2.652,0.053565,0.054646,0,0,0
133.63,0.30203,2.6573,0.054106,0.055155,0,0,0
134.63,0.30605,2.6623,0.054615,0.055694,0,0,0
135.63,0.31027,2.6673,0.055123,0.056234,0,0,0
136.63,0.3141,2.6734,0.05579,0.05671,0,0,0
137.63,0.31738,2.6787,0.056139,0.057407,0,0,0
138.63,0.32115,2.684,0.056806,0.057757,0,0,0
139.63,0.32443,2.689,0.057377,0.058359,0,0,0
140.63,0.32822,2.6944,0.057947,0.059023,0,0,0
141.63,0.33221,2.6993,0.058486,0.059782,0,0,0
142.63,0.33631,2.7047,0.058992,0.060161,0,0,0
143.63,0.34,2.7097,0.059657,0.060951,0,0,0
144.63,0.34375,2.7147,0.060257,0.061488,0,0,0
145.63,0.34717,2.7197,0.060668,0.062057,0,0,0
146.63,0.35102,2.7247,0.061299,0.062404,0,0,0
147.63,0.35508,2.7297,0.062026,0.063003,0,0,0
148.63,0.35919,2.7347,0.062468,0.063475,0,0,0
149.63,0.36305,2.7397,0.06294,0.064043,0,0,0
150.63,0.36651,2.7443,0.063445,0.064641,0,0,0
151.63,0.36994,2.749,0.063886,0.065018,0,0,0
152.63,0.3735,2.754,0.064421,0.06571,0,0,0
153.63,0.37757,2.759,0.064925,0.066275,0,0,0
154.63,0.38167,2.7633,0.065679,0.066715,0,0,0
155.63,0.38537,2.7683,0.066119,0.067374,0,0,0
156.63,0.38903,2.773,0.06678,0.067814,0,0,0
157.63,0.39232,2.777,0.067156,0.068536,0,0,0
158.63,0.39581,2.7817,0.067721,0.06888,0,0,0
159.63,0.39941,2.7867,0.068223,0.069413,0,0,0
160.63,0.40343,2.791,0.068756,0.069977,0,0,0
161.63,0.40743,2.7957,0.069195,0.070602,0,0,0
162.63,0.41132,2.8,0.069915,0.071103,0,0,0
163.63,0.41475,2.8043,0.070259,0.071478,0,0,0
164.63,0.41811,2.809,0.07101,0.071947,0,0,0
165.63,0.42175,2.813,0.071323,0.072602,0,0,0
166.63,0.42519,2.817,0.071916,0.072977,0,0,0
167.63,0.42943,2.8217,0.072385,0.073664,0,0,0
168.63,0.43321,2.826,0.07304,0.074256,0,0,0
169.63,0.43657,2.83,0.073603,0.074941,0,0,0
170.63,0.44015,2.834,0.073914,0.075285,0,0,0
171.63,0.44357,2.8383,0.074568,0.075783,0,0,0
172.63,0.44731,2.843,0.074942,0.076374,0,0,0
173.63,0.45113,2.847,0.075472,0.076622,0,0,0
174.63,0.45516,2.851,0.075846,0.077213,0,0,0
175.63,0.45892,2.855,0.076499,0.077865,0,0,0
176.63,0.46223,2.859,0.076903,0.078425,0,0,0
177.63,0.46545,2.863,0.077338,0.078953,0,0,0
178.63,0.4692,2.8667,0.077897,0.079542,0,0,0
179.63,0.47291,2.8707,0.078394,0.080037,0,0,0
180.63,0.4765,2.8746,0.079015,0.080657,0,0,0
181.63,0.48039,2.879,0.07948,0.081122,0,0,0
182.63,0.48376,2.883,0.079945,0.081492,0,0,0
183.63,0.48706,2.887,0.080162,0.082235,0,0,0
184.63,0.49049,2.8903,0.080751,0.082606,0,0,0
185.63,0.49384,2.894,0.081308,0.083008,0,0,0
186.63,0.4975,2.898,0.081989,0.083687,0,0,0
187.63,0.5012,2.902,0.082329,0.084151,0,0,0
188.63,0.50509,2.906,0.082978,0.08486,0,0,0
189.63,0.50841,2.9093,0.083472,0.085138,0,0,0
190.63,0.51187,2.9134,0.083997,0.085816,0,0,0
191.63,0.51523,2.917,0.084337,0.08634,0,0,0
192.63,0.51892,2.9203,0.085139,0.086771,0,0,0
193.63,0.52258,2.924,0.085539,0.087416,0,0,0
194.63,0.52661,2.928,0.085847,0.087971,0,0,0
195.63,0.5303,2.9313,0.086587,0.08834,0,0,0
196.63,0.53369,2.935,0.086925,0.088892,0,0,0
197.63,0.53709,2.9387,0.087602,0.089291,0,0,0
198.63,0.54051,2.942,0.088033,0.089783,0,0,0
199.63,0.54427,2.946,0.088463,0.090274,0,0,0
200.63,0.54826,2.9496,0.088986,0.090764,0,0,0
201.63,0.55199,2.9537,0.089323,0.091255,0,0,0
202.63,0.55528,2.9567,0.089937,0.091898,0,0,0
203.63,0.55877,2.96,0.09009,0.092266,0,0,0
204.63,0.56213,2.964,0.091071,0.092939,0,0,0
205.63,0.56562,2.9673,0.091317,0.093519,0,0,0
206.63,0.56938,2.971,0.091807,0.093734,0,0,0
207.63,0.57304,2.975,0.092266,0.094375,0,0,0
208.63,0.57663,2.9783,0.092878,0.094865,0,0,0
209.63,0.58002,2.9813,0.093306,0.095169,0,0,0
210.63,0.58358,2.985,0.093887,0.095872,0,0,0
211.63,0.58687,2.9883,0.094193,0.096207,0,0,0
212.63,0.59067,2.992,0.094804,0.096939,0,0,0
213.63,0.59439,2.9953,0.095384,0.097365,0,0,0
214.63,0.59812,2.9987,0.095933,0.098095,0,0,0
215.63,0.60181,3.0017,0.096451,0.098552,0,0,0
216.63,0.60527,3.005,0.097122,0.098826,0,0,0
217.63,0.60873,3.0087,0.097579,0.099343,0,0,0
218.63,0.61232,3.012,0.098005,0.09995,0,0,0
219.63,0.61591,3.0153,0.098522,0.10035,0,0,0
220.63,0.61981,3.0187,0.098979,0.10098,0,0,0
221.63,0.62336,3.022,0.099465,0.10141,0,0,0
222.63,0.62686,3.0256,0.099921,0.10192,0,0,0
223.63,0.63035,3.0293,0.10047,0.10241,0,0,0
224.63,0.63381,3.0327,0.10107,0.10295,0,0,0
225.63,0.63716,3.0353,0.10159,0.10341,0,0,0
226.63,0.64075,3.0387,0.10202,0.10389,0,0,0
227.63,0.64529,3.042,0.10259,0.10462,0,0,0
228.63,0.64848,3.0453,0.10317,0.1048,0,0,0
229.63,0.6517,3.0483,0.10344,0.10556,0,0,0
230.63,0.65499,3.0517,0.10413,0.10595,0,0,0
231.63,0.65845,3.055,0.10447,0.10667,0,0,0
232.63,0.66231,3.0583,0.10486,0.10712,0,0,0
233.63,0.66607,3.0617,0.10541,0.1077,0,0,0
234.63,0.66983,3.065,0.10595,0.10821,0,0,0
235.63,0.67332,3.068,0.10637,0.10857,0,0,0
236.63,0.67658,3.0707,0.1071,0.10908,0,0,0
237.63,0.68017,3.074,0.10758,0.10951,0,0,0
238.63,0.68383,3.0773,0.10821,0.11014,0,0,0
239.63,0.68769,3.0806,0.10875,0.11071,0,0,0
240.63,0.69145,3.084,0.10905,0.11134,0,0,0
241.63,0.69538,3.087,0.10954,0.11206,0,0,0
242.63,0.69887,3.0903,0.11017,0.11248,0,0,0
243.63,0.70229,3.093,0.11053,0.11302,0,0,0
244.63,0.70575,3.096,0.1111,0.1135,0,0,0
245.63,0.70931,3.0997,0.11167,0.11392,0,0,0
246.63,0.71317,3.102,0.11227,0.11443,0,0,0
247.63,0.71706,3.105,0.11278,0.115,0,0,0
248.63,0.72072,3.1083,0.11338,0.11557,0,0,0
249.63,0.72395,3.1113,0.11368,0.11604,0,0,0
250.63,0.72734,3.1147,0.11407,0.11676,0,0,0
251.63,0.731,3.1177,0.11479,0.11718,0,0,0
252.63,0.73466,3.1203,0.11524,0.11784,0,0,0
253.63,0.73828,3.1237,0.11566,0.11837,0,0,0
254.63,0.74191,3.1263,0.11631,0.11894,0,0,0
255.63,0.7453,3.13,0.11703,0.11942,0,0,0
256.63,0.74879,3.133,0.11751,0.11986,0,0,0
257.63,0.75221,3.1353,0.11808,0.1207,0,0,0
258.63,0.75604,3.1387,0.11846,0.12102,0,0,0
259.63,0.75967,3.1417,0.11897,0.12162,0,0,0
260.63,0.76373,3.1447,0.11933,0.122,0,0,0
261.63,0.76705,3.1477,0.11998,0.12263,0,0,0
262.63,0.77051,3.1503,0.12049,0.12316,0,0,0
263.63,0.77414,3.1537,0.12123,0.12379,0,0,0
264.63,0.77756,3.1563,0.12192,0.12462,0,0,0
265.63,0.78132,3.159,0.12224,0.12515,0,0,0
266.63,0.78508,3.162,0.1229,0.12577,0,0,0
267.63,0.78887,3.1653,0.12325,0.12621,0,0,0
268.63,0.7922,3.1687,0.12385,0.12666,0,0,0
269.63,0.79562,3.171,0.12432,0.12713,0,0,0
270.63,0.79911,3.1737,0.12488,0.12763,0,0,0
271.63,0.80287,3.1767,0.12563,0.1282,0,0,0
272.63,0.8067,3.1797,0.1261,0.12879,0,0,0
273.63,0.81043,3.1823,0.12675,0.12935,0,0,0
274.63,0.81412,3.1853,0.12761,0.13008,0,0,0
275.63,0.81734,3.1883,0.12808,0.13091,0,0,0
276.63,0.8209,3.1913,0.12864,0.13144,0,0,0
277.63,0.82456,3.194,0.12905,0.13188,0,0,0
278.63,0.82839,3.1967,0.12961,0.1325,0,0,0
279.63,0.83245,3.1997,0.13026,0.13291,0,0,0
280.63,0.83628,3.2027,0.13085,0.13335,0,0,0
281.63,0.83964,3.2053,0.13132,0.13394,0,0,0
282.63,0.84336,3.2083,0.13203,0.13482,0,0,0
283.63,0.84679,3.2113,0.13253,0.13532,0,0,0
284.63,0.85078,3.214,0.13326,0.13582,0,0,0
285.63,0.85454,3.2167,0.13379,0.13655,0,0,0
286.63,0.8585,3.219,0.13447,0.13716,0,0,0
287.63,0.86203,3.2217,0.13485,0.13787,0,0,0
288.63,0.86565,3.2247,0.13552,0.1383,0,0,0
289.63,0.86898,3.2273,0.13626,0.13889,0,0,0
290.63,0.87267,3.2303,0.13696,0.13953,0,0,0
291.63,0.8764,3.233,0.13757,0.14006,0,0,0
292.63,0.88029,3.236,0.13784,0.1407,0,0,0
293.63,0.88392,3.2393,0.13845,0.14119,0,0,0
294.63,0.88751,3.242,0.13883,0.14154,0,0,0
295.63,0.89083,3.2443,0.13918,0.14245,0,0,0
296.63,0.89456,3.247,0.13997,0.14297,0,0,0
297.63,0.89815,3.2493,0.1407,0.14349,0,0,0
298.63,0.90208,3.2523,0.14163,0.1441,0,0,0
299.63,0.90574,3.255,0.14227,0.14469,0,0,0
300.63,0.9095,3.2573,0.14297,0.14524,0,0,0
301.63,0.91302,3.26,0.14338,0.14585,0,0,0
302.63,0.91662,3.263,0.14373,0.14637,0,0,0
303.63,0.92017,3.266,0.14405,0.14707,0,0,0
304.63,0.92387,3.2683,0.1448,0.14762,0,0,0
305.63,0.92786,3.271,0.14515,0.14837,0,0,0
306.63,0.93156,3.2733,0.14585,0.14898,0,0,0
307.63,0.93532,3.2763,0.14669,0.14955,0,0,0
308.63,0.93867,3.279,0.14747,0.15028,0,0,0
309.63,0.94233,3.2813,0.14817,0.15094,0,0,0
310.63,0.94586,3.284,0.14875,0.15146,0,0,0
311.63,0.94982,3.2867,0.14915,0.15212,0,0,0
312.63,0.95344,3.2893,0.14953,0.15276,0,0,0
313.63,0.9572,3.292,0.15005,0.15333,0,0,0
314.63,0.9606,3.2947,0.15063,0.15408,0,0,0
315.63,0.96409,3.297,0.15135,0.15486,0,0,0
316.63,0.96758,3.2997,0.15172,0.15546,0,0,0
317.63,0.97167,3.3027,0.15276,0.15618,0,0,0
318.63,0.97554,3.3053,0.15325,0.15667,0,0,0
319.63,0.97926,3.308,0.15397,0.15744,0,0,0
320.63,0.98269,3.3103,0.15466,0.1579,0,0,0
321.63,0.98635,3.3126,0.15521,0.15868,0,0,0
322.63,0.99004,3.315,0.15558,0.15922,0,0,0
323.63,0.99393,3.3173,0.15621,0.16008,0,0,0
324.63,0.99786,3.3203,0.1571,0.16065,0,0,0
325.63,1.0018,3.323,0.15762,0.16151,0,0,0
326.63,1.0055,3.325,0.15831,0.16202,0,0,0
327.63,1.0092,3.3277,0.15891,0.16271,0,0,0
328.63,1.0126,3.33,0.15971,0.16322,0,0,0
329.63,1.0164,3.3327,0.16031,0.16382,0,0,0
330.63,1.0203,3.335,0.16091,0.16439,0,0,0
331.63,1.0243,3.337,0.1616,0.16513,0,0,0
332.63,1.0277,3.3397,0.16223,0.16584,0,0,0
333.63,1.0314,3.342,0.16277,0.16667,0,0,0
334.63,1.0347,3.3447,0.16345,0.16718,0,0,0
335.63,1.0382,3.3477,0.16405,0.16789,0,0,0
336.63,1.0422,3.35,0.16479,0.16828,0,0,0
337.63,1.046,3.3523,0.16536,0.16908,0,0,0
338.63,1.0497,3.355,0.16596,0.16965,0,0,0
339.63,1.0533,3.357,0.16644,0.17016,0,0,0
340.63,1.0569,3.3597,0.16704,0.17084,0,0,0
341.63,1.0603,3.362,0.16795,0.17151,0,0,0
342.63,1.0638,3.364,0.16849,0.17225,0,0,0
343.63,1.0681,3.3667,0.16922,0.17293,0,0,0
344.63,1.0717,3.3697,0.1699,0.17397,0,0,0
345.63,1.0754,3.372,0.17039,0.17462,0,0,0
346.63,1.079,3.374,0.17101,0.17516,0,0,0
347.63,1.0826,3.3764,0.17172,0.17561,0,0,0
348.63,1.0864,3.3787,0.17248,0.17617,0,0,0
349.63,1.0902,3.381,0.17304,0.17679,0,0,0
350.63,1.0939,3.383,0.17398,0.17735,0,0,0
351.63,1.0976,3.3853,0.1746,0.17817,0,0,0
352.63,1.1016,3.3883,0.17519,0.17884,0,0,0
353.63,1.105,3.391,0.17606,0.17968,0,0,0
354.63,1.1088,3.393,0.17651,0.18049,0,0,0
355.63,1.1125,3.395,0.17719,0.18111,0,0,0
356.63,1.1164,3.397,0.17803,0.18176,0,0,0
357.63,1.1201,3.3997,0.17851,0.18226,0,0,0
358.63,1.1236,3.402,0.17929,0.18304,0,0,0
359.63,1.1272,3.4043,0.18005,0.18354,0,0,0
360.63,1.131,3.407,0.18089,0.18408,0,0,0
361.63,1.1347,3.409,0.18154,0.18469,0,0,0
362.63,1.1388,3.4117,0.18201,0.18564,0,0,0
363.63,1.1422,3.414,0.18282,0.18642,0,0,0
364.63,1.1463,3.416,0.18358,0.18714,0,0,0
365.63,1.1499,3.418,0.18433,0.18778,0,0,0
366.63,1.1537,3.42,0.18497,0.18856,0,0,0
367.63,1.1571,3.4223,0.18556,0.18917,0,0,0
368.63,1.1612,3.425,0.18637,0.18979,0,0,0
369.63,1.1649,3.427,0.18709,0.19048,0,0,0
370.63,1.1688,3.4293,0.18779,0.19109,0,0,0
371.63,1.1727,3.432,0.18857,0.19206,0,0,0
372.63,1.1763,3.434,0.18949,0.19286,0,0,0
373.63,1.1798,3.436,0.19032,0.19342,0,0,0
374.63,1.1835,3.438,0.19096,0.19422,0,0,0
375.63,1.1875,3.44,0.19162,0.19472,0,0,0
376.63,1.1912,3.442,0.19226,0.19543,0,0,0
377.63,1.195,3.444,0.19292,0.19612,0,0,0
378.63,1.1988,3.4467,0.19364,0.19712,0,0,0
379.63,1.2023,3.449,0.19436,0.19783,0,0,0
380.63,1.2063,3.451,0.19508,0.19863,0,0,0
381.63,1.2098,3.453,0.19591,0.19924,0,0,0
382.63,1.2136,3.455,0.19665,0.20028,0,0,0
383.63,1.2173,3.4573,0.19737,0.20086,0,0,0
384.63,1.2211,3.46,0.19809,0.20152,0,0,0
385.63,1.2247,3.462,0.19902,0.20198,0,0,0
386.63,1.2282,3.464,0.1996,0.20242,0,0,0
387.63,1.2319,3.466,0.20026,0.2033,0,0,0
388.63,1.2359,3.468,0.20111,0.20377,0,0,0
389.63,1.2399,3.4707,0.20172,0.20475,0,0,0
390.63,1.2435,3.473,0.20262,0.20565,0,0,0
391.63,1.2471,3.4746,0.20331,0.20647,0,0,0
392.63,1.2508,3.477,0.20402,0.20735,0,0,0
393.63,1.2545,3.479,0.20487,0.20816,0,0,0
394.63,1.2584,3.481,0.20574,0.20874,0,0,0
395.63,1.2622,3.483,0.20632,0.2095,0,0,0
396.63,1.2661,3.485,0.20708,0.21013,0,0,0
397.63,1.27,3.487,0.20806,0.21089,0,0,0
398.63,1.2737,3.4893,0.20891,0.21159,0,0,0
399.63,1.2774,3.4913,0.20948,0.21254,0,0,0
400.63,1.2812,3.493,0.21032,0.2132,0,0,0
401.63,1.285,3.495,0.21125,0.21398,0,0,0
402.63,1.2888,3.497,0.21182,0.21479,0,0,0
403.63,1.293,3.499,0.21296,0.21558,0,0,0
404.63,1.2961,3.501,0.21364,0.2165,0,0,0
405.63,1.2999,3.5034,0.2144,0.21731,0,0,0
406.63,1.3039,3.5054,0.21513,0.21817,0,0,0
407.63,1.3079,3.5073,0.21599,0.21893,0,0,0
408.63,1.312,3.51,0.21688,0.22001,0,0,0
409.63,1.3161,3.5113,0.21764,0.22074,0,0,0
410.63,1.3196,3.5137,0.21832,0.22165,0,0,0
411.63,1.3233,3.516,0.21929,0.22248,0,0,0
412.63,1.3272,3.5173,0.22002,0.22316,0,0,0
413.63,1.331,3.5197,0.22107,0.22388,0,0,0
414.63,1.3351,3.5217,0.22206,0.2249,0,0,0
415.63,1.3388,3.5234,0.22271,0.22546,0,0,0
416.63,1.3426,3.5257,0.22373,0.22643,0,0,0
417.63,1.3465,3.5273,0.22432,0.22715,0,0,0
418.63,1.3504,3.529,0.22526,0.22806,0,0,0
419.63,1.3542,3.531,0.22609,0.22886,0,0,0
420.63,1.3581,3.533,0.22692,0.2299,0,0,0
421.63,1.362,3.535,0.22777,0.23086,0,0,0
422.63,1.366,3.537,0.22831,0.23161,0,0,0
423.63,1.3699,3.539,0.22916,0.23264,0,0,0
424.63,1.3734,3.541,0.23004,0.23336,0,0,0
425.63,1.3773,3.543,0.23095,0.23413,0,0,0
426.63,1.3811,3.545,0.23188,0.23482,0,0,0
427.63,1.385,3.547,0.23292,0.23567,0,0,0
428.63,1.3891,3.5487,0.23356,0.23663,0,0,0
429.63,1.3928,3.5503,0.23451,0.23747,0,0,0
430.63,1.3966,3.5527,0.23523,0.23827,0,0,0
431.63,1.4001,3.5547,0.23634,0.2393,0,0,0
432.63,1.4042,3.557,0.23695,0.24012,0,0,0
433.63,1.4085,3.5583,0.23799,0.2411,0,0,0
434.63,1.4124,3.56,0.2391,0.24183,0,0,0
435.63,1.4162,3.562,0.23992,0.24294,0,0,0
436.63,1.4201,3.5637,0.24081,0.24384,0,0,0
437.63,1.4239,3.565,0.2415,0.24468,0,0,0
438.63,1.4278,3.567,0.24279,0.24573,0,0,0
439.63,1.4315,3.569,0.24361,0.24657,0,0,0
440.63,1.4359,3.571,0.24453,0.24769,0,0,0
441.63,1.4398,3.573,0.24568,0.24835,0,0,0
442.63,1.4437,3.5743,0.24663,0.24929,0,0,0
443.63,1.4472,3.576,0.2476,0.25023,0,0,0
444.63,1.4514,3.578,0.24859,0.25125,0,0,0
445.63,1.4553,3.58,0.24917,0.25224,0,0,0
446.63,1.4593,3.582,0.25035,0.25318,0,0,0
447.63,1.4632,3.5837,0.25108,0.25412,0,0,0
448.63,1.4672,3.585,0.25205,0.25495,0,0,0
449.63,1.4708,3.587,0.25296,0.25594,0,0,0
450.63,1.4747,3.589,0.25421,0.25693,0,0,0
451.63,1.4788,3.5903,0.2552,0.2582,0,0,0
452.63,1.4827,3.592,0.25621,0.25908,0,0,0
453.63,1.4866,3.594,0.25728,0.25996,0,0,0
454.63,1.4907,3.596,0.25834,0.26115,0,0,0
455.63,1.4945,3.598,0.25889,0.26221,0,0,0
456.63,1.4982,3.6,0.2599,0.26312,0,0,0
457.63,1.5023,3.6017,0.26124,0.26402,0,0,0
458.63,1.5062,3.603,0.26248,0.26492,0,0,0
459.63,1.5106,3.6047,0.26367,0.26592,0,0,0
460.63,1.5146,3.6064,0.26472,0.26703,0,0,0
461.63,1.5186,3.608,0.26563,0.26803,0,0,0
462.63,1.5221,3.6093,0.26668,0.26901,0,0,0
463.63,1.5263,3.611,0.26748,0.27019,0,0,0
464.63,1.5303,3.613,0.26843,0.27111,0,0,0
465.63,1.5342,3.615,0.26951,0.27216,0,0,0
466.63,1.5383,3.617,0.27074,0.27315,0,0,0
467.63,1.5427,3.6187,0.27168,0.27418,0,0,0
468.63,1.5466,3.62,0.27296,0.27545,0,0,0
469.63,1.5507,3.6217,0.27406,0.27672,0,0,0
470.63,1.555,3.6234,0.27516,0.27795,0,0,0
471.63,1.5588,3.625,0.2763,0.27894,0,0,0
472.63,1.5631,3.627,0.2776,0.28021,0,0,0
473.63,1.5669,3.6283,0.27877,0.28099,0,0,0
474.63,1.571,3.6297,0.27979,0.28228,0,0,0
475.63,1.5753,3.6314,0.28095,0.28325,0,0,0
476.63,1.5792,3.6327,0.28242,0.28453,0,0,0
477.63,1.5835,3.6344,0.28341,0.28554,0,0,0
478.63,1.5877,3.636,0.2846,0.28648,0,0,0
479.63,1.5918,3.638,0.28573,0.28789,0,0,0
480.63,1.5958,3.6393,0.28674,0.28877,0,0,0
481.63,1.5999,3.641,0.28795,0.29005,0,0,0
482.63,1.6041,3.6427,0.28901,0.29148,0,0,0
483.63,1.6084,3.644,0.29021,0.29271,0,0,0
484.63,1.6126,3.6457,0.29164,0.29366,0,0,0
485.63,1.6171,3.647,0.29292,0.29501,0,0,0
486.63,1.6214,3.6483,0.29407,0.29641,0,0,0
487.63,1.625,3.65,0.2952,0.29743,0,0,0
488.63,1.6291,3.6517,0.2967,0.2986,0,0,0
489.63,1.6335,3.653,0.29787,0.29985,0,0,0
490.63,1.6376,3.655,0.29904,0.30089,0,0,0
491.63,1.6418,3.657,0.30006,0.30223,0,0,0
492.63,1.6461,3.6583,0.30153,0.30328,0,0,0
493.63,1.6504,3.6597,0.30282,0.30449,0,0,0
494.63,1.6545,3.6607,0.30413,0.30555,0,0,0
495.63,1.6587,3.662,0.30547,0.30684,0,0,0
496.63,1.6631,3.664,0.30675,0.30847,0,0,0
497.63,1.6675,3.6653,0.30799,0.30936,0,0,0
498.63,1.6718,3.6667,0.30944,0.31096,0,0,0
499.63,1.6758,3.668,0.31062,0.31248,0,0,0
500.63,1.6801,3.6697,0.3121,0.31398,0,0,0
501.63,1.6845,3.671,0.31347,0.31518,0,0,0
502.63,1.6889,3.6723,0.31487,0.31648,0,0,0
503.63,1.6932,3.6737,0.31634,0.31753,0,0,0
504.63,1.6977,3.675,0.31732,0.31892,0,0,0
505.63,1.7047,3.6763,0.31869,0.32031,0,0,0
506.63,1.7065,3.6777,0.32015,0.32189,0,0,0
507.63,1.7106,3.679,0.32173,0.3234,0,0,0
508.63,1.7153,3.6803,0.32339,0.32493,0,0,0
509.63,1.7199,3.6817,0.32453,0.32624,0,0,0
510.63,1.7242,3.683,0.32632,0.32742,0,0,0
511.63,1.7287,3.6843,0.32768,0.32863,0,0,0
512.63,1.7328,3.6857,0.32927,0.32991,0,0,0
513.63,1.7375,3.6867,0.33063,0.33134,0,0,0
514.63,1.7421,3.688,0.33231,0.33331,0,0,0
515.63,1.7465,3.6893,0.33388,0.33502,0,0,0
516.63,1.7514,3.691,0.33537,0.33658,0,0,0
517.63,1.7555,3.6923,0.33719,0.33804,0,0,0
518.63,1.7603,3.6937,0.33867,0.33957,0,0,0
519.63,1.7646,3.694,0.34032,0.34105,0,0,0
520.63,1.7692,3.695,0.34223,0.34251,0,0,0
521.63,1.7739,3.6967,0.34376,0.34458,0,0,0
522.63,1.7786,3.6973,0.34557,0.34626,0,0,0
523.63,1.7832,3.6987,0.34709,0.3475,0,0,0
524.63,1.7875,3.6997,0.34868,0.34904,0,0,0
525.63,1.7923,3.701,0.35071,0.35067,0,0,0
526.63,1.7972,3.7023,0.35269,0.35268,0,0,0
527.63,1.8017,3.703,0.35479,0.35452,0,0,0
528.63,1.8066,3.7037,0.35653,0.35647,0,0,0
529.63,1.8113,3.7047,0.35827,0.35811,0,0,0
530.63,1.816,3.7057,0.36012,0.35978,0,0,0
531.63,1.8206,3.7067,0.36211,0.36109,0,0,0
532.63,1.8254,3.7077,0.36386,0.36284,0,0,0
533.63,1.8304,3.7083,0.36598,0.36506,0,0,0
534.63,1.8349,3.7093,0.36815,0.36692,0,0,0
535.63,1.84,3.71,0.37003,0.36887,0,0,0
536.63,1.8448,3.7107,0.37195,0.37064,0,0,0
537.63,1.8498,3.7117,0.37431,0.37251,0,0,0
538.63,1.8546,3.712,0.37599,0.37441,0,0,0
539.63,1.8599,3.7127,0.37841,0.37632,0,0,0
540.63,1.865,3.7137,0.38082,0.37867,0,0,0
541.63,1.8699,3.714,0.38302,0.38078,0,0,0
542.63,1.8752,3.7143,0.38556,0.38291,0,0,0
543.63,1.8802,3.715,0.3877,0.38474,0,0,0
544.63,1.8858,3.715,0.38996,0.38682,0,0,0
545.63,1.8909,3.7157,0.39238,0.3893,0,0,0
546.63,1.8962,3.716,0.39526,0.39144,0,0,0
547.63,1.9016,3.716,0.39759,0.39366,0,0,0
548.63,1.9068,3.716,0.39988,0.39545,0,0,0
549.63,1.9124,3.716,0.40236,0.39768,0,0,0
550.63,1.9179,3.716,0.40494,0.40018,0,0,0
551.63,1.9235,3.716,0.40757,0.40263,0,0,0
552.63,1.9289,3.716,0.41043,0.40541,0,0,0
553.63,1.9344,3.7153,0.41296,0.40734,0,0,0
554.63,1.9401,3.7147,0.41551,0.40984,0,0,0
555.63,1.9462,3.714,0.41841,0.41222,0,0,0
556.63,1.9517,3.714,0.42137,0.41473,0,0,0
557.63,1.9574,3.7133,0.4243,0.41778,0,0,0
558.63,1.9633,3.7123,0.42737,0.42056,0,0,0
559.63,1.9692,3.7113,0.43073,0.42332,0,0,0
560.63,1.9751,3.7103,0.43404,0.42588,0,0,0
561.63,1.9812,3.709,0.43702,0.4288,0,0,0
562.63,1.9872,3.707,0.4404,0.43166,0,0,0
563.63,1.9935,3.7057,0.44368,0.43462,0,0,0
564.63,1.9997,3.704,0.44716,0.43746,0,0,0
565.63,2.0061,3.7013,0.45099,0.44043,0,0,0
566.63,2.0122,3.699,0.45443,0.44325,0,0,0
567.63,2.0188,3.6963,0.45775,0.44637,0,0,0
568.63,2.025,3.693,0.46188,0.4494,0,0,0
569.63,2.0315,3.6887,0.46533,0.45171,0,0,0
570.63,2.0384,3.6824,0.47002,0.45485,0,0,0