File: lab_data/AA6014-T4_results/DATA/CH_45_2.csv
Time[s],Displacement[mm],Force[kN],AxStrain_1,AxStrain_2,Thickness[mm],OuterWidth[mm],Diameter[mm]
0.63,0,-0.0046488,0,0,1.1332,19.939,5.0085
1.13,-0.000145,0.0037015,-7.9003e-05,6e-06,0,0,0
1.63,0.000391,0.013581,2e-06,2.2e-05,0,0,0
2.12,0.000785,0.037004,-0.00014301,8.6996e-05,0,0,0
2.63,0.001071,0.06571,6.8998e-05,-2.5e-05,0,0,0
3.13,0.001341,0.092714,0.00020098,0.00018398,0,0,0
3.63,0.001537,0.11356,0.00012999,8.5996e-05,0,0,0
4.13,0.00178,0.13043,0.00010299,-0.00011501,0,0,0
4.63,0.001952,0.146,0.00011599,8.3996e-05,0,0,0
5.13,0.002,0.16443,7.5997e-05,0.00019298,0,0,0
5.63,0.002431,0.18385,0.00026896,0.00012799,0,0,0
6.13,0.002617,0.203,5.1999e-05,0.00022997,0,0,0
6.63,0.002838,0.22157,0.00023097,0.00013899,0,0,0
7.12,0.003033,0.23957,0.00021798,0.00022697,0,0,0
7.63,0.002899,0.25256,0.00020498,-4.2001e-05,0,0,0
8.13,0.003148,0.26129,0.00032195,0.00014899,0,0,0
8.63,0.003304,0.27057,0.00019998,0.00018698,0,0,0
9.13,0.003402,0.28329,0.00021098,0.00035494,0,0,0
9.63,0.00353,0.29786,0.00022597,0.00027096,0,0,0
10.13,0.003957,0.31314,0.00019598,0.00048888,0,0,0
10.63,0.004129,0.32771,0.00020098,0.00031795,0,0,0
11.13,0.004437,0.34215,0.00031095,0.00035694,0,0,0
11.63,0.004571,0.35685,0.00035894,0.00028096,0,0,0
12.13,0.005082,0.37215,0.00018598,0.00054285,0,0,0
12.63,0.005457,0.388,0.00021998,0.00052786,0,0,0
13.13,0.005571,0.40414,9.2996e-05,0.00035594,0,0,0
13.63,0.00587,0.41871,0.00016499,0.00033594,0,0,0
14.13,0.006292,0.43343,0.00035294,0.00040292,0,0,0
14.62,0.006338,0.44885,0.00029896,0.00050387,0,0,0
15.12,0.006691,0.464,0.00031195,0.00040592,0,0,0
15.63,0.006748,0.47886,0.00046989,0.00034194,0,0,0
16.13,0.006943,0.49529,0.00024497,0.00048288,0,0,0
16.62,0.006966,0.51185,0.00024497,0.00039992,0,0,0
17.13,0.007393,0.52843,0.00039292,0.00028896,0,0,0
17.63,0.007534,0.54457,0.00022497,0.00041291,0,0,0
18.12,0.007638,0.56,0.00039992,0.00042991,0,0,0
18.63,0.007604,0.57543,0.00037593,0.00054085,0,0,0
19.13,0.007876,0.59157,0.00033594,0.00052986,0,0,0
19.63,0.008182,0.60729,0.00030595,0.00049988,0,0,0
20.13,0.008417,0.62286,0.00048288,0.00057384,0,0,0
20.63,0.008601,0.64029,0.00042991,0.00061081,0,0,0
21.13,0.008967,0.65785,0.00038892,0.00067477,0,0,0
21.63,0.00934,0.67486,0.00032595,0.00051387,0,0,0
22.12,0.009608,0.69085,0.00049388,0.00050987,0,0,0
22.63,0.010018,0.70629,0.00054685,0.00074172,0,0,0
23.13,0.010508,0.72186,0.00042591,0.00069476,0,0,0
23.63,0.010978,0.73814,0.00060382,0.00093956,0,0,0
24.12,0.01126,0.75371,0.0006378,0.00071474,0,0,0
24.63,0.011546,0.76915,0.00052386,0.00074172,0,0,0
25.13,0.011948,0.78629,0.00065479,0.00083565,0,0,0
25.63,0.012371,0.80357,0.0006378,0.00060782,0,0,0
26.13,0.012596,0.82015,0.00068776,0.00078169,0,0,0
26.62,0.012858,0.83614,0.00056384,0.00087562,0,0,0
27.13,0.012939,0.852,0.00080867,0.00084864,0,0,0
27.63,0.013271,0.86786,0.00073473,0.00059382,0,0,0
28.13,0.013439,0.88414,0.00072873,0.00072474,0,0,0
28.63,0.013449,0.89971,0.00075172,0.00069176,0,0,0
29.13,0.01358,0.91515,0.0007787,0.00081567,0,0,0
29.63,0.013976,0.93229,0.00070775,0.00074472,0,0,0
30.13,0.013956,0.94985,0.00091958,0.0008996,0,0,0
30.63,0.014322,0.96657,0.00075472,0.00081167,0,0,0
31.13,0.014634,0.98243,0.00082266,0.00094256,0,0,0
31.63,0.014822,0.99771,0.00088261,0.00093257,0,0,0
32.13,0.01504,1.0131,0.00093257,0.00085563,0,0,0
32.63,0.015527,1.0289,0.0010574,0.0010804,0,0,0
33.13,0.016222,1.044,0.00086263,0.0009965,0,0,0
33.63,0.016595,1.0591,0.0010335,0.00098352,0,0,0
34.13,0.017122,1.076,0.0009965,0.0010435,0,0,0
34.62,0.017605,1.0931,0.0011773,0.0011304,0,0,0
35.13,0.01783,1.1099,0.0012043,0.0011713,0,0,0
35.63,0.01826,1.1256,0.0013551,0.0010574,0,0,0
36.13,0.018596,1.1403,0.001399,0.0012043,0,0,0
36.63,0.019062,1.1551,0.0012482,0.0012612,0,0,0
37.12,0.019224,1.1711,0.0013691,0.0012282,0,0,0
37.63,0.019479,1.1867,0.0013391,0.001392,0,0,0
38.12,0.019694,1.2019,0.0013022,0.0011304,0,0,0
38.62,0.019744,1.2183,0.001399,0.0012342,0,0,0
39.13,0.020063,1.2346,0.001382,0.0012243,0,0,0
39.63,0.020076,1.2504,0.001439,0.0013022,0,0,0
40.13,0.020462,1.2656,0.0015198,0.0011643,0,0,0
40.63,0.020523,1.2803,0.0017145,0.0013751,0,0,0
41.13,0.020953,1.2951,0.0016736,0.001382,0,0,0
41.62,0.021171,1.3106,0.0015698,0.0013351,0,0,0
42.13,0.02152,1.3253,0.0016167,0.0012312,0,0,0
42.63,0.021721,1.3399,0.0015159,0.001419,0,0,0
43.13,0.021812,1.356,0.0017145,0.0015768,0,0,0
43.62,0.022339,1.3719,0.0016906,0.0016636,0,0,0
44.13,0.022849,1.3871,0.0017205,0.0016776,0,0,0
44.62,0.023601,1.4021,0.0019621,0.0016976,0,0,0
45.13,0.024018,1.4167,0.0019321,0.0017674,0,0,0
45.63,0.02438,1.4314,0.0021936,0.0018243,0,0,0
46.12,0.024864,1.4466,0.0021996,0.0018922,0,0,0
46.62,0.025062,1.461,0.0022904,0.002016,0,0,0
47.13,0.025569,1.4751,0.0024041,0.0022235,0,0,0
47.62,0.025921,1.4907,0.0024749,0.0022365,0,0,0
48.12,0.026307,1.5064,0.0026654,0.0022265,0,0,0
48.63,0.026563,1.5219,0.0026994,0.0021866,0,0,0
49.13,0.026871,1.5369,0.0024181,0.0024081,0,0,0
49.63,0.027043,1.551,0.0026684,0.0022096,0,0,0
50.12,0.027492,1.5649,0.0025617,0.0021796,0,0,0
50.63,0.027808,1.5794,0.0027821,0.0022195,0,0,0
51.13,0.027929,1.5937,0.0027023,0.0023143,0,0,0
51.63,0.028261,1.6079,0.0028759,0.0024111,0,0,0
52.13,0.028449,1.6233,0.0028729,0.002458,0,0,0
52.62,0.028584,1.6386,0.00284,0.0024181,0,0,0
53.13,0.029547,1.6531,0.0030773,0.0026724,0,0,0
53.63,0.029836,1.6671,0.0031072,0.0026754,0,0,0
54.13,0.030239,1.681,0.0032039,0.0028459,0,0,0
54.62,0.030843,1.6949,0.0032986,0.0028928,0,0,0
55.13,0.031494,1.7091,0.0033115,0.0029128,0,0,0
55.63,0.031857,1.7227,0.0034859,0.0031171,0,0,0
56.12,0.032468,1.7361,0.0036862,0.0033185,0,0,0
56.62,0.032716,1.751,0.0039502,0.0033514,0,0,0
57.13,0.033394,1.7659,0.0041643,0.0036424,0,0,0
57.62,0.033626,1.7799,0.0043117,0.0038336,0,0,0
58.12,0.034227,1.7931,0.0042818,0.0039074,0,0,0
58.62,0.034657,1.806,0.0045486,0.0040707,0,0,0
59.12,0.035154,1.8189,0.0045885,0.0042012,0,0,0
59.63,0.035506,1.8321,0.0045457,0.0041544,0,0,0
60.12,0.036084,1.845,0.0045984,0.0041145,0,0,0
60.62,0.036681,1.8576,0.00489,0.0043913,0,0,0
61.12,0.037349,1.871,0.004896,0.0045019,0,0,0
61.62,0.038316,1.8841,0.0051338,0.0045257,0,0,0
62.13,0.039061,1.8966,0.0051437,0.0048224,0,0,0
62.63,0.040126,1.9084,0.0052999,0.0047865,0,0,0
63.13,0.040975,1.9197,0.0056242,0.0049527,0,0,0
63.62,0.041969,1.9306,0.0059612,0.0052373,0,0,0
64.13,0.042973,1.9411,0.0060278,0.0054044,0,0,0
64.62,0.043929,1.951,0.0064084,0.0057375,0,0,0
65.12,0.045067,1.9609,0.0067849,0.0059045,0,0,0
65.63,0.046044,1.9717,0.0070858,0.0063289,0,0,0
66.13,0.047005,1.9821,0.0074085,0.0067224,0,0,0
66.62,0.047945,1.9916,0.0080088,0.0072854,0,0,0
67.13,0.049136,2.0004,0.0084482,0.0075554,0,0,0
67.62,0.050577,2.0087,0.0089538,0.0080019,0,0,0
68.12,0.051789,2.0169,0.0094264,0.008471,0,0,0
68.62,0.053283,2.0254,0.009679,0.0089409,0,0,0
69.12,0.054766,2.0337,0.0099682,0.0091133,0,0,0
69.62,0.056267,2.0419,0.010215,0.0097186,0,0,0
70.13,0.057885,2.0499,0.010553,0.0099355,0,0,0
70.62,0.059517,2.0579,0.010696,0.010205,0,0,0
71.13,0.061501,2.066,0.010959,0.010367,0,0,0
71.62,0.063143,2.0744,0.011181,0.010756,0,0,0
72.12,0.064757,2.082,0.011656,0.010952,0,0,0
72.62,0.066402,2.0896,0.01206,0.011177,0,0,0
73.12,0.068172,2.0971,0.01212,0.01147,0,0,0
73.63,0.06977,2.1043,0.012621,0.01194,0,0,0
74.12,0.071301,2.1113,0.013221,0.012312,0,0,0
74.62,0.072737,2.119,0.013479,0.01271,0,0,0
75.12,0.074436,2.1264,0.014142,0.013184,0,0,0
75.63,0.076115,2.1336,0.014598,0.013893,0,0,0
76.13,0.077887,2.1404,0.015019,0.014125,0,0,0
76.62,0.079851,2.1473,0.01557,0.014727,0,0,0
77.12,0.081789,2.154,0.016258,0.014985,0,0,0
77.62,0.083722,2.1607,0.01666,0.015738,0,0,0
78.12,0.085938,2.167,0.017034,0.016191,0,0,0
78.62,0.087727,2.1733,0.017357,0.016714,0,0,0
79.13,0.089829,2.1797,0.017694,0.017096,0,0,0
79.63,0.091726,2.1866,0.018139,0.017422,0,0,0
80.12,0.093263,2.1937,0.018425,0.017967,0,0,0
80.62,0.095227,2.2007,0.01864,0.018056,0,0,0
81.12,0.096862,2.2067,0.018983,0.018551,0,0,0
81.62,0.09893,2.2126,0.019339,0.018906,0,0,0
82.12,0.10058,2.2187,0.01952,0.019285,0,0,0
82.62,0.10255,2.2247,0.020076,0.019483,0,0,0
83.13,0.10452,2.2306,0.020379,0.019944,0,0,0
83.62,0.10662,2.237,0.020744,0.020358,0,0,0
84.12,0.10895,2.2434,0.021221,0.020703,0,0,0
84.63,0.11117,2.2496,0.021711,0.02123,0,0,0
85.12,0.11317,2.2554,0.022078,0.021657,0,0,0
85.62,0.11518,2.261,0.022673,0.022202,0,0,0
86.13,0.11712,2.2666,0.023177,0.022649,0,0,0
86.62,0.11882,2.2724,0.023568,0.023121,0,0,0
87.12,0.1206,2.278,0.023916,0.023548,0,0,0
87.63,0.12248,2.2833,0.024542,0.023902,0,0,0
88.12,0.12424,2.2893,0.024745,0.024504,0,0,0
88.63,0.12619,2.2954,0.025226,0.024986,0,0,0
89.13,0.12862,2.3013,0.025626,0.025379,0,0,0
89.62,0.13072,2.3067,0.025927,0.025661,0,0,0
90.12,0.13279,2.312,0.026319,0.026276,0,0,0
90.62,0.13498,2.3173,0.026512,0.026652,0,0,0
91.13,0.13717,2.3227,0.026999,0.026939,0,0,0
91.63,0.13931,2.328,0.027424,0.027456,0,0,0
92.12,0.1415,2.333,0.028077,0.027824,0,0,0
92.62,0.1434,2.3386,0.028505,0.028415,0,0,0
93.12,0.14548,2.3441,0.028661,0.028904,0,0,0
93.62,0.14738,2.3496,0.029213,0.029107,0,0,0
94.12,0.14915,2.3547,0.029568,0.029742,0,0,0
94.62,0.15145,2.3597,0.029878,0.030215,0,0,0
95.12,0.15348,2.3646,0.030282,0.030606,0,0,0
95.63,0.15563,2.3697,0.030783,0.031179,0,0,0
96.12,0.15815,2.3747,0.031096,0.031797,0,0,0
96.63,0.16074,2.3796,0.031691,0.031924,0,0,0
97.13,0.16296,2.3847,0.032123,0.032489,0,0,0
97.63,0.16487,2.3897,0.032309,0.032863,0,0,0
98.12,0.16698,2.3946,0.032702,0.033279,0,0,0
98.62,0.16906,2.3994,0.033069,0.0336,0,0,0
99.12,0.17114,2.4043,0.033599,0.034009,0,0,0
99.63,0.17287,2.409,0.033778,0.034499,0,0,0
100.12,0.17528,2.4137,0.034296,0.034855,0,0,0
100.62,0.17716,2.4183,0.034563,0.035246,0,0,0
101.12,0.1793,2.4227,0.035059,0.035628,0,0,0
101.63,0.18152,2.4276,0.035322,0.036051,0,0,0
102.12,0.18404,2.4324,0.035836,0.03646,0,0,0
102.62,0.18624,2.4373,0.036238,0.036826,0,0,0
103.12,0.18849,2.4417,0.036616,0.037491,0,0,0
103.63,0.19077,2.446,0.03716,0.037686,0,0,0
104.12,0.19289,2.4503,0.037426,0.038225,0,0,0
104.62,0.19496,2.4547,0.037839,0.038707,0,0,0
105.12,0.19675,2.459,0.038408,0.03914,0,0,0
105.63,0.19901,2.4636,0.03866,0.039611,0,0,0
106.12,0.20104,2.4684,0.038951,0.040134,0,0,0
106.63,0.20308,2.473,0.039483,0.040356,0,0,0
107.12,0.20546,2.4773,0.039755,0.040827,0,0,0
107.63,0.20744,2.4814,0.040248,0.04115,0,0,0
108.12,0.20953,2.4853,0.040393,0.041535,0,0,0
108.63,0.21171,2.4893,0.040954,0.041858,0,0,0
109.12,0.21405,2.4934,0.041225,0.042206,0,0,0
109.62,0.21663,2.4973,0.041525,0.042569,0,0,0
110.12,0.21864,2.501,0.041963,0.042872,0,0,0
110.62,0.22044,2.5053,0.042069,0.043261,0,0,0
111.13,0.22227,2.5094,0.042456,0.043688,0,0,0
111.62,0.22426,2.5136,0.042983,0.044028,0,0,0
112.12,0.22628,2.5174,0.043198,0.044376,0,0,0
112.62,0.22801,2.521,0.043575,0.044825,0,0,0
113.12,0.23001,2.5246,0.044034,0.045207,0,0,0
113.62,0.23184,2.5284,0.044342,0.045445,0,0,0
114.12,0.23385,2.532,0.044837,0.045941,0,0,0
114.62,0.23583,2.5353,0.045164,0.046394,0,0,0
115.12,0.23819,2.539,0.045453,0.046746,0,0,0
115.62,0.24023,2.5427,0.045934,0.047118,0,0,0
116.12,0.24226,2.5463,0.046383,0.047694,0,0,0
116.62,0.24401,2.5497,0.046672,0.047854,0,0,0
117.12,0.24592,2.553,0.047088,0.048302,0,0,0
117.62,0.24773,2.5563,0.047344,0.048558,0,0,0
118.12,0.24935,2.5597,0.047408,0.048909,0,0,0
118.62,0.25122,2.5627,0.047793,0.049357,0,0,0
119.12,0.25254,2.5656,0.048049,0.04974,0,0,0
119.62,0.25448,2.5687,0.048336,0.049964,0,0,0
120.12,0.25612,2.572,0.048497,0.050027,0,0,0
120.62,0.25828,2.5753,0.048944,0.050411,0,0,0
121.12,0.25992,2.5787,0.048976,0.05073,0,0,0
121.62,0.26186,2.5817,0.049264,0.051113,0,0,0
122.12,0.26397,2.5846,0.049584,0.051304,0,0,0
122.63,0.26563,2.5874,0.049903,0.051592,0,0,0
123.12,0.26765,2.5903,0.050126,0.051815,0,0,0
123.62,0.26936,2.593,0.050382,0.052165,0,0,0
124.12,0.27091,2.5963,0.05086,0.052548,0,0,0
124.62,0.27274,2.5994,0.051244,0.052834,0,0,0
125.12,0.27425,2.6023,0.051626,0.053249,0,0,0
125.62,0.27605,2.605,0.052009,0.053503,0,0,0
126.12,0.27774,2.608,0.052264,0.054012,0,0,0
126.62,0.27951,2.611,0.052518,0.054203,0,0,0
127.12,0.28158,2.614,0.052996,0.054712,0,0,0
127.62,0.28361,2.6167,0.053187,0.054902,0,0,0
128.12,0.28567,2.6193,0.053315,0.055315,0,0,0
128.62,0.28763,2.6223,0.053601,0.055474,0,0,0
129.12,0.28963,2.6254,0.053824,0.056077,0,0,0
129.62,0.29146,2.6283,0.054206,0.056077,0,0,0
130.12,0.29322,2.631,0.054365,0.056268,0,0,0
130.62,0.29499,2.6337,0.054524,0.056617,0,0,0
131.12,0.29668,2.6363,0.054683,0.056996,0,0,0
131.62,0.29872,2.639,0.055192,0.057472,0,0,0
132.12,0.30053,2.6417,0.055636,0.057568,0,0,0
132.62,0.30224,2.6446,0.055892,0.057916,0,0,0
133.12,0.304,2.6477,0.056208,0.05817,0,0,0
133.62,0.30624,2.6507,0.056526,0.058518,0,0,0
134.12,0.30823,2.6533,0.05678,0.05874,0,0,0
134.62,0.31025,2.6557,0.05716,0.059246,0,0,0
135.12,0.31249,2.6583,0.057477,0.059467,0,0,0
135.62,0.31435,2.661,0.05789,0.059879,0,0,0
136.12,0.31615,2.6637,0.058174,0.060226,0,0,0
136.62,0.3181,2.6663,0.058459,0.060669,0,0,0
137.12,0.3197,2.669,0.058618,0.060764,0,0,0
137.62,0.32138,2.6717,0.058872,0.061016,0,0,0
138.12,0.3231,2.6743,0.058998,0.061521,0,0,0
138.62,0.32491,2.677,0.059504,0.061806,0,0,0
139.12,0.32668,2.6797,0.059631,0.06209,0,0,0
139.62,0.32874,2.6823,0.059979,0.062374,0,0,0
140.12,0.33068,2.685,0.060232,0.0625,0,0,0
140.62,0.33263,2.6877,0.060422,0.062941,0,0,0
141.12,0.33474,2.69,0.060579,0.06335,0,0,0
141.62,0.33647,2.6923,0.061023,0.063572,0,0,0
142.12,0.3384,2.695,0.06137,0.063823,0,0,0
142.62,0.3406,2.6977,0.061686,0.064265,0,0,0
143.12,0.34228,2.7003,0.061938,0.064359,0,0,0
143.62,0.34406,2.703,0.062222,0.06483,0,0,0
144.12,0.34585,2.7057,0.062379,0.065082,0,0,0
144.62,0.3477,2.7083,0.062696,0.065428,0,0,0
145.12,0.34923,2.7107,0.062822,0.065743,0,0,0
145.62,0.35109,2.713,0.063073,0.066026,0,0,0
146.12,0.35285,2.7153,0.063453,0.066215,0,0,0
146.62,0.35505,2.718,0.063546,0.066592,0,0,0
147.12,0.35696,2.7207,0.063894,0.066968,0,0,0
147.62,0.35921,2.7233,0.064051,0.067219,0,0,0
148.12,0.36133,2.7257,0.064366,0.067596,0,0,0
148.62,0.36338,2.728,0.064461,0.06791,0,0,0
149.12,0.36501,2.7303,0.064964,0.06816,0,0,0
149.62,0.36682,2.7327,0.065185,0.068412,0,0,0
150.12,0.36844,2.7353,0.065153,0.068882,0,0,0
150.62,0.37046,2.7377,0.065656,0.068913,0,0,0
151.12,0.37197,2.7403,0.066034,0.069289,0,0,0
151.62,0.37375,2.7427,0.06619,0.069853,0,0,0
152.12,0.37577,2.745,0.066348,0.069947,0,0,0
152.62,0.37758,2.7473,0.066693,0.07026,0,0,0
153.12,0.37955,2.7497,0.067007,0.070541,0,0,0
153.62,0.38141,2.752,0.067354,0.071011,0,0,0
154.12,0.38347,2.754,0.067478,0.071072,0,0,0
154.62,0.3856,2.7563,0.067573,0.071666,0,0,0
155.12,0.38765,2.7587,0.067887,0.071948,0,0,0
155.62,0.38938,2.7613,0.068232,0.072198,0,0,0
156.12,0.39126,2.7637,0.068451,0.072386,0,0,0
156.62,0.39306,2.766,0.068639,0.072697,0,0,0
157.12,0.39484,2.768,0.068921,0.072979,0,0,0
157.62,0.39621,2.7703,0.069235,0.073322,0,0,0
158.12,0.39829,2.7727,0.069548,0.073571,0,0,0
158.62,0.39996,2.775,0.069861,0.073945,0,0,0
159.12,0.40213,2.777,0.069987,0.074289,0,0,0
159.62,0.4037,2.7793,0.07033,0.074445,0,0,0
160.12,0.4057,2.7817,0.070644,0.074819,0,0,0
160.62,0.40788,2.784,0.070831,0.07513,0,0,0
161.12,0.4099,2.7863,0.071143,0.075535,0,0,0
161.62,0.41174,2.7887,0.071395,0.075691,0,0,0
162.12,0.41339,2.791,0.071801,0.076033,0,0,0
162.62,0.41502,2.793,0.071925,0.076375,0,0,0
163.12,0.41674,2.795,0.072145,0.076686,0,0,0
163.62,0.41861,2.797,0.072363,0.076966,0,0,0
164.12,0.42034,2.7993,0.072706,0.077307,0,0,0
164.62,0.42213,2.8017,0.072863,0.077526,0,0,0
165.12,0.42406,2.804,0.073237,0.077867,0,0,0
165.62,0.4256,2.806,0.073518,0.078115,0,0,0
166.12,0.4278,2.808,0.073736,0.078364,0,0,0
166.62,0.42973,2.81,0.074141,0.078829,0,0,0
167.12,0.43169,2.8123,0.074235,0.078953,0,0,0
167.62,0.43346,2.8147,0.074578,0.079294,0,0,0
168.12,0.43564,2.8167,0.074826,0.079511,0,0,0
168.62,0.43719,2.8186,0.075076,0.079852,0,0,0
169.12,0.43911,2.8207,0.0752,0.080224,0,0,0
169.62,0.44081,2.823,0.075513,0.080472,0,0,0
170.12,0.44254,2.825,0.075823,0.080566,0,0,0
170.62,0.44422,2.827,0.076227,0.080968,0,0,0
171.12,0.44599,2.829,0.076321,0.081308,0,0,0
171.62,0.44774,2.831,0.076508,0.081556,0,0,0
172.12,0.44965,2.8333,0.076818,0.081741,0,0,0
172.62,0.45147,2.8354,0.077223,0.081989,0,0,0
173.12,0.45346,2.8376,0.077441,0.082051,0,0,0
173.62,0.45555,2.8397,0.077658,0.082638,0,0,0
174.12,0.45752,2.842,0.077844,0.082763,0,0,0
174.62,0.45942,2.844,0.078123,0.083164,0,0,0
175.12,0.46124,2.846,0.078434,0.083503,0,0,0
175.62,0.46297,2.848,0.078589,0.083813,0,0,0
176.12,0.46492,2.85,0.079086,0.084183,0,0,0
176.62,0.46622,2.852,0.079086,0.084337,0,0,0
177.12,0.46818,2.854,0.079272,0.084584,0,0,0
177.62,0.47012,2.856,0.079644,0.084924,0,0,0
178.12,0.47181,2.858,0.079892,0.085139,0,0,0
178.62,0.47373,2.86,0.080139,0.08551,0,0,0
179.12,0.47466,2.862,0.080294,0.085694,0,0,0
179.62,0.47735,2.864,0.080573,0.086094,0,0,0
180.12,0.4791,2.8657,0.080697,0.086125,0,0,0
180.62,0.48121,2.8676,0.081007,0.086495,0,0,0
181.12,0.48313,2.8697,0.081409,0.086741,0,0,0
181.62,0.48478,2.8717,0.081503,0.086833,0,0,0
182.12,0.48656,2.8736,0.081904,0.087172,0,0,0
182.62,0.48821,2.8757,0.082029,0.08748,0,0,0
183.12,0.48989,2.8777,0.0824,0.087787,0,0,0
183.62,0.4915,2.8793,0.082523,0.087971,0,0,0
184.12,0.49317,2.881,0.082863,0.08831,0,0,0
184.62,0.49498,2.8827,0.083142,0.088618,0,0,0
185.12,0.4965,2.8846,0.083234,0.089078,0,0,0
185.62,0.49838,2.8867,0.08342,0.08917,0,0,0
186.12,0.50059,2.889,0.083821,0.089416,0,0,0
186.62,0.5024,2.891,0.084067,0.089814,0,0,0
187.12,0.50415,2.893,0.084161,0.090121,0,0,0
187.62,0.50623,2.8947,0.084593,0.090398,0,0,0
188.12,0.50788,2.8966,0.084716,0.090459,0,0,0
188.62,0.50945,2.8987,0.085055,0.090796,0,0,0
189.12,0.5115,2.9007,0.085272,0.091011,0,0,0
189.62,0.51301,2.9026,0.085426,0.091471,0,0,0
190.12,0.51493,2.9044,0.085826,0.091716,0,0,0
190.62,0.51654,2.906,0.086135,0.091808,0,0,0
191.12,0.51815,2.9076,0.08632,0.092175,0,0,0
191.62,0.52,2.9097,0.086473,0.09239,0,0,0
192.12,0.52174,2.9117,0.086811,0.092512,0,0,0
192.62,0.52366,2.9133,0.087058,0.092818,0,0,0
193.12,0.52564,2.915,0.087335,0.093154,0,0,0
193.62,0.52768,2.917,0.087521,0.093398,0,0,0
194.12,0.5295,2.919,0.087919,0.093766,0,0,0
194.62,0.53144,2.921,0.088043,0.09401,0,0,0
195.12,0.53302,2.923,0.088167,0.094347,0,0,0
195.62,0.53484,2.9247,0.088505,0.094469,0,0,0
196.12,0.53625,2.9263,0.088782,0.09511,0,0,0
196.62,0.53816,2.928,0.088934,0.095232,0,0,0
197.12,0.53994,2.93,0.089027,0.095507,0,0,0
197.62,0.54172,2.932,0.089488,0.095782,0,0,0
198.12,0.54323,2.9337,0.089763,0.096117,0,0,0
198.62,0.54531,2.9353,0.089949,0.096331,0,0,0
199.12,0.54712,2.937,0.090193,0.096575,0,0,0
199.62,0.5491,2.939,0.090622,0.097001,0,0,0
200.12,0.55105,2.941,0.090746,0.097092,0,0,0
200.62,0.55283,2.9427,0.090961,0.097366,0,0,0
201.12,0.55471,2.9443,0.091267,0.097549,0,0,0
201.62,0.55659,2.946,0.091727,0.097976,0,0,0
202.12,0.55834,2.948,0.091665,0.098189,0,0,0
202.62,0.55995,2.95,0.092124,0.098371,0,0,0
203.12,0.56183,2.952,0.092309,0.098675,0,0,0
203.62,0.56334,2.9537,0.092738,0.098918,0,0,0
204.12,0.56502,2.9553,0.092921,0.099405,0,0,0
204.62,0.5669,2.9567,0.093103,0.099466,0,0,0
205.12,0.56864,2.9583,0.093379,0.099831,0,0,0
205.62,0.57062,2.96,0.093533,0.099982,0,0,0
206.12,0.57247,2.962,0.093777,0.10035,0,0,0
206.62,0.57435,2.964,0.0939,0.10083,0,0,0
207.12,0.5761,2.966,0.094236,0.10092,0,0,0
207.62,0.57814,2.9677,0.094603,0.10126,0,0,0
208.12,0.57999,2.9693,0.094755,0.10159,0,0,0
208.62,0.58157,2.971,0.094969,0.10196,0,0,0
209.12,0.58321,2.9727,0.095244,0.10217,0,0,0
209.62,0.58493,2.9743,0.095488,0.10241,0,0,0
210.12,0.58684,2.976,0.095824,0.10283,0,0,0
210.62,0.58842,2.9777,0.096221,0.10305,0,0,0
211.12,0.59023,2.9793,0.096372,0.10323,0,0,0
211.62,0.59198,2.981,0.096709,0.10353,0,0,0
212.12,0.59389,2.983,0.096952,0.10383,0,0,0
212.62,0.59577,2.9847,0.097196,0.1042,0,0,0
213.12,0.59765,2.9863,0.097349,0.1045,0,0,0
213.62,0.59973,2.988,0.097684,0.1048,0,0,0
214.12,0.60151,2.99,0.097837,0.10498,0,0,0
214.62,0.60329,2.9917,0.098202,0.10519,0,0,0
215.12,0.6051,2.9933,0.098385,0.10544,0,0,0
215.62,0.60671,2.9947,0.098568,0.10601,0,0,0
216.12,0.60846,2.9963,0.098842,0.10625,0,0,0
216.62,0.61024,2.998,0.099085,0.10622,0,0,0
217.12,0.61205,3,0.09948,0.10664,0,0,0
217.62,0.61393,3.0017,0.099662,0.10688,0,0,0
218.12,0.61554,3.0033,0.099723,0.10719,0,0,0
218.62,0.61752,3.005,0.10012,0.10752,0,0,0
219.12,0.6195,3.007,0.10042,0.10782,0,0,0
219.62,0.62155,3.0087,0.10054,0.10812,0,0,0
220.12,0.6236,3.0103,0.10088,0.10854,0,0,0
220.62,0.62521,3.0117,0.1013,0.10869,0,0,0
221.12,0.62706,3.0133,0.10154,0.10888,0,0,0
221.62,0.62877,3.015,0.10185,0.10936,0,0,0
222.12,0.63055,3.017,0.10203,0.10963,0,0,0
222.62,0.6323,3.0187,0.10221,0.10969,0,0,0
223.12,0.63411,3.0203,0.10258,0.11005,0,0,0
223.62,0.63599,3.0217,0.10288,0.1105,0,0,0
224.12,0.6375,3.0233,0.10315,0.11083,0,0,0
224.62,0.63914,3.025,0.10342,0.11116,0,0,0
225.12,0.64119,3.0267,0.10358,0.11131,0,0,0
225.62,0.64307,3.0283,0.10382,0.1114,0,0,0
226.12,0.64489,3.03,0.10394,0.11182,0,0,0
226.62,0.6468,3.0317,0.10436,0.11197,0,0,0
227.12,0.64854,3.0333,0.10451,0.1123,0,0,0
227.62,0.65059,3.035,0.10482,0.11251,0,0,0
228.12,0.6522,3.0367,0.10485,0.11269,0,0,0
228.62,0.65382,3.0383,0.10524,0.11311,0,0,0
229.12,0.65559,3.0397,0.10557,0.11332,0,0,0
229.62,0.65737,3.0413,0.10572,0.11383,0,0,0
230.12,0.65902,3.043,0.10612,0.11395,0,0,0
230.62,0.66053,3.0447,0.10633,0.11431,0,0,0
231.12,0.66241,3.0463,0.10666,0.1147,0,0,0
231.62,0.66429,3.048,0.10687,0.115,0,0,0
232.12,0.66627,3.0497,0.10714,0.11536,0,0,0
232.62,0.66788,3.0513,0.10741,0.11551,0,0,0
233.12,0.66996,3.0527,0.10777,0.11575,0,0,0
233.62,0.67181,3.0543,0.10805,0.11622,0,0,0
234.12,0.67356,3.056,0.10838,0.11658,0,0,0
234.62,0.67534,3.0577,0.10859,0.11652,0,0,0
235.12,0.67745,3.0593,0.10886,0.11685,0,0,0
235.62,0.67889,3.061,0.10913,0.11742,0,0,0
236.12,0.68074,3.0627,0.10931,0.11757,0,0,0
236.62,0.68232,3.0643,0.10961,0.11769,0,0,0
237.12,0.68393,3.0657,0.1097,0.11811,0,0,0
237.62,0.68594,3.0673,0.11006,0.11834,0,0,0
238.12,0.68786,3.0687,0.11021,0.11858,0,0,0
238.62,0.68994,3.0703,0.11051,0.11894,0,0,0
239.12,0.69178,3.072,0.11079,0.11912,0,0,0
239.62,0.69366,3.0737,0.11094,0.11948,0,0,0
240.12,0.69548,3.0753,0.11127,0.11966,0,0,0
240.62,0.69763,3.0767,0.11148,0.12007,0,0,0
241.12,0.69904,3.0783,0.11175,0.12031,0,0,0
241.62,0.70085,3.08,0.11208,0.12064,0,0,0
242.12,0.70273,3.0817,0.11244,0.12094,0,0,0
242.62,0.70454,3.0833,0.11259,0.12129,0,0,0
243.12,0.70622,3.0847,0.11289,0.12171,0,0,0
243.62,0.7079,3.0863,0.11325,0.12192,0,0,0
244.12,0.70958,3.0877,0.11343,0.12233,0,0,0
244.62,0.71173,3.0893,0.11379,0.12257,0,0,0
245.12,0.71364,3.0907,0.11406,0.12275,0,0,0
245.62,0.71566,3.0923,0.1143,0.12305,0,0,0
246.12,0.71747,3.0937,0.11459,0.1234,0,0,0
246.62,0.71945,3.095,0.11483,0.12361,0,0,0
247.12,0.72103,3.0963,0.11501,0.12391,0,0,0
247.62,0.72294,3.098,0.11525,0.12402,0,0,0
248.12,0.72465,3.1,0.11543,0.12423,0,0,0
248.62,0.72636,3.1017,0.11567,0.12468,0,0,0
249.12,0.72814,3.1033,0.11612,0.12483,0,0,0
249.62,0.72959,3.1047,0.11618,0.12503,0,0,0
250.12,0.7315,3.1063,0.11663,0.12539,0,0,0
250.62,0.73348,3.1077,0.1169,0.12583,0,0,0
251.12,0.73516,3.1093,0.11711,0.12613,0,0,0
251.62,0.73677,3.1107,0.11726,0.12654,0,0,0
252.12,0.73882,3.112,0.11785,0.12678,0,0,0
252.62,0.74073,3.1133,0.11794,0.12713,0,0,0
253.12,0.74261,3.115,0.1183,0.12743,0,0,0
253.62,0.74466,3.1167,0.11857,0.12755,0,0,0
254.12,0.74644,3.118,0.11887,0.12799,0,0,0
254.62,0.74792,3.1193,0.1191,0.12826,0,0,0
255.12,0.74993,3.121,0.1194,0.12858,0,0,0
255.62,0.75121,3.1227,0.11961,0.12876,0,0,0
256.12,0.75302,3.1243,0.1197,0.12905,0,0,0
256.62,0.75477,3.1257,0.12018,0.12926,0,0,0
257.12,0.75658,3.127,0.12042,0.12964,0,0,0
257.62,0.75843,3.1283,0.12086,0.12982,0,0,0
258.12,0.76017,3.13,0.12101,0.13017,0,0,0
258.62,0.76188,3.1317,0.12101,0.13041,0,0,0
259.12,0.76403,3.1333,0.12152,0.13065,0,0,0
259.62,0.76601,3.1347,0.12173,0.13085,0,0,0
260.12,0.76783,3.1363,0.12184,0.13127,0,0,0
260.62,0.76957,3.1377,0.12232,0.13138,0,0,0
261.12,0.77135,3.1393,0.12253,0.13168,0,0,0
261.62,0.7733,3.1407,0.12259,0.13203,0,0,0
262.12,0.77488,3.142,0.12294,0.13247,0,0,0
262.62,0.77669,3.1433,0.12321,0.13271,0,0,0
263.12,0.77813,3.1447,0.12351,0.13297,0,0,0
263.62,0.78001,3.1463,0.1238,0.13321,0,0,0
264.12,0.78196,3.1477,0.1241,0.13341,0,0,0
264.62,0.78397,3.149,0.12434,0.13382,0,0,0
265.12,0.78538,3.1503,0.1246,0.13418,0,0,0
265.62,0.78767,3.1517,0.12484,0.13435,0,0,0
266.12,0.78968,3.1533,0.12517,0.13482,0,0,0
266.62,0.79109,3.155,0.12543,0.13511,0,0,0
267.12,0.79317,3.1567,0.12567,0.13532,0,0,0
267.62,0.79482,3.1583,0.12606,0.13564,0,0,0
268.12,0.79673,3.1597,0.12638,0.13605,0,0,0
268.62,0.79834,3.1613,0.12659,0.13614,0,0,0
269.12,0.80012,3.1627,0.12659,0.13646,0,0,0
269.62,0.80193,3.164,0.12721,0.13673,0,0,0
270.12,0.80365,3.1653,0.12727,0.13699,0,0,0
270.62,0.80546,3.1667,0.12759,0.13722,0,0,0
271.12,0.80754,3.1683,0.12807,0.13755,0,0,0
271.62,0.80942,3.1697,0.12801,0.13798,0,0,0
272.12,0.8112,3.171,0.12839,0.13842,0,0,0
272.62,0.81288,3.1723,0.12869,0.13851,0,0,0
273.12,0.81493,3.1737,0.12883,0.13874,0,0,0
273.62,0.81657,3.175,0.12922,0.13921,0,0,0
274.12,0.81845,3.1763,0.12937,0.13945,0,0,0
274.62,0.82,3.1777,0.12957,0.13968,0,0,0
275.12,0.82174,3.1793,0.1299,0.14,0,0,0
275.62,0.82366,3.1807,0.13025,0.14023,0,0,0
276.12,0.82534,3.1823,0.13046,0.14076,0,0,0
276.62,0.82701,3.1837,0.13081,0.14114,0,0,0
277.12,0.82876,3.1853,0.13108,0.14137,0,0,0
277.62,0.83087,3.1867,0.13146,0.14169,0,0,0
278.12,0.83259,3.188,0.13164,0.14207,0,0,0
278.62,0.83467,3.1893,0.13172,0.14254,0,0,0
279.12,0.83655,3.1907,0.13213,0.14274,0,0,0
279.62,0.83816,3.1923,0.13237,0.14297,0,0,0
280.12,0.84017,3.1937,0.13272,0.14335,0,0,0
280.62,0.84209,3.195,0.13311,0.14364,0,0,0
281.12,0.8437,3.1963,0.13346,0.14376,0,0,0
281.62,0.84528,3.1977,0.13364,0.14431,0,0,0
282.12,0.84719,3.1993,0.13387,0.14448,0,0,0
282.62,0.84867,3.2007,0.13419,0.14475,0,0,0
283.12,0.85048,3.2023,0.13437,0.14486,0,0,0
283.62,0.85286,3.2037,0.13481,0.14535,0,0,0
284.12,0.85447,3.2053,0.13493,0.14556,0,0,0
284.62,0.85635,3.2067,0.13531,0.14582,0,0,0
285.12,0.85834,3.208,0.13554,0.14617,0,0,0
285.62,0.86035,3.209,0.13589,0.14643,0,0,0
286.12,0.86213,3.2103,0.1361,0.14689,0,0,0
286.62,0.86404,3.2117,0.13639,0.14707,0,0,0
287.12,0.86569,3.213,0.13642,0.14756,0,0,0
287.62,0.8678,3.2143,0.13683,0.14782,0,0,0
288.12,0.86935,3.2157,0.13707,0.1482,0,0,0
288.62,0.87113,3.2173,0.13742,0.14854,0,0,0
289.12,0.87254,3.2187,0.13777,0.14906,0,0,0
289.62,0.87482,3.22,0.13803,0.14915,0,0,0
290.12,0.87653,3.221,0.13815,0.14941,0,0,0
290.62,0.87848,3.2223,0.13844,0.14982,0,0,0
291.12,0.88023,3.2237,0.13897,0.15013,0,0,0
291.62,0.88231,3.2253,0.13905,0.15022,0,0,0
292.12,0.88415,3.2267,0.13929,0.15074,0,0,0
292.62,0.88573,3.2283,0.13976,0.15094,0,0,0
293.12,0.88788,3.23,0.13996,0.15138,0,0,0
293.62,0.88976,3.2317,0.14025,0.15149,0,0,0
294.12,0.8915,3.233,0.14049,0.15187,0,0,0
294.62,0.89308,3.234,0.14092,0.15233,0,0,0
295.12,0.89493,3.2353,0.14113,0.15227,0,0,0
295.62,0.89661,3.2367,0.14113,0.15299,0,0,0
296.12,0.89862,3.238,0.14148,0.15334,0,0,0
296.62,0.90033,3.239,0.14177,0.15354,0,0,0
297.12,0.90225,3.24,0.14194,0.15397,0,0,0
297.62,0.9044,3.241,0.14221,0.15429,0,0,0
298.12,0.90644,3.2423,0.1425,0.1546,0,0,0
298.62,0.90809,3.244,0.1429,0.15463,0,0,0
299.12,0.90987,3.2457,0.14314,0.15506,0,0,0
299.62,0.91151,3.247,0.14328,0.15535,0,0,0
300.12,0.91326,3.248,0.14369,0.15575,0,0,0
300.62,0.915,3.2493,0.14401,0.15592,0,0,0
301.12,0.91678,3.2507,0.1443,0.1563,0,0,0
301.62,0.9184,3.252,0.14468,0.15653,0,0,0
302.12,0.92041,3.2533,0.14508,0.1569,0,0,0
302.62,0.92199,3.2547,0.14517,0.15736,0,0,0
303.12,0.92404,3.2563,0.14549,0.15742,0,0,0
303.62,0.92575,3.2577,0.14584,0.15773,0,0,0
304.12,0.92783,3.2593,0.14627,0.15808,0,0,0
304.62,0.92961,3.2607,0.14642,0.15853,0,0,0
305.12,0.93152,3.262,0.14671,0.15888,0,0,0
305.62,0.93334,3.263,0.14691,0.15916,0,0,0
306.12,0.93538,3.264,0.14738,0.15951,0,0,0
306.62,0.93703,3.2653,0.14746,0.15962,0,0,0
307.12,0.93894,3.2667,0.14761,0.16005,0,0,0
307.62,0.94069,3.2683,0.14781,0.16028,0,0,0
308.12,0.9423,3.2694,0.14842,0.16077,0,0,0
308.62,0.94425,3.2706,0.14851,0.16077,0,0,0
309.12,0.94596,3.2717,0.14871,0.1612,0,0,0
309.62,0.94777,3.273,0.14897,0.16148,0,0,0
310.12,0.94982,3.2743,0.14934,0.16177,0,0,0
310.62,0.95187,3.2757,0.14984,0.16214,0,0,0
311.12,0.95375,3.277,0.1501,0.16251,0,0,0
311.62,0.95539,3.2783,0.15012,0.16274,0,0,0
312.12,0.95734,3.2797,0.15056,0.16325,0,0,0
312.62,0.95922,3.281,0.15116,0.16339,0,0,0
313.12,0.961,3.2823,0.15139,0.16374,0,0,0
313.62,0.96264,3.2837,0.15186,0.16422,0,0,0
314.12,0.96425,3.285,0.15223,0.16482,0,0,0
314.62,0.96617,3.286,0.15232,0.16493,0,0,0
315.12,0.96798,3.2873,0.15255,0.16539,0,0,0
315.62,0.96969,3.2887,0.15295,0.16553,0,0,0
316.12,0.97144,3.29,0.15318,0.16573,0,0,0
316.62,0.97355,3.2913,0.15347,0.16624,0,0,0
317.12,0.97537,3.2927,0.1537,0.16647,0,0,0
317.62,0.97738,3.2943,0.15396,0.16681,0,0,0
318.12,0.97913,3.2954,0.15425,0.16715,0,0,0
318.62,0.98104,3.2966,0.15456,0.1676,0,0,0
319.12,0.98272,3.2977,0.15468,0.1678,0,0,0
319.62,0.9846,3.299,0.15505,0.16823,0,0,0
320.12,0.98631,3.3003,0.15545,0.16834,0,0,0
320.62,0.98826,3.3017,0.15571,0.16862,0,0,0
321.12,0.9899,3.303,0.15612,0.16911,0,0,0
321.62,0.99168,3.304,0.15637,0.16945,0,0,0
322.12,0.99333,3.3053,0.15678,0.16979,0,0,0
322.62,0.99531,3.3067,0.15701,0.17013,0,0,0
323.12,0.99709,3.308,0.15744,0.17044,0,0,0
323.62,0.99927,3.309,0.15772,0.17081,0,0,0
324.12,1.0012,3.31,0.15795,0.1712,0,0,0
324.62,1.003,3.3113,0.15824,0.1716,0,0,0
325.12,1.0049,3.3127,0.15853,0.17197,0,0,0
325.62,1.0066,3.3143,0.15887,0.17239,0,0,0
326.12,1.0085,3.3154,0.15935,0.17264,0,0,0
326.62,1.0102,3.3166,0.15941,0.1729,0,0,0
327.12,1.012,3.3177,0.15993,0.17324,0,0,0
327.62,1.0139,3.319,0.16019,0.17349,0,0,0
328.12,1.0156,3.32,0.16039,0.174,0,0,0
328.62,1.0176,3.3213,0.16093,0.17437,0,0,0
329.12,1.0194,3.3227,0.16107,0.17448,0,0,0
329.62,1.0214,3.324,0.16133,0.17479,0,0,0
330.12,1.0233,3.325,0.16159,0.17533,0,0,0
330.62,1.0252,3.326,0.16213,0.17566,0,0,0
331.12,1.027,3.3273,0.1625,0.17586,0,0,0
331.62,1.0289,3.3287,0.1625,0.17625,0,0,0
332.12,1.0307,3.33,0.16282,0.17639,0,0,0
332.62,1.0327,3.331,0.16324,0.17693,0,0,0
333.12,1.0345,3.3323,0.1635,0.17701,0,0,0
333.62,1.0361,3.3337,0.16381,0.17758,0,0,0
334.12,1.0379,3.335,0.16407,0.17775,0,0,0
334.62,1.0398,3.336,0.16444,0.17805,0,0,0
335.12,1.0414,3.3373,0.16469,0.17845,0,0,0
335.62,1.0433,3.3387,0.16512,0.1789,0,0,0
336.12,1.0453,3.34,0.16544,0.17915,0,0,0
336.62,1.0472,3.341,0.16569,0.17963,0,0,0
337.12,1.0491,3.3423,0.16578,0.17985,0,0,0
337.62,1.051,3.3437,0.16635,0.18027,0,0,0
338.12,1.0528,3.345,0.16655,0.18041,0,0,0
338.62,1.0545,3.346,0.1668,0.18072,0,0,0
339.12,1.0562,3.347,0.1672,0.18097,0,0,0
339.62,1.0579,3.348,0.16728,0.18134,0,0,0
340.12,1.06,3.3493,0.16754,0.18162,0,0,0
340.62,1.0616,3.3507,0.16797,0.1819,0,0,0
341.12,1.0635,3.352,0.168,0.18215,0,0,0
341.62,1.0653,3.3533,0.16856,0.18265,0,0,0
342.12,1.0672,3.3544,0.16882,0.18293,0,0,0
342.62,1.069,3.3553,0.16899,0.18335,0,0,0
343.12,1.0709,3.356,0.16961,0.18372,0,0,0
343.62,1.0727,3.3573,0.16961,0.18402,0,0,0
344.12,1.0747,3.3587,0.16998,0.18428,0,0,0
344.62,1.0764,3.3603,0.17046,0.18467,0,0,0
345.12,1.0784,3.3614,0.17072,0.18497,0,0,0
345.62,1.0803,3.3626,0.17105,0.18539,0,0,0
346.12,1.0821,3.3637,0.17145,0.18578,0,0,0
346.62,1.084,3.365,0.17179,0.18609,0,0,0
347.12,1.0857,3.366,0.1723,0.18628,0,0,0
347.62,1.0876,3.367,0.17236,0.18673,0,0,0
348.12,1.0895,3.368,0.17286,0.18709,0,0,0
348.62,1.0909,3.3693,0.17335,0.18734,0,0,0
349.12,1.093,3.3707,0.17351,0.18765,0,0,0
349.62,1.0951,3.372,0.17368,0.1882,0,0,0
350.12,1.097,3.373,0.17399,0.1884,0,0,0
350.62,1.099,3.374,0.17442,0.18887,0,0,0
351.12,1.1009,3.375,0.17447,0.18907,0,0,0
351.62,1.1026,3.3763,0.17478,0.18957,0,0,0
352.12,1.1045,3.3777,0.17509,0.18976,0,0,0
352.62,1.1064,3.379,0.17509,0.19029,0,0,0
353.12,1.108,3.38,0.17577,0.19059,0,0,0
353.62,1.1099,3.3813,0.17597,0.19093,0,0,0
354.12,1.1118,3.3827,0.17647,0.1912,0,0,0
354.62,1.1136,3.384,0.17673,0.19168,0,0,0
355.12,1.1155,3.385,0.17729,0.19206,0,0,0
355.62,1.1174,3.386,0.17777,0.19237,0,0,0
356.12,1.1193,3.387,0.17799,0.19273,0,0,0
356.62,1.1213,3.388,0.17844,0.19295,0,0,0
357.12,1.1232,3.389,0.17883,0.19323,0,0,0
357.62,1.1249,3.39,0.17903,0.19364,0,0,0
358.12,1.127,3.3913,0.17931,0.19417,0,0,0
358.62,1.1288,3.3927,0.17973,0.19442,0,0,0
359.12,1.1306,3.394,0.18012,0.19469,0,0,0
359.62,1.1323,3.395,0.18013,0.19519,0,0,0
360.12,1.1341,3.396,0.18049,0.19558,0,0,0
360.62,1.1359,3.397,0.18088,0.19599,0,0,0
361.12,1.138,3.398,0.18097,0.19629,0,0,0
361.62,1.1399,3.3993,0.1813,0.1969,0,0,0
362.12,1.1417,3.4007,0.1817,0.19728,0,0,0
362.62,1.1436,3.402,0.18186,0.19764,0,0,0
363.12,1.1454,3.403,0.18242,0.19789,0,0,0
363.62,1.1474,3.404,0.18265,0.19836,0,0,0
364.12,1.1492,3.405,0.18312,0.19852,0,0,0
364.62,1.1513,3.406,0.18357,0.19899,0,0,0
365.12,1.1529,3.407,0.1839,0.19927,0,0,0
365.62,1.1547,3.4083,0.18416,0.19971,0,0,0
366.12,1.1564,3.4094,0.18469,0.19985,0,0,0
366.62,1.1581,3.4103,0.18496,0.20031,0,0,0
367.12,1.16,3.4113,0.18535,0.20083,0,0,0
367.62,1.162,3.4127,0.18577,0.20105,0,0,0
368.12,1.164,3.414,0.18591,0.20133,0,0,0
368.62,1.1659,3.415,0.18644,0.20185,0,0,0
369.12,1.1679,3.416,0.18669,0.20232,0,0,0
369.62,1.1698,3.417,0.18717,0.20254,0,0,0
370.12,1.1717,3.4183,0.18731,0.20281,0,0,0
370.62,1.1732,3.4197,0.18775,0.20338,0,0,0
371.12,1.1751,3.421,0.18811,0.20369,0,0,0
371.62,1.177,3.422,0.18828,0.2041,0,0,0
372.12,1.1788,3.423,0.18853,0.2047,0,0,0
372.62,1.1806,3.424,0.1887,0.20511,0,0,0
373.12,1.1826,3.425,0.1892,0.20536,0,0,0
373.62,1.1845,3.426,0.18948,0.20571,0,0,0
374.12,1.1863,3.427,0.18995,0.20623,0,0,0
374.62,1.1882,3.4283,0.19031,0.20664,0,0,0
375.12,1.1901,3.4294,0.1905,0.20689,0,0,0
375.62,1.1922,3.4303,0.19081,0.20718,0,0,0
376.12,1.1939,3.4313,0.19122,0.20762,0,0,0
376.62,1.1959,3.4324,0.19164,0.20792,0,0,0
377.12,1.1977,3.4333,0.19189,0.20825,0,0,0
377.62,1.1995,3.434,0.19236,0.20858,0,0,0
378.12,1.2012,3.4353,0.19255,0.20904,0,0,0
378.62,1.203,3.4367,0.19319,0.20958,0,0,0
379.12,1.2049,3.438,0.19339,0.20975,0,0,0
379.62,1.2068,3.439,0.19405,0.21035,0,0,0
380.12,1.2087,3.44,0.1941,0.21046,0,0,0
380.62,1.2105,3.441,0.19435,0.21097,0,0,0
381.12,1.2124,3.442,0.19482,0.21141,0,0,0
381.62,1.2144,3.443,0.19502,0.21154,0,0,0
382.12,1.2161,3.444,0.19549,0.21195,0,0,0
382.62,1.2179,3.445,0.19576,0.21225,0,0,0
383.12,1.22,3.446,0.1962,0.21285,0,0,0
383.62,1.2214,3.4473,0.19637,0.21317,0,0,0
384.12,1.2234,3.4487,0.19681,0.21358,0,0,0
384.62,1.2253,3.45,0.19722,0.21401,0,0,0
385.12,1.2274,3.451,0.19742,0.2145,0,0,0
385.62,1.229,3.452,0.19786,0.2148,0,0,0
386.12,1.2307,3.453,0.19808,0.21501,0,0,0
386.62,1.2324,3.454,0.19838,0.21547,0,0,0
387.12,1.2344,3.455,0.19868,0.2158,0,0,0
387.62,1.2365,3.456,0.19924,0.21621,0,0,0
388.12,1.2381,3.457,0.19962,0.21653,0,0,0
388.62,1.2403,3.458,0.19981,0.21688,0,0,0
389.12,1.2419,3.459,0.20042,0.21723,0,0,0
389.62,1.244,3.4603,0.20053,0.21785,0,0,0
390.12,1.2459,3.4614,0.20088,0.21812,0,0,0
390.62,1.2478,3.4623,0.20127,0.21839,0,0,0
391.12,1.2493,3.463,0.20182,0.21874,0,0,0
391.62,1.2511,3.464,0.20204,0.21918,0,0,0
392.12,1.253,3.465,0.20256,0.21942,0,0,0
392.62,1.2548,3.466,0.20256,0.21998,0,0,0
393.12,1.2567,3.467,0.2033,0.22028,0,0,0
393.62,1.2588,3.468,0.20346,0.22079,0,0,0
394.12,1.2606,3.4693,0.2039,0.22095,0,0,0
394.62,1.2623,3.4707,0.20434,0.22146,0,0,0
395.12,1.2644,3.4717,0.20456,0.22181,0,0,0
395.62,1.2661,3.4726,0.20491,0.22211,0,0,0
396.12,1.2682,3.4737,0.2053,0.22246,0,0,0
396.62,1.2699,3.475,0.20571,0.22275,0,0,0
397.12,1.2718,3.476,0.20617,0.22319,0,0,0
397.62,1.2736,3.477,0.20612,0.22361,0,0,0
398.12,1.2758,3.478,0.20666,0.22399,0,0,0
398.62,1.2776,3.479,0.20707,0.22445,0,0,0
399.12,1.2793,3.48,0.20759,0.22466,0,0,0
399.62,1.2811,3.481,0.20811,0.22522,0,0,0
400.12,1.2833,3.482,0.20838,0.22563,0,0,0
400.62,1.285,3.4827,0.20863,0.22592,0,0,0
401.12,1.2871,3.4836,0.20914,0.2263,0,0,0
401.62,1.2889,3.4847,0.20974,0.2268,0,0,0
402.12,1.2909,3.4857,0.20999,0.22723,0,0,0
402.62,1.2928,3.4863,0.21045,0.22742,0,0,0
403.12,1.2945,3.4873,0.21094,0.22795,0,0,0
403.62,1.2965,3.4887,0.21119,0.2282,0,0,0
404.12,1.2984,3.4897,0.21159,0.22868,0,0,0
404.62,1.3,3.4906,0.212,0.22886,0,0,0
405.12,1.3018,3.4917,0.21232,0.2294,0,0,0
405.62,1.3038,3.493,0.21284,0.2299,0,0,0
406.12,1.3056,3.494,0.21317,0.2302,0,0,0
406.62,1.3077,3.4947,0.21346,0.2306,0,0,0
407.12,1.3097,3.4953,0.21382,0.23092,0,0,0
407.62,1.3116,3.4963,0.21431,0.2314,0,0,0
408.12,1.3134,3.4977,0.21468,0.2319,0,0,0
408.62,1.3152,3.499,0.2152,0.23244,0,0,0
409.12,1.317,3.5,0.2155,0.23262,0,0,0
409.62,1.3192,3.5007,0.21587,0.23315,0,0,0
410.12,1.3209,3.5016,0.21639,0.23379,0,0,0
410.62,1.3226,3.5027,0.21652,0.23398,0,0,0
411.12,1.3246,3.504,0.21704,0.23453,0,0,0
411.62,1.3265,3.505,0.21742,0.23488,0,0,0
412.12,1.3285,3.506,0.21779,0.23549,0,0,0
412.62,1.3302,3.5067,0.21823,0.23573,0,0,0
413.12,1.3321,3.5073,0.21847,0.23631,0,0,0
413.62,1.3341,3.5083,0.21874,0.23676,0,0,0
414.12,1.3361,3.5094,0.21933,0.23705,0,0,0
414.62,1.3379,3.5106,0.21998,0.23737,0,0,0
415.12,1.34,3.5114,0.22022,0.23793,0,0,0
415.62,1.3417,3.5123,0.22062,0.23854,0,0,0
416.12,1.3437,3.513,0.22116,0.23883,0,0,0
416.62,1.3456,3.514,0.22146,0.23914,0,0,0
417.12,1.3475,3.515,0.22232,0.23967,0,0,0
417.62,1.3493,3.516,0.22243,0.23983,0,0,0
418.12,1.3511,3.517,0.22302,0.24046,0,0,0
418.62,1.3529,3.518,0.22361,0.24068,0,0,0
419.12,1.3548,3.519,0.22382,0.24128,0,0,0
419.62,1.3569,3.52,0.22409,0.24147,0,0,0
420.12,1.359,3.521,0.22444,0.24194,0,0,0
420.62,1.3608,3.522,0.22484,0.2425,0,0,0
421.12,1.3626,3.523,0.22543,0.24273,0,0,0
421.62,1.3649,3.524,0.22578,0.24339,0,0,0
422.12,1.3664,3.525,0.22591,0.24386,0,0,0
422.62,1.3682,3.526,0.22637,0.24415,0,0,0
423.12,1.37,3.527,0.22709,0.24465,0,0,0
423.62,1.3722,3.528,0.22733,0.24526,0,0,0
424.12,1.3741,3.529,0.22768,0.2457,0,0,0
424.62,1.3757,3.53,0.22806,0.24628,0,0,0
425.12,1.3779,3.531,0.22859,0.24662,0,0,0
425.62,1.3798,3.532,0.22896,0.24709,0,0,0
426.12,1.3817,3.5327,0.22923,0.24749,0,0,0
426.62,1.3835,3.5333,0.22976,0.24783,0,0,0
427.12,1.3856,3.534,0.23027,0.24806,0,0,0
427.62,1.3875,3.535,0.23062,0.24851,0,0,0
428.12,1.3892,3.536,0.23104,0.2489,0,0,0
428.62,1.3914,3.537,0.23131,0.24945,0,0,0
429.12,1.3931,3.538,0.23184,0.24971,0,0,0
429.62,1.3951,3.539,0.23235,0.25026,0,0,0
430.12,1.3968,3.54,0.23283,0.25047,0,0,0
430.62,1.3985,3.541,0.23301,0.25126,0,0,0
431.12,1.4004,3.542,0.2332,0.25154,0,0,0
431.62,1.4027,3.543,0.23392,0.25227,0,0,0
432.12,1.4044,3.544,0.23424,0.25253,0,0,0
432.62,1.4064,3.545,0.23485,0.25308,0,0,0
433.12,1.4085,3.546,0.23503,0.2535,0,0,0
433.62,1.4102,3.5467,0.23562,0.25394,0,0,0
434.12,1.4123,3.5473,0.23604,0.25431,0,0,0
434.62,1.4142,3.5483,0.23663,0.25472,0,0,0
435.12,1.416,3.5497,0.23697,0.25524,0,0,0
435.62,1.4184,3.551,0.2375,0.25568,0,0,0
436.12,1.4198,3.5517,0.23782,0.25615,0,0,0
436.62,1.4218,3.5523,0.23832,0.25641,0,0,0
437.12,1.4237,3.553,0.23887,0.25696,0,0,0
437.62,1.4256,3.554,0.23908,0.25758,0,0,0
438.12,1.4278,3.5547,0.23946,0.25787,0,0,0
438.62,1.4295,3.5553,0.24006,0.25846,0,0,0
439.12,1.4317,3.556,0.24041,0.25898,0,0,0
439.62,1.4337,3.557,0.24093,0.25945,0,0,0
440.12,1.436,3.558,0.24125,0.25991,0,0,0
440.62,1.4369,3.559,0.24157,0.26061,0,0,0
441.12,1.4392,3.56,0.24196,0.26072,0,0,0
441.62,1.4414,3.561,0.24239,0.26126,0,0,0
442.12,1.4432,3.562,0.24276,0.2617,0,0,0
442.62,1.4452,3.5627,0.24347,0.26229,0,0,0
443.12,1.447,3.5633,0.24368,0.26255,0,0,0
443.62,1.449,3.5643,0.2441,0.26314,0,0,0
444.12,1.451,3.5654,0.24457,0.26366,0,0,0
444.62,1.453,3.5663,0.24518,0.26371,0,0,0
445.12,1.4551,3.567,0.2456,0.2643,0,0,0
445.62,1.457,3.568,0.24612,0.26467,0,0,0
446.12,1.4587,3.569,0.24646,0.26539,0,0,0
446.62,1.4608,3.57,0.24709,0.26603,0,0,0
447.12,1.4627,3.571,0.24772,0.26629,0,0,0
447.62,1.4647,3.5717,0.24796,0.26703,0,0,0
448.12,1.4665,3.5723,0.24848,0.26752,0,0,0
448.62,1.4684,3.573,0.24882,0.26791,0,0,0
449.12,1.4705,3.574,0.24934,0.26842,0,0,0
449.62,1.4724,3.575,0.24966,0.26875,0,0,0
450.12,1.4741,3.576,0.25,0.26942,0,0,0
450.62,1.4761,3.577,0.25057,0.2697,0,0,0
451.12,1.478,3.5777,0.25102,0.27016,0,0,0
451.62,1.4803,3.5783,0.25138,0.2708,0,0,0
452.12,1.482,3.579,0.25193,0.27121,0,0,0
452.62,1.484,3.58,0.25219,0.2718,0,0,0
453.12,1.4861,3.581,0.25295,0.27219,0,0,0
453.62,1.4878,3.5817,0.25337,0.27272,0,0,0
454.12,1.4898,3.5823,0.25373,0.27334,0,0,0
454.62,1.4917,3.583,0.25402,0.27377,0,0,0
455.12,1.4936,3.584,0.25469,0.27428,0,0,0
455.62,1.4957,3.585,0.25503,0.27469,0,0,0
456.12,1.4975,3.586,0.25563,0.27528,0,0,0
456.62,1.4994,3.587,0.25607,0.27581,0,0,0
457.12,1.5015,3.588,0.25649,0.2764,0,0,0
457.62,1.5035,3.589,0.25693,0.27665,0,0,0
458.12,1.5056,3.59,0.25768,0.27726,0,0,0
458.62,1.5076,3.591,0.25781,0.27769,0,0,0
459.12,1.5094,3.5917,0.25823,0.2781,0,0,0
459.62,1.5116,3.5923,0.25893,0.27881,0,0,0
460.12,1.5135,3.593,0.25957,0.27919,0,0,0
460.62,1.5153,3.594,0.25981,0.27978,0,0,0
461.12,1.5174,3.5947,0.26058,0.28021,0,0,0
461.62,1.5196,3.5953,0.2611,0.28074,0,0,0
462.12,1.5215,3.596,0.26172,0.2813,0,0,0
462.62,1.5233,3.597,0.26208,0.28188,0,0,0
463.12,1.5253,3.598,0.26278,0.28249,0,0,0
463.62,1.5273,3.5987,0.26309,0.28292,0,0,0
464.12,1.5294,3.5993,0.26358,0.2835,0,0,0
464.62,1.5313,3.6,0.26412,0.28428,0,0,0
465.12,1.5332,3.601,0.26448,0.28466,0,0,0
465.62,1.5353,3.602,0.26487,0.28529,0,0,0
466.12,1.5374,3.603,0.26539,0.28565,0,0,0
466.62,1.5392,3.604,0.26577,0.28623,0,0,0
467.12,1.5413,3.605,0.26644,0.28676,0,0,0
467.62,1.5433,3.606,0.26685,0.28726,0,0,0
468.12,1.5454,3.6067,0.26747,0.28784,0,0,0
468.62,1.5472,3.6073,0.26806,0.28852,0,0,0
469.12,1.5494,3.608,0.26857,0.28892,0,0,0
469.62,1.5515,3.609,0.26914,0.2897,0,0,0
470.12,1.5535,3.61,0.26973,0.29,0,0,0
470.62,1.5553,3.6107,0.27019,0.29086,0,0,0
471.12,1.5575,3.6113,0.27047,0.29131,0,0,0
471.62,1.5598,3.612,0.27101,0.29173,0,0,0
472.12,1.562,3.613,0.27178,0.29246,0,0,0
472.62,1.564,3.614,0.27216,0.29281,0,0,0
473.12,1.5657,3.6147,0.27259,0.29326,0,0,0
473.62,1.5678,3.6153,0.27323,0.29414,0,0,0
474.12,1.5698,3.616,0.27374,0.29447,0,0,0
474.62,1.5718,3.617,0.27413,0.29501,0,0,0
475.12,1.574,3.618,0.27484,0.29567,0,0,0
475.62,1.5759,3.6187,0.2753,0.29619,0,0,0
476.12,1.5783,3.6193,0.27586,0.29681,0,0,0
476.62,1.58,3.6197,0.27657,0.29766,0,0,0
477.12,1.582,3.6203,0.27723,0.29804,0,0,0
477.62,1.5843,3.6213,0.27774,0.29883,0,0,0
478.12,1.5864,3.6224,0.27795,0.29941,0,0,0
478.62,1.5884,3.6233,0.27873,0.3,0,0,0
479.12,1.5903,3.624,0.27904,0.30057,0,0,0
479.62,1.5923,3.625,0.2796,0.3012,0,0,0
480.12,1.5944,3.626,0.28003,0.30167,0,0,0
480.62,1.5965,3.627,0.28036,0.30251,0,0,0
481.12,1.5983,3.6277,0.28117,0.30286,0,0,0
481.62,1.6005,3.6283,0.28165,0.3035,0,0,0
482.12,1.6026,3.629,0.28231,0.30395,0,0,0
482.62,1.6047,3.63,0.28277,0.30447,0,0,0
483.12,1.6068,3.6307,0.28345,0.30531,0,0,0
483.62,1.6089,3.6313,0.28406,0.30571,0,0,0
484.12,1.6109,3.632,0.28492,0.30645,0,0,0
484.62,1.6132,3.6327,0.28517,0.30704,0,0,0
485.12,1.6154,3.6333,0.28582,0.30753,0,0,0
485.62,1.6174,3.634,0.28648,0.30852,0,0,0
486.12,1.6195,3.635,0.28714,0.30909,0,0,0
486.62,1.6216,3.6357,0.28749,0.30971,0,0,0
487.12,1.6236,3.6363,0.28814,0.3101,0,0,0
487.62,1.6258,3.637,0.28827,0.31096,0,0,0
488.12,1.6277,3.6377,0.28892,0.31162,0,0,0
488.62,1.6295,3.6383,0.2894,0.31209,0,0,0
489.12,1.6321,3.639,0.29003,0.31278,0,0,0
489.62,1.6342,3.64,0.29063,0.31329,0,0,0
490.12,1.6362,3.6407,0.29118,0.31408,0,0,0
490.62,1.6381,3.6413,0.29191,0.31489,0,0,0
491.12,1.6403,3.6423,0.29276,0.31557,0,0,0
491.62,1.6425,3.6434,0.29344,0.31619,0,0,0
492.12,1.6446,3.6443,0.29386,0.31672,0,0,0
492.62,1.6466,3.6447,0.29456,0.31746,0,0,0
493.12,1.6486,3.6453,0.29529,0.31792,0,0,0
493.62,1.6507,3.646,0.29571,0.31858,0,0,0
494.12,1.6528,3.647,0.29656,0.31946,0,0,0
494.62,1.6551,3.6477,0.29704,0.31973,0,0,0
495.12,1.6571,3.6483,0.29746,0.3207,0,0,0
495.62,1.6592,3.649,0.29781,0.32136,0,0,0
496.12,1.6614,3.6497,0.29863,0.32182,0,0,0
496.62,1.6636,3.6503,0.29908,0.32258,0,0,0
497.12,1.6658,3.651,0.30005,0.32314,0,0,0
497.62,1.668,3.652,0.3003,0.32355,0,0,0
498.12,1.6699,3.6527,0.30109,0.3245,0,0,0
498.62,1.6721,3.6533,0.30174,0.32498,0,0,0
499.12,1.6743,3.654,0.30229,0.32561,0,0,0
499.62,1.6763,3.655,0.30296,0.32658,0,0,0
500.12,1.6784,3.6557,0.30353,0.32711,0,0,0
500.62,1.6805,3.6563,0.30397,0.32806,0,0,0
501.12,1.6829,3.6567,0.30494,0.3289,0,0,0
501.62,1.6851,3.6573,0.30551,0.32936,0,0,0
502.12,1.6872,3.658,0.306,0.33028,0,0,0
502.62,1.6892,3.6587,0.30657,0.33079,0,0,0
503.12,1.6918,3.6593,0.30731,0.33165,0,0,0
503.62,1.6938,3.66,0.308,0.33257,0,0,0
504.12,1.6959,3.6607,0.30862,0.33327,0,0,0
504.62,1.6979,3.6613,0.30973,0.33396,0,0,0
505.12,1.7002,3.662,0.31005,0.33476,0,0,0
505.62,1.7023,3.6627,0.31064,0.3355,0,0,0
506.12,1.7044,3.6633,0.31165,0.33658,0,0,0
506.62,1.7066,3.664,0.31226,0.33716,0,0,0
507.12,1.7089,3.6647,0.31253,0.33792,0,0,0
507.62,1.7112,3.6653,0.31302,0.33864,0,0,0
508.12,1.7135,3.666,0.31366,0.33941,0,0,0
508.62,1.7155,3.6667,0.31418,0.34053,0,0,0
509.12,1.7178,3.6673,0.31523,0.34117,0,0,0
509.62,1.7199,3.6677,0.31572,0.34189,0,0,0
510.12,1.7222,3.6683,0.31638,0.34261,0,0,0
510.62,1.7243,3.6687,0.31706,0.3433,0,0,0
511.12,1.7267,3.6693,0.31809,0.34411,0,0,0
511.62,1.729,3.67,0.31887,0.34501,0,0,0
512.12,1.731,3.6707,0.31958,0.3457,0,0,0
512.62,1.7333,3.6713,0.32026,0.34634,0,0,0
513.12,1.7356,3.672,0.32136,0.34739,0,0,0
513.62,1.738,3.6727,0.32192,0.3481,0,0,0
514.12,1.7401,3.673,0.32262,0.34895,0,0,0
514.62,1.7425,3.6733,0.32338,0.34959,0,0,0
515.12,1.7447,3.674,0.32389,0.35061,0,0,0
515.62,1.7469,3.675,0.32469,0.35162,0,0,0
516.12,1.7492,3.6757,0.32508,0.35219,0,0,0
516.62,1.7515,3.6763,0.32614,0.35309,0,0,0
517.12,1.7537,3.6767,0.32656,0.354,0,0,0
517.62,1.7559,3.6773,0.32755,0.35485,0,0,0
518.12,1.7585,3.6777,0.32825,0.35563,0,0,0
518.62,1.7605,3.6783,0.32888,0.35666,0,0,0
519.12,1.7631,3.6787,0.32997,0.35749,0,0,0
519.62,1.7655,3.679,0.33088,0.35845,0,0,0
520.12,1.7678,3.6793,0.33136,0.35929,0,0,0
520.62,1.77,3.68,0.33201,0.36009,0,0,0
521.12,1.7725,3.6807,0.33298,0.3611,0,0,0
521.62,1.7748,3.681,0.33365,0.36213,0,0,0
522.12,1.7772,3.6813,0.33435,0.36283,0,0,0
522.62,1.7794,3.6817,0.33533,0.36395,0,0,0
523.12,1.7816,3.6823,0.33598,0.36453,0,0,0
523.62,1.7838,3.683,0.33699,0.36551,0,0,0
524.12,1.7867,3.6837,0.3378,0.36644,0,0,0
524.62,1.7888,3.6843,0.33874,0.36725,0,0,0
525.12,1.7911,3.6847,0.33974,0.36839,0,0,0
525.62,1.7936,3.6853,0.34053,0.36923,0,0,0
526.12,1.796,3.6857,0.34134,0.37046,0,0,0
526.62,1.7985,3.6863,0.34218,0.37127,0,0,0
527.12,1.8007,3.6867,0.34311,0.37243,0,0,0
527.62,1.803,3.687,0.34375,0.37337,0,0,0
528.12,1.8056,3.687,0.34458,0.37462,0,0,0
528.62,1.8082,3.6873,0.34546,0.37589,0,0,0
529.12,1.8109,3.688,0.34646,0.37693,0,0,0
529.62,1.813,3.6887,0.34734,0.37776,0,0,0
530.12,1.8152,3.689,0.3484,0.37884,0,0,0
530.62,1.8179,3.689,0.34909,0.37971,0,0,0
531.12,1.8204,3.689,0.35032,0.3807,0,0,0
531.62,1.8228,3.6893,0.35115,0.38173,0,0,0
532.12,1.8252,3.6897,0.35212,0.38294,0,0,0
532.62,1.828,3.69,0.35301,0.38425,0,0,0
533.12,1.8306,3.69,0.35386,0.38518,0,0,0
533.62,1.8328,3.6903,0.35443,0.38616,0,0,0
534.12,1.8354,3.6907,0.35549,0.3874,0,0,0
534.62,1.838,3.691,0.35629,0.38883,0,0,0
535.12,1.8406,3.691,0.35702,0.3901,0,0,0
535.62,1.8428,3.6913,0.35822,0.39113,0,0,0
536.12,1.8459,3.6917,0.35941,0.39247,0,0,0
536.62,1.8483,3.692,0.36039,0.39367,0,0,0
537.12,1.8509,3.692,0.36194,0.39493,0,0,0
537.62,1.8536,3.692,0.36285,0.39636,0,0,0
538.12,1.8561,3.6917,0.36409,0.39708,0,0,0
538.62,1.8587,3.6913,0.36516,0.39895,0,0,0
539.12,1.8613,3.691,0.36616,0.40008,0,0,0
539.62,1.8643,3.691,0.36725,0.40136,0,0,0
540.12,1.867,3.691,0.36816,0.40282,0,0,0
540.62,1.8698,3.6907,0.36907,0.40435,0,0,0
541.12,1.8727,3.69,0.37027,0.40569,0,0,0
541.62,1.8754,3.6893,0.3712,0.40739,0,0,0
542.12,1.8782,3.6887,0.37238,0.40859,0,0,0
542.62,1.881,3.688,0.37377,0.41022,0,0,0
543.12,1.884,3.687,0.37511,0.41174,0,0,0
543.62,1.887,3.686,0.37636,0.41342,0,0,0
544.12,1.8898,3.6844,0.37783,0.41511,0,0,0
544.62,1.8931,3.6823,0.37896,0.41717,0,0,0
545.12,1.8962,3.68,0.38022,0.41898,0,0,0
545.62,1.8992,3.6777,0.38176,0.42121,0,0,0
546.12,1.9026,3.675,0.38299,0.42322,0,0,0
546.62,1.9055,3.672,0.38439,0.42554,0,0,0
547.12,1.909,3.669,0.38558,0.42747,0,0,0
547.62,1.912,3.6657,0.38726,0.42966,0,0,0
548.12,1.9156,3.662,0.38877,0.43202,0,0,0
548.62,1.9191,3.6569,0.39025,0.43502,0,0,0
549.12,1.923,3.6503,0.39202,0.43774,0,0,0
549.62,1.9266,3.6424,0.39397,0.44079,0,0,0
550.12,1.9304,3.634,0.39562,0.44398,0,0,0
550.62,1.9355,3.617,0.39774,0.44963,0,0,0