File: lab_data/AA6014-T4_results/DATA/CH_90_1.csv
Time[s],Displacement[mm],Force[kN],AxStrain_1,AxStrain_2,Thickness[mm],OuterWidth[mm],Diameter[mm]
0.64,0,-0.0062871,0,0,1.1149,20.034,5.3023
1.14,-0.000116,0.004199,3.6999e-05,-0.00023103,0,0,0
1.64,0.000575,0.016149,-0.00013601,-2e-05,0,0,0
2.14,0.001343,0.039,-7.8003e-05,0.00018798,0,0,0
2.64,0.001739,0.066145,-4.6001e-05,1e-05,0,0,0
3.14,0.001814,0.090419,5.8998e-05,6.6998e-05,0,0,0
3.64,0.001888,0.10843,6e-06,-2.1e-05,0,0,0
4.14,0.002071,0.12358,0.00016499,0.00011099,0,0,0
4.64,0.002523,0.142,0.00026397,4.8999e-05,0,0,0
5.14,0.002662,0.16157,6.2998e-05,0.00010099,0,0,0
5.64,0.002812,0.17957,0.00013299,5.3999e-05,0,0,0
6.14,0.002934,0.19271,5.9998e-05,-5.9002e-05,0,0,0
6.64,0.002638,0.20086,0.00014399,0.00014699,0,0,0
7.14,0.002704,0.20858,2.9e-05,-3.2001e-05,0,0,0
7.64,0.00285,0.22043,0.00027696,0.00017698,0,0,0
8.14,0.003309,0.234,0.00026097,0.00015399,0,0,0
8.64,0.003546,0.24815,0.00034194,7.8997e-05,0,0,0
9.14,0.003856,0.26314,0.00025097,2.9e-05,0,0,0
9.64,0.004307,0.27886,0.00024297,0.00025197,0,0,0
10.14,0.004176,0.29471,0.00028496,0.00019398,0,0,0
10.64,0.004709,0.31043,0.00019098,0.00012899,0,0,0
11.14,0.004829,0.32471,0.00018298,0.00010999,0,0,0
11.64,0.005217,0.33943,0.00033294,0.00015299,0,0,0
12.14,0.005527,0.35457,0.00031695,0.00016099,0,0,0
12.64,0.005592,0.36929,0.00035194,0.00027996,0,0,0
13.14,0.005907,0.38386,0.00040292,0.00033594,0,0,0
13.64,0.00635,0.4,0.0004499,0.00027896,0,0,0
14.14,0.006694,0.41614,0.00050387,0.00022198,0,0,0
14.64,0.00654,0.43186,0.00030595,0.00031895,0,0,0
15.14,0.006771,0.44714,0.00033594,0.00030595,0,0,0
15.64,0.006761,0.462,0.00047289,0.00028896,0,0,0
16.14,0.006996,0.47686,0.00046689,0.00036593,0,0,0
16.64,0.007268,0.49214,0.0004569,0.00033894,0,0,0
17.14,0.00746,0.507,0.00023497,0.00020798,0,0,0
17.64,0.007534,0.52215,0.00048688,0.00032595,0,0,0
18.14,0.007886,0.53785,0.00049388,0.00045989,0,0,0
18.64,0.008316,0.55415,0.00052986,0.0004529,0,0,0
19.14,0.008504,0.571,0.00042291,0.00042591,0,0,0
19.64,0.008474,0.58814,0.00056684,0.0004399,0,0,0
20.14,0.008796,0.60371,0.00069176,0.00049988,0,0,0
20.64,0.008846,0.61915,0.00060382,0.00041291,0,0,0
21.14,0.009397,0.63485,0.00052686,0.00048988,0,0,0
21.64,0.009884,0.65029,0.00080168,0.00051687,0,0,0
22.14,0.010159,0.66586,0.00069176,0.00061381,0,0,0
22.64,0.010709,0.68329,0.00079169,0.0004529,0,0,0
23.14,0.011411,0.70057,0.00075172,0.00058783,0,0,0
23.64,0.011703,0.71743,0.00098352,0.00071175,0,0,0
24.14,0.012079,0.73385,0.00072873,0.00049388,0,0,0
24.64,0.012261,0.75,0.00086962,0.00061381,0,0,0
25.14,0.012281,0.76586,0.0006348,0.00083265,0,0,0
25.64,0.012677,0.78185,0.00078169,0.0007787,0,0,0
26.14,0.012912,0.79729,0.00071474,0.00070775,0,0,0
26.64,0.013281,0.81315,0.00069176,0.00073473,0,0,0
27.14,0.013301,0.83071,0.00075472,0.00074472,0,0,0
27.64,0.013452,0.84814,0.00067077,0.00075472,0,0,0
28.14,0.013513,0.86486,0.00071175,0.00068776,0,0,0
28.64,0.013832,0.88114,0.00073473,0.00067077,0,0,0
29.14,0.013932,0.897,0.00081866,0.00085264,0,0,0
29.64,0.014238,0.91286,0.0007717,0.00079169,0,0,0
30.14,0.014543,0.92885,0.00086563,0.00090559,0,0,0
30.64,0.014715,0.94429,0.00092257,0.00088561,0,0,0
31.14,0.014997,0.95986,0.00081866,0.00081866,0,0,0
31.64,0.015551,0.977,0.00095954,0.00096354,0,0,0
32.14,0.015772,0.99414,0.00094655,0.0010874,0,0,0
32.64,0.016648,1.0111,0.00098651,0.00091658,0,0,0
33.14,0.017115,1.0276,0.00096953,0.0010205,0,0,0
33.64,0.017196,1.043,0.0010804,0.0010934,0,0,0
34.14,0.017817,1.0584,0.0010704,0.0011773,0,0,0
34.64,0.018223,1.0746,0.0010235,0.0010904,0,0,0
35.14,0.018643,1.0903,0.0013491,0.0010704,0,0,0
35.64,0.019056,1.1059,0.0012013,0.0011443,0,0,0
36.14,0.019334,1.123,0.0011773,0.0012183,0,0,0
36.64,0.019502,1.1399,0.0012113,0.0012143,0,0,0
37.14,0.01975,1.1561,0.0011443,0.0011174,0,0,0
37.64,0.019975,1.1719,0.0011104,0.001382,0,0,0
38.14,0.02016,1.187,0.0013521,0.0012512,0,0,0
38.64,0.020361,1.2021,0.0012652,0.0013321,0,0,0
39.14,0.0206,1.2179,0.0013351,0.0012952,0,0,0
39.64,0.020842,1.233,0.0013451,0.001396,0,0,0
40.14,0.021154,1.2481,0.0012882,0.0013691,0,0,0
40.64,0.021305,1.2647,0.0015368,0.0014999,0,0,0
41.14,0.021617,1.2811,0.0015059,0.001406,0,0,0
41.64,0.022027,1.2971,0.001419,0.001433,0,0,0
42.14,0.022342,1.3129,0.0014899,0.0016836,0,0,0
42.64,0.022634,1.328,0.0016207,0.0015738,0,0,0
43.14,0.023047,1.3429,0.0016097,0.0016207,0,0,0
43.64,0.023537,1.3581,0.0018483,0.0016167,0,0,0
44.14,0.024108,1.373,0.0018712,0.0018044,0,0,0
44.64,0.024723,1.3879,0.0018613,0.0017744,0,0,0
45.14,0.025149,1.4043,0.0019621,0.0018443,0,0,0
45.64,0.025528,1.4206,0.002012,0.0019721,0,0,0
46.14,0.025652,1.4361,0.0022565,0.0021257,0,0,0
46.64,0.026079,1.4511,0.0021467,0.0021766,0,0,0
47.14,0.026431,1.4657,0.0024181,0.0022565,0,0,0
47.64,0.026851,1.4801,0.0022305,0.0023871,0,0,0
48.14,0.027093,1.4951,0.0022804,0.002454,0,0,0
48.64,0.027321,1.51,0.0022235,0.0022565,0,0,0
49.14,0.02769,1.5249,0.0023443,0.002434,0,0,0
49.64,0.027996,1.5407,0.0024111,0.0023373,0,0,0
50.14,0.028217,1.5564,0.0023303,0.0023542,0,0,0
50.64,0.028593,1.5716,0.0025478,0.002451,0,0,0
51.14,0.028795,1.5864,0.002431,0.0024181,0,0,0
51.64,0.028966,1.6007,0.0025647,0.0026086,0,0,0
52.14,0.029423,1.6151,0.0026784,0.002458,0,0,0
52.64,0.030014,1.6299,0.0026485,0.0027821,0,0,0
53.14,0.030363,1.644,0.002843,0.0027492,0,0,0
53.64,0.030849,1.6579,0.0028091,0.0029068,0,0,0
54.14,0.031524,1.6733,0.0030803,0.0029367,0,0,0
54.64,0.031753,1.6889,0.0031341,0.0031102,0,0,0
55.14,0.032249,1.703,0.0032716,0.0032746,0,0,0
55.64,0.032595,1.7169,0.0034152,0.0032407,0,0,0
56.14,0.033045,1.7311,0.0036663,0.0036424,0,0,0
56.64,0.033451,1.7459,0.0037798,0.0035796,0,0,0
57.14,0.033999,1.7599,0.0038635,0.0038665,0,0,0
57.64,0.03423,1.7733,0.0040777,0.0040309,0,0,0
58.14,0.034845,1.7869,0.0043216,0.0041145,0,0,0
58.64,0.035174,1.8017,0.0041046,0.0042241,0,0,0
59.14,0.035644,1.8161,0.0041643,0.0043854,0,0,0
59.64,0.035986,1.8301,0.0042818,0.0043545,0,0,0
60.14,0.03658,1.8439,0.004228,0.0043177,0,0,0
60.64,0.037195,1.857,0.0043047,0.0044381,0,0,0
61.14,0.037926,1.8699,0.0045417,0.0045218,0,0,0
61.64,0.038826,1.8829,0.0045118,0.004458,0,0,0
62.14,0.039289,1.8953,0.0046591,0.0047059,0,0,0
62.64,0.040166,1.9076,0.0049597,0.0049229,0,0,0
63.14,0.040877,1.9207,0.0049995,0.0051239,0,0,0
63.64,0.041881,1.9334,0.005284,0.0053039,0,0,0
64.14,0.042657,1.9444,0.005471,0.0055277,0,0,0
64.64,0.043355,1.9551,0.0058876,0.005825,0,0,0
65.14,0.044228,1.9659,0.0061918,0.0062186,0,0,0
65.64,0.045245,1.9763,0.0064621,0.0065118,0,0,0
66.14,0.046487,1.9854,0.0067025,0.0068257,0,0,0
66.64,0.047736,1.994,0.0071891,0.0073519,0,0,0
67.14,0.048874,2.0023,0.0077519,0.0080188,0,0,0
67.64,0.050163,2.011,0.0081318,0.0083014,0,0,0
68.14,0.051573,2.0194,0.0086148,0.0087377,0,0,0
68.64,0.053114,2.0276,0.0087605,0.0090965,0,0,0
69.14,0.05482,2.0357,0.009044,0.0093957,0,0,0
69.64,0.056599,2.0434,0.0093729,0.0095928,0,0,0
70.14,0.058187,2.0509,0.0096027,0.0099186,0,0,0
70.64,0.06041,2.0584,0.0098384,0.010337,0,0,0
71.14,0.062055,2.066,0.010115,0.010456,0,0,0
71.64,0.06373,2.0733,0.010436,0.010703,0,0,0
72.14,0.065455,2.081,0.010463,0.011021,0,0,0
72.64,0.067188,2.0887,0.010911,0.011334,0,0,0
73.14,0.068957,2.0963,0.011294,0.011722,0,0,0
73.64,0.070488,2.1034,0.011449,0.012,0,0,0
74.14,0.07213,2.1103,0.012033,0.012604,0,0,0
74.64,0.074043,2.1173,0.012438,0.013068,0,0,0
75.14,0.076172,2.1241,0.013108,0.013704,0,0,0
75.64,0.077907,2.1306,0.013396,0.014263,0,0,0
76.14,0.07976,2.137,0.013986,0.014793,0,0,0
76.64,0.082013,2.1437,0.014425,0.015259,0,0,0
77.14,0.084001,2.1503,0.01482,0.015629,0,0,0
77.64,0.086045,2.1573,0.015249,0.016247,0,0,0
78.14,0.088026,2.1644,0.015894,0.016624,0,0,0
78.64,0.090064,2.171,0.016198,0.017029,0,0,0
79.14,0.091873,2.1773,0.016466,0.017235,0,0,0
79.64,0.093743,2.1834,0.016851,0.017548,0,0,0
80.14,0.095865,2.1893,0.017072,0.017881,0,0,0
80.64,0.097876,2.195,0.017354,0.018431,0,0,0
81.14,0.099595,2.2016,0.01768,0.01852,0,0,0
81.64,0.10148,2.2081,0.017775,0.018846,0,0,0
82.14,0.10375,2.2146,0.018165,0.019295,0,0,0
82.64,0.10572,2.2204,0.018409,0.019647,0,0,0
83.14,0.10805,2.226,0.018729,0.020058,0,0,0
83.64,0.11007,2.2316,0.019035,0.020361,0,0,0
84.14,0.11225,2.2374,0.019374,0.020914,0,0,0
84.64,0.11449,2.2433,0.019881,0.021272,0,0,0
85.14,0.11617,2.249,0.020335,0.021794,0,0,0
85.64,0.11806,2.2547,0.020739,0.0223,0,0,0
86.14,0.12022,2.2606,0.021157,0.022727,0,0,0
86.64,0.12206,2.2667,0.021571,0.023019,0,0,0
87.14,0.12397,2.2727,0.022071,0.023566,0,0,0
87.64,0.126,2.278,0.022546,0.024124,0,0,0
88.14,0.12838,2.2833,0.022782,0.0245,0,0,0
88.64,0.13051,2.2887,0.023413,0.024824,0,0,0
89.14,0.13269,2.294,0.023652,0.025323,0,0,0
89.64,0.13517,2.2996,0.023997,0.025663,0,0,0
90.14,0.13727,2.3054,0.024258,0.02583,0,0,0
90.64,0.13935,2.311,0.024695,0.026242,0,0,0
91.14,0.14133,2.3163,0.025074,0.026588,0,0,0
91.64,0.14329,2.3217,0.025568,0.027135,0,0,0
92.14,0.1456,2.327,0.025775,0.027451,0,0,0
92.64,0.14774,2.3323,0.025983,0.02784,0,0,0
93.14,0.14959,2.3377,0.02653,0.028254,0,0,0
93.64,0.15179,2.3427,0.026805,0.028626,0,0,0
94.14,0.15426,2.3476,0.027154,0.029119,0,0,0
94.64,0.15637,2.353,0.027432,0.029683,0,0,0
95.14,0.15883,2.3584,0.028006,0.029953,0,0,0
95.64,0.16115,2.3636,0.028183,0.030445,0,0,0
96.14,0.16349,2.3687,0.028509,0.030826,0,0,0
96.64,0.16586,2.3737,0.029181,0.031249,0,0,0
97.14,0.16782,2.3786,0.029282,0.031701,0,0,0
97.64,0.1701,2.3834,0.029931,0.032033,0,0,0
98.14,0.17227,2.3883,0.030182,0.032394,0,0,0
98.64,0.17423,2.393,0.030599,0.032878,0,0,0
99.14,0.17629,2.3983,0.03094,0.033154,0,0,0
99.64,0.17844,2.4034,0.03136,0.033654,0,0,0
100.14,0.18074,2.4083,0.031753,0.033887,0,0,0
100.64,0.18316,2.413,0.031861,0.034351,0,0,0
101.14,0.18545,2.4177,0.032349,0.034702,0,0,0
101.64,0.188,2.4223,0.032654,0.035289,0,0,0
102.14,0.19027,2.4267,0.032989,0.035668,0,0,0
102.64,0.19257,2.4313,0.033473,0.035982,0,0,0
103.14,0.19466,2.436,0.033672,0.036616,0,0,0
103.64,0.19706,2.441,0.034194,0.03684,0,0,0
104.14,0.19912,2.4457,0.034525,0.037283,0,0,0
104.64,0.20154,2.4503,0.034839,0.037603,0,0,0
105.14,0.20352,2.455,0.03518,0.038082,0,0,0
105.64,0.2058,2.4597,0.035426,0.038437,0,0,0
106.14,0.20762,2.464,0.036018,0.038724,0,0,0
106.64,0.2104,2.4683,0.036326,0.039193,0,0,0
107.14,0.21271,2.4724,0.036612,0.039474,0,0,0
107.64,0.21509,2.4766,0.037106,0.04008,0,0,0
108.14,0.21749,2.481,0.03733,0.040432,0,0,0
108.64,0.21973,2.4857,0.037633,0.041047,0,0,0
109.14,0.22204,2.4903,0.038264,0.041295,0,0,0
109.64,0.22434,2.4947,0.03848,0.041652,0,0,0
110.14,0.22626,2.499,0.038836,0.04201,0,0,0
110.64,0.22865,2.5033,0.039326,0.042544,0,0,0
111.14,0.23035,2.5074,0.039417,0.042911,0,0,0
111.64,0.23242,2.5113,0.039837,0.043184,0,0,0
112.14,0.23469,2.5153,0.040189,0.043506,0,0,0
112.64,0.23706,2.5197,0.040375,0.043946,0,0,0
113.14,0.23938,2.524,0.040774,0.044142,0,0,0
113.64,0.24169,2.5283,0.041294,0.044781,0,0,0
114.14,0.24437,2.5327,0.0416,0.04507,0,0,0
114.64,0.24646,2.5367,0.041929,0.045237,0,0,0
115.14,0.24874,2.5403,0.042344,0.045783,0,0,0
115.64,0.25063,2.544,0.042527,0.046244,0,0,0
116.14,0.25292,2.548,0.042816,0.046443,0,0,0
116.64,0.25501,2.552,0.043395,0.047019,0,0,0
117.14,0.25701,2.556,0.043588,0.047403,0,0,0
117.64,0.25891,2.5597,0.044005,0.047756,0,0,0
118.14,0.26089,2.5636,0.044391,0.048172,0,0,0
118.64,0.26323,2.5674,0.044648,0.048683,0,0,0
119.14,0.26522,2.5713,0.045065,0.048971,0,0,0
119.64,0.2678,2.575,0.045322,0.049163,0,0,0
120.14,0.26993,2.5787,0.045835,0.049642,0,0,0
120.64,0.27198,2.582,0.045996,0.049962,0,0,0
121.14,0.27376,2.585,0.046348,0.050154,0,0,0
121.64,0.27599,2.5883,0.04638,0.050569,0,0,0
122.14,0.27788,2.5917,0.046893,0.050952,0,0,0
122.64,0.27954,2.595,0.047181,0.051079,0,0,0
123.14,0.28127,2.598,0.047373,0.051462,0,0,0
123.64,0.28302,2.601,0.047469,0.051558,0,0,0
124.14,0.28459,2.604,0.04795,0.052164,0,0,0
124.64,0.28633,2.607,0.048205,0.052291,0,0,0
125.14,0.28782,2.6097,0.048398,0.052545,0,0,0
125.64,0.28998,2.6123,0.048653,0.05296,0,0,0
126.14,0.29179,2.615,0.048973,0.053119,0,0,0
126.64,0.29329,2.618,0.049261,0.053469,0,0,0
127.14,0.29513,2.621,0.049484,0.053628,0,0,0
127.64,0.2969,2.6237,0.049868,0.054232,0,0,0
128.14,0.29823,2.626,0.050091,0.054359,0,0,0
128.64,0.2998,2.6283,0.050347,0.054327,0,0,0
129.14,0.30139,2.631,0.050666,0.054868,0,0,0
129.64,0.303,2.6337,0.050825,0.054963,0,0,0
130.14,0.30434,2.6363,0.050921,0.055249,0,0,0
130.64,0.30586,2.639,0.051112,0.055439,0,0,0
131.14,0.30712,2.6417,0.051368,0.055726,0,0,0
131.64,0.30914,2.6446,0.051655,0.055916,0,0,0
132.14,0.31073,2.6474,0.051783,0.056106,0,0,0
132.64,0.31244,2.6503,0.05191,0.056265,0,0,0
133.14,0.31421,2.6527,0.052165,0.056519,0,0,0
133.64,0.31609,2.6553,0.052388,0.056709,0,0,0
134.14,0.31792,2.6577,0.05242,0.057027,0,0,0
134.64,0.31979,2.6603,0.052739,0.057344,0,0,0
135.14,0.32144,2.663,0.053216,0.057692,0,0,0
135.64,0.3229,2.6657,0.053439,0.058041,0,0,0
136.14,0.32436,2.6683,0.053726,0.058231,0,0,0
136.64,0.3263,2.671,0.053948,0.05839,0,0,0
137.14,0.328,2.6737,0.054234,0.058738,0,0,0
137.64,0.3299,2.6763,0.054425,0.058991,0,0,0
138.14,0.33152,2.6787,0.054774,0.059307,0,0,0
138.64,0.33355,2.681,0.054933,0.059561,0,0,0
139.14,0.33531,2.6833,0.055315,0.059877,0,0,0
139.64,0.33722,2.686,0.055442,0.060098,0,0,0
140.14,0.33938,2.6887,0.055728,0.060604,0,0,0
140.64,0.3415,2.6913,0.056077,0.060635,0,0,0
141.14,0.34344,2.6937,0.056299,0.060888,0,0,0
141.64,0.34522,2.696,0.05649,0.061204,0,0,0
142.14,0.34702,2.6983,0.056584,0.061425,0,0,0
142.64,0.34895,2.7007,0.056965,0.061677,0,0,0
143.14,0.35057,2.703,0.057315,0.06193,0,0,0
143.64,0.35218,2.7053,0.057472,0.062214,0,0,0
144.14,0.3543,2.7077,0.057757,0.062655,0,0,0
144.64,0.35619,2.7103,0.058107,0.06275,0,0,0
145.14,0.35804,2.713,0.058328,0.063192,0,0,0
145.64,0.36,2.7157,0.058581,0.063538,0,0,0
146.14,0.36235,2.7183,0.058962,0.063601,0,0,0
146.64,0.36422,2.7207,0.059373,0.064137,0,0,0
147.14,0.36624,2.723,0.059373,0.064388,0,0,0
147.64,0.3683,2.7253,0.059594,0.064545,0,0,0
148.14,0.37008,2.7277,0.059785,0.064828,0,0,0
148.64,0.37183,2.7303,0.060068,0.065206,0,0,0
149.14,0.37369,2.7327,0.060322,0.065206,0,0,0
149.64,0.37548,2.7353,0.060512,0.065615,0,0,0
150.14,0.37742,2.7377,0.060859,0.06593,0,0,0
150.64,0.37943,2.74,0.06108,0.066181,0,0,0
151.14,0.38123,2.7423,0.061396,0.066401,0,0,0
151.64,0.38303,2.7447,0.061554,0.066683,0,0,0
152.14,0.3852,2.747,0.061775,0.066903,0,0,0
152.64,0.3872,2.7493,0.062027,0.067217,0,0,0
153.14,0.38938,2.752,0.062311,0.067374,0,0,0
153.64,0.39143,2.7547,0.062438,0.067751,0,0,0
154.14,0.39336,2.7573,0.062753,0.067845,0,0,0
154.64,0.39506,2.7597,0.062974,0.06819,0,0,0
155.14,0.39691,2.762,0.063194,0.068567,0,0,0
155.64,0.39883,2.764,0.063572,0.068911,0,0,0
156.14,0.40041,2.766,0.063919,0.068879,0,0,0
156.64,0.40205,2.768,0.064077,0.069537,0,0,0
157.14,0.40407,2.7703,0.064485,0.0696,0,0,0
157.64,0.40592,2.773,0.064706,0.069976,0,0,0
158.14,0.40779,2.7757,0.064895,0.070226,0,0,0
158.64,0.40961,2.778,0.065335,0.070476,0,0,0
159.14,0.41176,2.7803,0.065429,0.070883,0,0,0
159.64,0.41399,2.7824,0.065556,0.070883,0,0,0
160.14,0.41557,2.7846,0.065838,0.071415,0,0,0
160.64,0.41774,2.7867,0.066246,0.071508,0,0,0
161.14,0.41936,2.789,0.066278,0.071789,0,0,0
161.64,0.42128,2.7913,0.066624,0.071759,0,0,0
162.14,0.42306,2.7937,0.066687,0.072258,0,0,0
162.64,0.42473,2.796,0.066906,0.072602,0,0,0
163.14,0.42646,2.7983,0.067158,0.072664,0,0,0
163.64,0.42814,2.8007,0.067566,0.072976,0,0,0
164.14,0.43023,2.8027,0.067785,0.073195,0,0,0
164.64,0.43184,2.8046,0.067942,0.073569,0,0,0
165.14,0.43393,2.8067,0.068318,0.073787,0,0,0
165.64,0.43595,2.809,0.068538,0.074006,0,0,0
166.14,0.4379,2.811,0.068882,0.074536,0,0,0
166.64,0.44009,2.813,0.069071,0.074754,0,0,0
167.14,0.44176,2.8153,0.069416,0.074972,0,0,0
167.64,0.44372,2.8177,0.06976,0.075346,0,0,0
168.14,0.44555,2.82,0.069853,0.075564,0,0,0
168.64,0.44713,2.822,0.070135,0.075874,0,0,0
169.14,0.44886,2.824,0.070292,0.076217,0,0,0
169.64,0.45059,2.826,0.070699,0.076341,0,0,0
170.14,0.45255,2.828,0.070949,0.076653,0,0,0
170.64,0.45421,2.8303,0.071043,0.076808,0,0,0
171.14,0.45613,2.8327,0.071386,0.077088,0,0,0
171.64,0.45826,2.835,0.071417,0.077336,0,0,0
172.14,0.46049,2.837,0.071793,0.077523,0,0,0
172.64,0.46242,2.839,0.072042,0.07774,0,0,0
173.14,0.46431,2.841,0.072168,0.078175,0,0,0
173.64,0.46639,2.843,0.072511,0.078237,0,0,0
174.14,0.46798,2.845,0.072668,0.078548,0,0,0
174.64,0.4699,2.847,0.072792,0.078795,0,0,0
175.14,0.47175,2.849,0.073011,0.079044,0,0,0
175.64,0.47362,2.8513,0.073323,0.079354,0,0,0
176.14,0.47527,2.8534,0.073634,0.079757,0,0,0
176.64,0.47697,2.8553,0.074039,0.079974,0,0,0
177.14,0.47885,2.857,0.074258,0.080036,0,0,0
177.64,0.48088,2.859,0.074414,0.080376,0,0,0
178.14,0.48273,2.861,0.074726,0.080593,0,0,0
178.64,0.48472,2.863,0.074881,0.081027,0,0,0
179.14,0.48671,2.865,0.075286,0.081244,0,0,0
179.64,0.48863,2.867,0.075411,0.081523,0,0,0
180.14,0.49059,2.8693,0.075567,0.081801,0,0,0
180.64,0.49238,2.8717,0.075971,0.082141,0,0,0
181.14,0.49418,2.874,0.076126,0.082296,0,0,0
181.64,0.49587,2.876,0.076345,0.082481,0,0,0
182.14,0.49759,2.8777,0.076562,0.082759,0,0,0
182.64,0.49948,2.8793,0.076687,0.083007,0,0,0
183.14,0.50113,2.881,0.077029,0.083007,0,0,0
183.64,0.50292,2.883,0.077153,0.083562,0,0,0
184.14,0.50475,2.885,0.077277,0.083717,0,0,0
184.64,0.507,2.887,0.077619,0.084056,0,0,0
185.14,0.50853,2.889,0.077712,0.084272,0,0,0
185.64,0.51068,2.891,0.078146,0.084335,0,0,0
186.14,0.51263,2.893,0.078395,0.084766,0,0,0
186.64,0.51462,2.895,0.078489,0.085137,0,0,0
187.14,0.51626,2.897,0.07886,0.085229,0,0,0
187.64,0.51811,2.899,0.079015,0.08563,0,0,0
188.14,0.51967,2.9007,0.079109,0.085753,0,0,0
188.64,0.52128,2.9026,0.079481,0.086184,0,0,0
189.14,0.52285,2.9047,0.079698,0.086277,0,0,0
189.64,0.52456,2.9067,0.079853,0.086584,0,0,0
190.14,0.52641,2.9086,0.08007,0.086892,0,0,0
190.64,0.52829,2.9104,0.080566,0.087169,0,0,0
191.14,0.52997,2.9123,0.080689,0.087415,0,0,0
191.64,0.53215,2.914,0.080782,0.087692,0,0,0
192.14,0.534,2.916,0.081216,0.087846,0,0,0
192.64,0.53598,2.9177,0.081371,0.088154,0,0,0
193.14,0.53786,2.9193,0.08168,0.088276,0,0,0
193.64,0.53961,2.921,0.08168,0.088492,0,0,0
194.14,0.54118,2.923,0.081959,0.088707,0,0,0
194.64,0.54283,2.925,0.082237,0.089137,0,0,0
195.14,0.54474,2.927,0.082422,0.089259,0,0,0
195.64,0.54632,2.929,0.08267,0.089628,0,0,0
196.14,0.548,2.9307,0.082916,0.08972,0,0,0
196.64,0.54988,2.9323,0.083041,0.09018,0,0,0
197.14,0.55176,2.934,0.083442,0.090364,0,0,0
197.64,0.55367,2.936,0.083503,0.090518,0,0,0
198.14,0.55552,2.938,0.083782,0.090671,0,0,0
198.64,0.55757,2.94,0.083813,0.091131,0,0,0
199.14,0.55965,2.942,0.084121,0.091406,0,0,0
199.64,0.56143,2.9437,0.084399,0.091652,0,0,0
200.14,0.56321,2.9453,0.084584,0.091866,0,0,0
200.64,0.56495,2.947,0.084954,0.09208,0,0,0
201.14,0.56653,2.9487,0.085231,0.092264,0,0,0
201.64,0.56848,2.95,0.085355,0.092631,0,0,0
202.14,0.57026,2.9516,0.08551,0.092662,0,0,0
202.64,0.57204,2.9534,0.085817,0.09309,0,0,0
203.14,0.57381,2.9553,0.086157,0.093274,0,0,0
203.64,0.57549,2.9573,0.086434,0.093427,0,0,0
204.14,0.57751,2.9594,0.086557,0.093733,0,0,0
204.64,0.57935,2.9613,0.086803,0.094038,0,0,0
205.14,0.5813,2.963,0.087141,0.094221,0,0,0
205.64,0.58342,2.9647,0.087234,0.094526,0,0,0
206.14,0.5851,2.9663,0.087387,0.094771,0,0,0
206.64,0.58654,2.968,0.087634,0.095077,0,0,0
207.14,0.58849,2.97,0.08788,0.095351,0,0,0
207.64,0.59033,2.972,0.088279,0.095412,0,0,0
208.14,0.59198,2.9737,0.088248,0.096113,0,0,0
208.64,0.59362,2.9753,0.088433,0.096053,0,0,0
209.14,0.59527,2.9767,0.08871,0.096327,0,0,0
209.64,0.59711,2.9786,0.089047,0.096601,0,0,0
210.14,0.59876,2.9804,0.089263,0.096815,0,0,0
210.64,0.60044,2.9823,0.089416,0.096906,0,0,0
211.14,0.60242,2.984,0.089693,0.097211,0,0,0
211.64,0.6046,2.9857,0.089969,0.097516,0,0,0
212.14,0.60652,2.9873,0.090398,0.09779,0,0,0
212.64,0.60819,2.989,0.090552,0.098033,0,0,0
213.14,0.60991,2.991,0.090674,0.098216,0,0,0
213.64,0.61172,2.9927,0.090919,0.09849,0,0,0
214.14,0.6132,2.9943,0.091072,0.098855,0,0,0
214.64,0.61508,2.996,0.091349,0.098945,0,0,0
215.14,0.61669,2.9977,0.091747,0.099371,0,0,0
215.64,0.6184,2.9993,0.091869,0.099645,0,0,0
216.14,0.62031,3.001,0.092267,0.099888,0,0,0
216.64,0.62203,3.0027,0.092359,0.10019,0,0,0
217.14,0.6238,3.0043,0.092604,0.10053,0,0,0
217.64,0.62599,3.006,0.092879,0.10077,0,0,0
218.14,0.62777,3.008,0.093063,0.10095,0,0,0
218.64,0.62981,3.0097,0.093277,0.10116,0,0,0
219.14,0.632,3.0113,0.093521,0.10144,0,0,0
219.64,0.63357,3.0127,0.093675,0.10177,0,0,0
220.14,0.63512,3.0143,0.094041,0.10204,0,0,0
220.64,0.63713,3.016,0.094041,0.10216,0,0,0
221.14,0.63874,3.018,0.094408,0.10238,0,0,0
221.64,0.64066,3.02,0.094531,0.10274,0,0,0
222.14,0.6422,3.0217,0.094836,0.10298,0,0,0
222.64,0.64412,3.0233,0.095019,0.10313,0,0,0
223.14,0.64586,3.025,0.095447,0.10332,0,0,0
223.64,0.64784,3.0267,0.095812,0.10368,0,0,0
224.14,0.64979,3.0283,0.095995,0.10389,0,0,0
224.64,0.6519,3.0297,0.096056,0.10416,0,0,0
225.14,0.65365,3.0313,0.09627,0.10434,0,0,0
225.64,0.65573,3.0327,0.096575,0.10477,0,0,0
226.14,0.65748,3.0343,0.09688,0.10513,0,0,0
226.64,0.65912,3.036,0.097093,0.10534,0,0,0
227.14,0.6607,3.0377,0.097337,0.10561,0,0,0
227.64,0.66224,3.0393,0.09749,0.10582,0,0,0
228.14,0.66396,3.041,0.097946,0.10613,0,0,0
228.64,0.6656,3.0427,0.098037,0.10634,0,0,0
229.14,0.66768,3.0443,0.09819,0.10667,0,0,0
229.64,0.66943,3.046,0.098524,0.10652,0,0,0
230.14,0.67127,3.048,0.098646,0.107,0,0,0
230.64,0.67302,3.05,0.09892,0.10715,0,0,0
231.14,0.67473,3.0517,0.099194,0.10757,0,0,0
231.64,0.67692,3.0533,0.099405,0.10782,0,0,0
232.14,0.67883,3.0547,0.09971,0.10803,0,0,0
232.64,0.68068,3.0563,0.099953,0.10845,0,0,0
233.14,0.68266,3.0577,0.1002,0.10863,0,0,0
233.64,0.6839,3.0593,0.10035,0.10878,0,0,0
234.14,0.68595,3.061,0.10056,0.10911,0,0,0
234.64,0.68789,3.0627,0.10089,0.10956,0,0,0
235.14,0.68961,3.0643,0.10126,0.10968,0,0,0
235.64,0.69115,3.0657,0.10141,0.10995,0,0,0
236.14,0.69263,3.0673,0.10168,0.11025,0,0,0
236.64,0.69471,3.0687,0.10193,0.1105,0,0,0
237.14,0.69639,3.0703,0.10217,0.11074,0,0,0
237.64,0.6986,3.0717,0.10241,0.11095,0,0,0
238.14,0.70072,3.0733,0.10262,0.11122,0,0,0
238.64,0.70243,3.075,0.10299,0.11146,0,0,0
239.14,0.70421,3.0767,0.10302,0.11182,0,0,0
239.64,0.70599,3.0783,0.10356,0.11203,0,0,0
240.14,0.70777,3.08,0.10368,0.11227,0,0,0
240.64,0.70968,3.0817,0.10392,0.11257,0,0,0
241.14,0.71143,3.0833,0.10417,0.11284,0,0,0
241.64,0.71321,3.085,0.1045,0.11308,0,0,0
242.14,0.71492,3.0867,0.10468,0.11326,0,0,0
242.64,0.71663,3.0883,0.10504,0.11356,0,0,0
243.14,0.71861,3.09,0.10516,0.11392,0,0,0
243.64,0.72053,3.0917,0.10538,0.11401,0,0,0
244.14,0.72251,3.093,0.10574,0.11434,0,0,0
244.64,0.72452,3.0943,0.10577,0.1149,0,0,0
245.14,0.72637,3.0957,0.10598,0.11505,0,0,0
245.64,0.72825,3.0973,0.10616,0.1152,0,0,0
246.14,0.72989,3.0987,0.10649,0.1155,0,0,0
246.64,0.73181,3.1003,0.10692,0.11571,0,0,0
247.14,0.73345,3.102,0.10692,0.11589,0,0,0
247.64,0.7353,3.1037,0.10731,0.11628,0,0,0
248.14,0.73691,3.1053,0.10758,0.11664,0,0,0
248.64,0.73845,3.1067,0.10794,0.117,0,0,0
249.14,0.74033,3.1083,0.10812,0.11712,0,0,0
249.64,0.74208,3.11,0.10836,0.11739,0,0,0
250.14,0.74416,3.1117,0.10836,0.11774,0,0,0
250.64,0.74604,3.113,0.109,0.11801,0,0,0
251.14,0.74809,3.1143,0.10915,0.11816,0,0,0
251.64,0.7498,3.1157,0.10945,0.11849,0,0,0
252.14,0.75192,3.1173,0.10972,0.1187,0,0,0
252.64,0.75346,3.119,0.10999,0.11917,0,0,0
253.14,0.75541,3.1207,0.11011,0.11938,0,0,0
253.64,0.75705,3.1223,0.11059,0.11968,0,0,0
254.14,0.75887,3.1237,0.11062,0.11989,0,0,0
254.64,0.76038,3.1253,0.11077,0.1201,0,0,0
255.14,0.76222,3.1267,0.11128,0.1204,0,0,0
255.64,0.7638,3.1283,0.11137,0.12057,0,0,0
256.14,0.76585,3.13,0.11146,0.12093,0,0,0
256.64,0.76743,3.1317,0.11173,0.12129,0,0,0
257.14,0.76924,3.1333,0.11191,0.12138,0,0,0
257.64,0.77122,3.1347,0.11239,0.1217,0,0,0
258.14,0.77327,3.136,0.11236,0.12188,0,0,0
258.64,0.77478,3.1373,0.11278,0.12227,0,0,0
259.14,0.77709,3.139,0.11299,0.12257,0,0,0
259.64,0.77857,3.1407,0.11323,0.12286,0,0,0
260.14,0.77998,3.142,0.1135,0.12316,0,0,0
260.64,0.78183,3.143,0.11383,0.12349,0,0,0
261.14,0.78327,3.1443,0.11419,0.12372,0,0,0
261.64,0.78545,3.146,0.1144,0.12414,0,0,0
262.14,0.7867,3.1477,0.11479,0.12449,0,0,0
262.64,0.78928,3.149,0.11518,0.12458,0,0,0
263.14,0.79099,3.1503,0.11542,0.12494,0,0,0
263.64,0.79291,3.1517,0.11539,0.12524,0,0,0
264.14,0.79435,3.1533,0.11566,0.1255,0,0,0
264.64,0.7968,3.155,0.11602,0.12574,0,0,0
265.14,0.79868,3.1567,0.11634,0.12607,0,0,0
265.64,0.80029,3.1583,0.11649,0.12627,0,0,0
266.14,0.80231,3.1597,0.11664,0.12669,0,0,0
266.64,0.80395,3.1613,0.11685,0.1268,0,0,0
267.14,0.8058,3.163,0.11706,0.12728,0,0,0
267.64,0.80764,3.1647,0.11718,0.12748,0,0,0
268.14,0.80902,3.166,0.11763,0.12751,0,0,0
268.64,0.8111,3.167,0.11772,0.12784,0,0,0
269.14,0.81281,3.1683,0.1179,0.12819,0,0,0
269.64,0.81466,3.17,0.11813,0.1284,0,0,0
270.14,0.81654,3.1717,0.11861,0.12881,0,0,0
270.64,0.81872,3.173,0.11873,0.12908,0,0,0
271.14,0.82047,3.174,0.11909,0.12943,0,0,0
271.64,0.82222,3.1753,0.11924,0.1297,0,0,0
272.14,0.82426,3.177,0.1198,0.13002,0,0,0
272.64,0.82614,3.1787,0.12007,0.13032,0,0,0
273.14,0.82782,3.18,0.12031,0.1307,0,0,0
273.64,0.82964,3.1813,0.12058,0.13088,0,0,0
274.14,0.83125,3.1827,0.12088,0.13126,0,0,0
274.64,0.83286,3.1843,0.12123,0.13153,0,0,0
275.14,0.83467,3.186,0.12141,0.13176,0,0,0
275.64,0.83632,3.1877,0.12177,0.13203,0,0,0
276.14,0.8381,3.189,0.12189,0.13241,0,0,0
276.64,0.84008,3.19,0.1221,0.13258,0,0,0
277.14,0.84226,3.1913,0.12224,0.13288,0,0,0
277.64,0.844,3.1927,0.12263,0.13314,0,0,0
278.14,0.84578,3.1943,0.12281,0.1335,0,0,0
278.64,0.84786,3.196,0.12299,0.13382,0,0,0
279.14,0.84961,3.1977,0.12316,0.13385,0,0,0
279.64,0.85132,3.199,0.12364,0.13417,0,0,0
280.14,0.8532,3.2003,0.12385,0.13452,0,0,0
280.64,0.85478,3.2017,0.12394,0.13473,0,0,0
281.14,0.85626,3.2033,0.12423,0.13499,0,0,0
281.64,0.85817,3.2047,0.12465,0.13543,0,0,0
282.14,0.86012,3.206,0.12491,0.13584,0,0,0
282.64,0.86203,3.2073,0.12512,0.13602,0,0,0
283.14,0.86395,3.2087,0.12554,0.13643,0,0,0
283.64,0.86579,3.2103,0.12598,0.13672,0,0,0
284.14,0.86771,3.2117,0.12604,0.13696,0,0,0
284.64,0.86955,3.213,0.12625,0.13737,0,0,0
285.14,0.87136,3.2143,0.12678,0.13763,0,0,0
285.64,0.87331,3.2157,0.12693,0.13798,0,0,0
286.14,0.87509,3.2173,0.12707,0.13836,0,0,0
286.64,0.87684,3.2187,0.12752,0.13854,0,0,0
287.14,0.87858,3.22,0.12764,0.13874,0,0,0
287.64,0.88033,3.2213,0.1279,0.13909,0,0,0
288.14,0.88197,3.2227,0.12823,0.13944,0,0,0
288.64,0.88382,3.224,0.12852,0.1397,0,0,0
289.14,0.88546,3.225,0.12867,0.13982,0,0,0
289.64,0.88745,3.2263,0.12891,0.14014,0,0,0
290.14,0.88943,3.2277,0.12917,0.14046,0,0,0
290.64,0.89151,3.2293,0.12938,0.14081,0,0,0
291.14,0.89315,3.231,0.12964,0.1411,0,0,0
291.64,0.8952,3.2327,0.12994,0.14142,0,0,0
292.14,0.89711,3.234,0.13009,0.14157,0,0,0
292.64,0.89873,3.2353,0.13059,0.14201,0,0,0
293.14,0.90051,3.2367,0.13073,0.14227,0,0,0
293.64,0.90255,3.238,0.13109,0.14274,0,0,0
294.14,0.9041,3.2393,0.13141,0.14303,0,0,0
294.64,0.90601,3.2407,0.13182,0.14329,0,0,0
295.14,0.90769,3.242,0.13188,0.14361,0,0,0
295.64,0.90947,3.243,0.13235,0.14407,0,0,0
296.14,0.91148,3.2443,0.13268,0.14431,0,0,0
296.64,0.91343,3.2457,0.13282,0.14454,0,0,0
297.14,0.91531,3.2473,0.13321,0.14492,0,0,0
297.64,0.91726,3.2487,0.13341,0.14524,0,0,0
298.14,0.91924,3.25,0.13373,0.14553,0,0,0
298.64,0.92102,3.2513,0.13394,0.1455,0,0,0
299.14,0.92249,3.2527,0.13423,0.14602,0,0,0
299.64,0.92401,3.2543,0.13447,0.14616,0,0,0
300.14,0.92575,3.2557,0.13467,0.14654,0,0,0
300.64,0.92766,3.257,0.1352,0.14698,0,0,0
301.14,0.92958,3.2583,0.13517,0.1473,0,0,0
301.64,0.93122,3.2597,0.13555,0.1475,0,0,0
302.14,0.93304,3.261,0.13573,0.14773,0,0,0
302.64,0.93488,3.262,0.13629,0.14799,0,0,0
303.14,0.937,3.2633,0.13661,0.14845,0,0,0
303.64,0.93874,3.2647,0.13675,0.14848,0,0,0
304.14,0.94069,3.266,0.13714,0.14915,0,0,0
304.64,0.94244,3.2673,0.13719,0.14935,0,0,0
305.14,0.94402,3.2687,0.1376,0.1495,0,0,0
305.64,0.94593,3.27,0.13763,0.14987,0,0,0
306.14,0.94754,3.2713,0.13807,0.15022,0,0,0
306.64,0.94966,3.2727,0.13839,0.15056,0,0,0
307.14,0.9513,3.274,0.13851,0.15077,0,0,0
307.64,0.95284,3.2753,0.13895,0.15108,0,0,0
308.14,0.95469,3.2767,0.13936,0.15149,0,0,0
308.64,0.9566,3.278,0.13947,0.1518,0,0,0
309.14,0.95825,3.279,0.13988,0.15209,0,0,0
309.64,0.96033,3.2803,0.13997,0.15241,0,0,0
310.14,0.96224,3.282,0.1405,0.1525,0,0,0
310.64,0.96412,3.2837,0.14055,0.15293,0,0,0
311.14,0.96614,3.285,0.14096,0.15313,0,0,0
311.64,0.96788,3.286,0.14143,0.15351,0,0,0
312.14,0.96973,3.2873,0.14172,0.15382,0,0,0
312.64,0.97134,3.2887,0.14198,0.15417,0,0,0
313.14,0.97309,3.29,0.14222,0.15434,0,0,0
313.64,0.9748,3.291,0.14239,0.15474,0,0,0
314.14,0.97671,3.2923,0.14265,0.15497,0,0,0
314.64,0.97849,3.2937,0.14303,0.15549,0,0,0
315.14,0.98014,3.2953,0.14318,0.15598,0,0,0
315.64,0.98229,3.2967,0.14347,0.15621,0,0,0
316.14,0.98403,3.298,0.14376,0.15641,0,0,0
316.64,0.98588,3.299,0.14408,0.15678,0,0,0
317.14,0.98816,3.3003,0.14443,0.1573,0,0,0
317.64,0.98994,3.3017,0.14466,0.15733,0,0,0
318.14,0.99155,3.303,0.14501,0.15779,0,0,0
318.64,0.99353,3.304,0.14533,0.15807,0,0,0
319.14,0.99518,3.305,0.14582,0.15824,0,0,0
319.64,0.99706,3.3063,0.14585,0.1587,0,0,0
320.14,0.99884,3.3077,0.14608,0.1589,0,0,0
320.64,1.0006,3.309,0.14643,0.15916,0,0,0
321.14,1.0022,3.3103,0.14672,0.15959,0,0,0
321.64,1.0041,3.3114,0.14692,0.15993,0,0,0
322.14,1.006,3.3126,0.14736,0.16013,0,0,0
322.64,1.0079,3.3137,0.14768,0.16042,0,0,0
323.14,1.0096,3.3153,0.14834,0.16094,0,0,0
323.64,1.0116,3.3167,0.14831,0.16119,0,0,0
324.14,1.0134,3.318,0.14866,0.16159,0,0,0
324.64,1.0153,3.3193,0.14898,0.16182,0,0,0
325.14,1.0171,3.3207,0.14938,0.16225,0,0,0
325.64,1.0189,3.322,0.14959,0.16271,0,0,0
326.14,1.0203,3.3233,0.14982,0.16293,0,0,0
326.64,1.0221,3.3247,0.15008,0.16322,0,0,0
327.14,1.0241,3.326,0.15022,0.16356,0,0,0
327.64,1.0258,3.327,0.15048,0.16387,0,0,0
328.14,1.0274,3.328,0.15063,0.16427,0,0,0
328.64,1.0294,3.329,0.15103,0.16447,0,0,0
329.14,1.0314,3.33,0.15135,0.16484,0,0,0
329.64,1.0332,3.3313,0.15164,0.1651,0,0,0
330.14,1.0351,3.3327,0.15193,0.16533,0,0,0
330.64,1.037,3.334,0.15236,0.16575,0,0,0
331.14,1.0388,3.3353,0.15267,0.16618,0,0,0
331.64,1.0407,3.3367,0.15311,0.16629,0,0,0
332.14,1.0423,3.338,0.15322,0.16692,0,0,0
332.64,1.0443,3.339,0.15365,0.16706,0,0,0
333.14,1.0461,3.3403,0.15394,0.16726,0,0,0
333.64,1.0477,3.3417,0.15429,0.16769,0,0,0
334.14,1.0494,3.343,0.15458,0.16811,0,0,0
334.64,1.0513,3.344,0.15518,0.16842,0,0,0
335.14,1.0533,3.345,0.15541,0.16862,0,0,0
335.64,1.0549,3.3463,0.15564,0.16896,0,0,0
336.14,1.0568,3.3477,0.15593,0.16933,0,0,0
336.64,1.0587,3.349,0.15616,0.16976,0,0,0
337.14,1.0606,3.35,0.15633,0.16993,0,0,0
337.64,1.0624,3.3513,0.15644,0.17052,0,0,0
338.14,1.0642,3.3527,0.15687,0.17063,0,0,0
338.64,1.0659,3.354,0.15719,0.17114,0,0,0
339.14,1.0677,3.355,0.15739,0.17148,0,0,0
339.64,1.0694,3.356,0.15765,0.17191,0,0,0
340.14,1.0712,3.3573,0.15808,0.17216,0,0,0
340.64,1.0727,3.3587,0.15831,0.17242,0,0,0
341.14,1.0747,3.36,0.15882,0.17259,0,0,0
341.64,1.0767,3.361,0.15908,0.17293,0,0,0
342.14,1.0785,3.3623,0.15925,0.17324,0,0,0
342.64,1.0803,3.3637,0.15965,0.17346,0,0,0
343.14,1.0821,3.365,0.16002,0.17391,0,0,0
343.64,1.084,3.366,0.1604,0.17428,0,0,0
344.14,1.0859,3.367,0.16071,0.1747,0,0,0
344.64,1.0876,3.3683,0.16108,0.1749,0,0,0
345.14,1.0892,3.3697,0.16134,0.17527,0,0,0
345.64,1.0911,3.371,0.16171,0.1756,0,0,0
346.14,1.093,3.372,0.16191,0.17597,0,0,0
346.64,1.0943,3.373,0.16243,0.17634,0,0,0
347.14,1.0964,3.374,0.16251,0.17653,0,0,0
347.64,1.0981,3.375,0.16282,0.17681,0,0,0
348.14,1.1001,3.3763,0.16322,0.17735,0,0,0
348.64,1.1018,3.3774,0.16357,0.17763,0,0,0
349.14,1.1037,3.3786,0.16382,0.17794,0,0,0
349.64,1.1057,3.3797,0.16414,0.17844,0,0,0
350.14,1.1074,3.381,0.16428,0.17892,0,0,0
350.64,1.1093,3.3823,0.16473,0.17906,0,0,0
351.14,1.1109,3.3837,0.16522,0.17934,0,0,0
351.64,1.1128,3.385,0.16536,0.17988,0,0,0
352.14,1.1146,3.386,0.16582,0.18024,0,0,0
352.64,1.1164,3.387,0.16616,0.18052,0,0,0
353.14,1.1182,3.3883,0.16653,0.18103,0,0,0
353.64,1.1199,3.3897,0.16681,0.18133,0,0,0
354.14,1.122,3.3907,0.16695,0.18156,0,0,0
354.64,1.1238,3.3913,0.16732,0.18167,0,0,0
355.14,1.1257,3.3923,0.16786,0.18226,0,0,0
355.64,1.1275,3.3937,0.16812,0.18248,0,0,0
356.14,1.1294,3.395,0.16837,0.1827,0,0,0
356.64,1.1314,3.396,0.16854,0.18318,0,0,0
357.14,1.133,3.397,0.16894,0.1834,0,0,0
357.64,1.1346,3.398,0.16922,0.18374,0,0,0
358.14,1.1364,3.399,0.16959,0.18405,0,0,0
358.64,1.1384,3.4003,0.17007,0.18449,0,0,0
359.14,1.14,3.4017,0.17016,0.18477,0,0,0
359.64,1.1418,3.403,0.1707,0.18516,0,0,0
360.14,1.1436,3.404,0.17106,0.18575,0,0,0
360.64,1.1455,3.405,0.17135,0.18608,0,0,0
361.14,1.1474,3.406,0.17177,0.18653,0,0,0
361.64,1.1491,3.4073,0.17186,0.18678,0,0,0
362.14,1.1513,3.4087,0.17231,0.18709,0,0,0
362.64,1.1531,3.41,0.17259,0.18742,0,0,0
363.14,1.1549,3.411,0.17304,0.18778,0,0,0
363.64,1.1567,3.412,0.17333,0.18806,0,0,0
364.14,1.1585,3.413,0.17378,0.18825,0,0,0
364.64,1.1601,3.414,0.17392,0.18864,0,0,0
365.14,1.1619,3.415,0.1744,0.18914,0,0,0
365.64,1.1636,3.416,0.17471,0.18948,0,0,0
366.14,1.1652,3.417,0.17507,0.18962,0,0,0
366.64,1.1671,3.418,0.17527,0.1897,0,0,0
367.14,1.1687,3.4193,0.17564,0.19045,0,0,0
367.64,1.1706,3.4204,0.17589,0.19056,0,0,0
368.14,1.1723,3.4216,0.17626,0.19109,0,0,0
368.64,1.1742,3.4227,0.17657,0.19139,0,0,0
369.14,1.1763,3.424,0.17707,0.1917,0,0,0
369.64,1.1779,3.425,0.17719,0.19225,0,0,0
370.14,1.1798,3.426,0.17738,0.19253,0,0,0
370.64,1.1816,3.427,0.17797,0.19294,0,0,0
371.14,1.1834,3.428,0.17814,0.19347,0,0,0
371.64,1.1853,3.4293,0.17856,0.19383,0,0,0
372.14,1.1869,3.4307,0.17873,0.19408,0,0,0
372.64,1.1886,3.432,0.17912,0.19438,0,0,0
373.14,1.1901,3.4327,0.17966,0.19477,0,0,0
373.64,1.1921,3.4336,0.18008,0.1951,0,0,0
374.14,1.1941,3.4347,0.18016,0.19532,0,0,0
374.64,1.1957,3.4357,0.18058,0.19574,0,0,0
375.14,1.1977,3.4366,0.18078,0.19604,0,0,0
375.64,1.1995,3.4377,0.18128,0.19645,0,0,0
376.14,1.2014,3.439,0.18153,0.19684,0,0,0
376.64,1.203,3.44,0.18204,0.19703,0,0,0
377.14,1.2049,3.441,0.18237,0.19742,0,0,0
377.64,1.2066,3.442,0.18249,0.19767,0,0,0
378.14,1.2084,3.443,0.18305,0.19827,0,0,0
378.64,1.2101,3.444,0.1831,0.19852,0,0,0
379.14,1.2117,3.445,0.18374,0.19893,0,0,0
379.64,1.2137,3.446,0.18405,0.19937,0,0,0
380.14,1.2152,3.4473,0.18416,0.19981,0,0,0
380.64,1.2173,3.4484,0.18455,0.20034,0,0,0
381.14,1.2192,3.4493,0.18497,0.20061,0,0,0
381.64,1.2207,3.4503,0.18531,0.20072,0,0,0
382.14,1.2226,3.4517,0.18564,0.20116,0,0,0
382.64,1.2247,3.453,0.18603,0.2016,0,0,0
383.14,1.2264,3.454,0.18626,0.20187,0,0,0
383.64,1.228,3.455,0.18679,0.20231,0,0,0
384.14,1.2297,3.456,0.18709,0.20234,0,0,0
384.64,1.2316,3.457,0.18751,0.20272,0,0,0
385.14,1.2332,3.458,0.18795,0.20319,0,0,0
385.64,1.2351,3.4593,0.18832,0.20349,0,0,0
386.14,1.2369,3.4604,0.18873,0.20385,0,0,0
386.64,1.2385,3.4616,0.18882,0.20439,0,0,0
387.14,1.2404,3.4627,0.18934,0.20486,0,0,0
387.64,1.2423,3.464,0.18971,0.20546,0,0,0
388.14,1.2441,3.465,0.19018,0.20582,0,0,0
388.64,1.2459,3.466,0.19057,0.20606,0,0,0
389.14,1.2479,3.4667,0.19054,0.20655,0,0,0
389.64,1.2498,3.4676,0.19129,0.20666,0,0,0
390.14,1.2518,3.4684,0.19143,0.20704,0,0,0
390.64,1.2534,3.4693,0.19195,0.20743,0,0,0
391.14,1.2551,3.47,0.19223,0.20786,0,0,0
391.64,1.2569,3.471,0.19259,0.20841,0,0,0
392.14,1.2587,3.472,0.19287,0.20871,0,0,0
392.64,1.2601,3.473,0.19317,0.20893,0,0,0
393.14,1.2622,3.474,0.1937,0.20936,0,0,0
393.64,1.264,3.4753,0.19414,0.20963,0,0,0
394.14,1.2661,3.4767,0.19444,0.21029,0,0,0
394.64,1.2677,3.478,0.19467,0.21048,0,0,0
395.14,1.2696,3.479,0.195,0.21108,0,0,0
395.64,1.2714,3.48,0.19547,0.21137,0,0,0
396.14,1.2733,3.481,0.19574,0.21195,0,0,0
396.64,1.2752,3.482,0.19624,0.21246,0,0,0
397.14,1.2771,3.483,0.19654,0.21268,0,0,0
397.64,1.2788,3.484,0.19687,0.21317,0,0,0
398.14,1.2805,3.485,0.19729,0.21365,0,0,0
398.64,1.2824,3.486,0.19784,0.21412,0,0,0
399.14,1.2843,3.487,0.19819,0.21417,0,0,0
399.64,1.2861,3.488,0.19855,0.21479,0,0,0
400.14,1.2881,3.489,0.19897,0.21509,0,0,0
400.64,1.2899,3.49,0.19935,0.21552,0,0,0
401.14,1.2917,3.491,0.19985,0.21582,0,0,0
401.64,1.2937,3.492,0.20026,0.21612,0,0,0
402.14,1.2953,3.493,0.20051,0.21677,0,0,0
402.64,1.2975,3.494,0.20097,0.21717,0,0,0
403.14,1.2993,3.495,0.2013,0.2175,0,0,0
403.64,1.3011,3.496,0.20163,0.21777,0,0,0
404.14,1.303,3.497,0.20207,0.21831,0,0,0
404.64,1.3045,3.4977,0.20221,0.21877,0,0,0
405.14,1.3066,3.4986,0.20265,0.21904,0,0,0
405.64,1.3082,3.4997,0.20303,0.21952,0,0,0
406.14,1.31,3.501,0.20339,0.22014,0,0,0
406.64,1.3119,3.502,0.2038,0.22036,0,0,0
407.14,1.3141,3.5027,0.20443,0.22073,0,0,0
407.64,1.3157,3.5036,0.20456,0.22119,0,0,0
408.14,1.3175,3.5044,0.205,0.22149,0,0,0
408.64,1.3195,3.5056,0.20533,0.22221,0,0,0
409.14,1.3214,3.5067,0.20563,0.22243,0,0,0
409.64,1.3233,3.508,0.20623,0.22294,0,0,0
410.14,1.325,3.509,0.20645,0.22334,0,0,0
410.64,1.3269,3.5097,0.20697,0.22388,0,0,0
411.14,1.3286,3.5106,0.20738,0.22431,0,0,0
411.64,1.3305,3.5114,0.20776,0.2246,0,0,0
412.14,1.3322,3.5123,0.20817,0.22522,0,0,0
412.64,1.3341,3.5133,0.20847,0.22557,0,0,0
413.14,1.3361,3.5144,0.20899,0.22586,0,0,0
413.64,1.3379,3.5153,0.20945,0.22648,0,0,0
414.14,1.3396,3.516,0.20989,0.22683,0,0,0
414.64,1.3416,3.517,0.21021,0.22725,0,0,0
415.14,1.3435,3.518,0.21078,0.22784,0,0,0
415.64,1.3454,3.519,0.21122,0.22832,0,0,0
416.14,1.3473,3.52,0.21154,0.22864,0,0,0
416.64,1.349,3.521,0.21187,0.22915,0,0,0
417.14,1.3508,3.522,0.21217,0.22955,0,0,0
417.64,1.3528,3.523,0.21239,0.23022,0,0,0
418.14,1.3544,3.524,0.21306,0.23051,0,0,0
418.64,1.356,3.525,0.21334,0.23096,0,0,0
419.14,1.3582,3.526,0.21364,0.23136,0,0,0
419.64,1.3599,3.527,0.21404,0.23182,0,0,0
420.14,1.362,3.528,0.21458,0.23219,0,0,0
420.64,1.3638,3.529,0.21491,0.23278,0,0,0
421.14,1.3656,3.5297,0.21529,0.23315,0,0,0
421.64,1.3676,3.5306,0.21578,0.23349,0,0,0
422.14,1.3694,3.5314,0.21621,0.23384,0,0,0
422.64,1.3714,3.5326,0.21656,0.23418,0,0,0
423.14,1.3728,3.5337,0.21713,0.23469,0,0,0
423.64,1.375,3.5347,0.21748,0.23522,0,0,0
424.14,1.3768,3.5353,0.21794,0.23554,0,0,0
424.64,1.3787,3.536,0.21842,0.2362,0,0,0
425.14,1.3804,3.537,0.21872,0.23652,0,0,0
425.64,1.3823,3.538,0.21926,0.23694,0,0,0
426.14,1.3843,3.539,0.21953,0.23745,0,0,0
426.64,1.3861,3.54,0.21991,0.23795,0,0,0
427.14,1.3881,3.541,0.22034,0.2384,0,0,0
427.64,1.39,3.542,0.2208,0.23882,0,0,0
428.14,1.3918,3.543,0.22131,0.23938,0,0,0
428.64,1.3938,3.544,0.22168,0.23967,0,0,0
429.14,1.3956,3.545,0.22233,0.24012,0,0,0
429.64,1.3975,3.546,0.22265,0.2407,0,0,0
430.14,1.3994,3.547,0.223,0.24096,0,0,0
430.64,1.401,3.548,0.22343,0.24154,0,0,0
431.14,1.4031,3.5487,0.2241,0.24196,0,0,0
431.64,1.4048,3.5493,0.2245,0.2426,0,0,0
432.14,1.407,3.55,0.22483,0.24286,0,0,0
432.64,1.4085,3.551,0.22531,0.24336,0,0,0
433.14,1.4106,3.552,0.22598,0.24373,0,0,0
433.64,1.4127,3.553,0.226,0.24449,0,0,0
434.14,1.4146,3.554,0.22659,0.2447,0,0,0
434.64,1.4166,3.5547,0.22697,0.24536,0,0,0
435.14,1.4185,3.5553,0.2274,0.24575,0,0,0
435.64,1.4204,3.556,0.22777,0.24643,0,0,0
436.14,1.4223,3.557,0.22817,0.24675,0,0,0
436.64,1.4241,3.558,0.22852,0.24719,0,0,0
437.14,1.4258,3.559,0.22905,0.24759,0,0,0
437.64,1.4279,3.56,0.22961,0.24819,0,0,0
438.14,1.4296,3.561,0.23004,0.24861,0,0,0
438.64,1.4315,3.562,0.23071,0.24911,0,0,0
439.14,1.4338,3.563,0.23135,0.24966,0,0,0
439.64,1.4356,3.5637,0.23196,0.25018,0,0,0
440.14,1.4375,3.5643,0.23225,0.25078,0,0,0
440.64,1.4395,3.565,0.23257,0.25146,0,0,0
441.14,1.4413,3.566,0.23316,0.2518,0,0,0
441.64,1.4435,3.567,0.23385,0.25227,0,0,0
442.14,1.4452,3.568,0.23403,0.25292,0,0,0
442.64,1.4473,3.5687,0.23467,0.25331,0,0,0
443.14,1.4489,3.5693,0.23507,0.25383,0,0,0
443.64,1.4507,3.57,0.23534,0.25422,0,0,0
444.14,1.4529,3.5713,0.23589,0.25493,0,0,0
444.64,1.4547,3.5724,0.23637,0.25545,0,0,0
445.14,1.4565,3.5733,0.23666,0.25565,0,0,0
445.64,1.4585,3.574,0.23714,0.25628,0,0,0
446.14,1.4606,3.575,0.23775,0.2568,0,0,0
446.64,1.4625,3.576,0.23841,0.25732,0,0,0
447.14,1.4645,3.577,0.23899,0.25778,0,0,0
447.64,1.4664,3.578,0.23931,0.25804,0,0,0
448.14,1.4686,3.5787,0.23984,0.25843,0,0,0
448.64,1.4705,3.5793,0.2402,0.25916,0,0,0
449.14,1.4723,3.58,0.24073,0.25968,0,0,0
449.64,1.4742,3.581,0.24123,0.26045,0,0,0
450.14,1.476,3.582,0.24174,0.26053,0,0,0
450.64,1.4781,3.5827,0.24237,0.26133,0,0,0
451.14,1.48,3.5833,0.2425,0.26182,0,0,0
451.64,1.4818,3.584,0.24332,0.26221,0,0,0
452.14,1.4839,3.585,0.2435,0.26298,0,0,0
452.64,1.4859,3.586,0.24432,0.2635,0,0,0
453.14,1.4881,3.587,0.24461,0.26412,0,0,0
453.64,1.4896,3.588,0.24534,0.26458,0,0,0
454.14,1.4914,3.589,0.24581,0.2651,0,0,0
454.64,1.4936,3.59,0.24663,0.26546,0,0,0
455.14,1.4958,3.5907,0.24715,0.26626,0,0,0
455.64,1.4973,3.5913,0.24765,0.26657,0,0,0
456.14,1.4996,3.592,0.24823,0.26757,0,0,0
456.64,1.5016,3.593,0.24878,0.26782,0,0,0
457.14,1.5034,3.594,0.24925,0.26829,0,0,0
457.64,1.5056,3.595,0.24993,0.26911,0,0,0
458.14,1.5074,3.596,0.2504,0.26965,0,0,0
458.64,1.5093,3.5967,0.25079,0.27006,0,0,0
459.14,1.5114,3.5973,0.25134,0.2708,0,0,0
459.64,1.5135,3.5977,0.25181,0.27136,0,0,0
460.14,1.5155,3.5983,0.25225,0.27203,0,0,0
460.64,1.5173,3.599,0.25288,0.27256,0,0,0
461.14,1.5197,3.6,0.2535,0.27331,0,0,0
461.64,1.5214,3.601,0.25397,0.27387,0,0,0
462.14,1.5233,3.602,0.25457,0.27445,0,0,0
462.64,1.5254,3.603,0.25507,0.27504,0,0,0
463.14,1.5272,3.604,0.25572,0.27581,0,0,0
463.64,1.5294,3.605,0.25631,0.27649,0,0,0
464.14,1.5313,3.6057,0.25704,0.2771,0,0,0
464.64,1.5335,3.6063,0.25753,0.27769,0,0,0
465.14,1.5355,3.607,0.25813,0.27817,0,0,0
465.64,1.5374,3.608,0.25839,0.27888,0,0,0
466.14,1.5394,3.609,0.25886,0.27934,0,0,0
466.64,1.5415,3.6097,0.2595,0.27995,0,0,0
467.14,1.5435,3.6103,0.26007,0.28033,0,0,0
467.64,1.5455,3.611,0.26077,0.28084,0,0,0
468.14,1.5478,3.612,0.26129,0.28167,0,0,0
468.64,1.5497,3.6127,0.26186,0.28218,0,0,0
469.14,1.5518,3.6133,0.26253,0.28299,0,0,0
469.64,1.5534,3.614,0.26323,0.2834,0,0,0
470.14,1.5556,3.615,0.26385,0.28415,0,0,0
470.64,1.5575,3.616,0.26459,0.28481,0,0,0
471.14,1.5597,3.6167,0.26526,0.28549,0,0,0
471.64,1.5617,3.6173,0.26596,0.28627,0,0,0
472.14,1.564,3.618,0.26665,0.28716,0,0,0
472.64,1.5662,3.619,0.26709,0.28751,0,0,0
473.14,1.5681,3.62,0.26784,0.28849,0,0,0
473.64,1.5704,3.6207,0.26868,0.28912,0,0,0
474.14,1.5727,3.6213,0.26914,0.28955,0,0,0
474.64,1.5745,3.622,0.26968,0.29012,0,0,0
475.14,1.5766,3.6227,0.27032,0.29103,0,0,0
475.64,1.5787,3.6236,0.27109,0.29168,0,0,0
476.14,1.5806,3.6244,0.27125,0.29221,0,0,0
476.64,1.5827,3.6253,0.27227,0.29296,0,0,0
477.14,1.5848,3.626,0.27281,0.29363,0,0,0
477.64,1.5871,3.6267,0.27352,0.29456,0,0,0
478.14,1.5893,3.6273,0.27424,0.29519,0,0,0
478.64,1.5912,3.628,0.27495,0.29593,0,0,0
479.14,1.5933,3.6287,0.27526,0.29671,0,0,0
479.64,1.5954,3.6293,0.27617,0.29721,0,0,0
480.14,1.5976,3.63,0.27689,0.29793,0,0,0
480.64,1.6,3.631,0.27745,0.29868,0,0,0
481.14,1.602,3.6317,0.2779,0.2995,0,0,0
481.64,1.6041,3.6323,0.27857,0.2999,0,0,0
482.14,1.606,3.633,0.27933,0.30054,0,0,0
482.64,1.6079,3.634,0.27994,0.30129,0,0,0
483.14,1.6102,3.6347,0.28082,0.30223,0,0,0
483.64,1.6125,3.6353,0.28161,0.30258,0,0,0
484.14,1.6146,3.636,0.28194,0.30342,0,0,0
484.64,1.6168,3.6367,0.28283,0.30394,0,0,0
485.14,1.6189,3.6373,0.28338,0.30511,0,0,0
485.64,1.6211,3.638,0.28437,0.30553,0,0,0
486.14,1.623,3.639,0.28492,0.30642,0,0,0
486.64,1.6255,3.6397,0.28563,0.30716,0,0,0
487.14,1.6273,3.6403,0.28654,0.30792,0,0,0
487.64,1.6296,3.641,0.28707,0.30879,0,0,0
488.14,1.6316,3.6417,0.2878,0.30953,0,0,0
488.64,1.6338,3.6426,0.2886,0.31017,0,0,0
489.14,1.636,3.6434,0.28928,0.311,0,0,0
489.64,1.6384,3.6443,0.28991,0.31169,0,0,0
490.14,1.6405,3.645,0.29071,0.31216,0,0,0
490.64,1.6426,3.6457,0.29172,0.31327,0,0,0
491.14,1.6449,3.6463,0.29234,0.31395,0,0,0
491.64,1.647,3.6467,0.293,0.31474,0,0,0
492.14,1.6492,3.6473,0.2938,0.31557,0,0,0
492.64,1.6514,3.6477,0.29455,0.31623,0,0,0
493.14,1.6536,3.6483,0.29532,0.31718,0,0,0
493.64,1.6556,3.649,0.296,0.31836,0,0,0
494.14,1.6579,3.65,0.29665,0.31877,0,0,0
494.64,1.6602,3.6507,0.29744,0.31953,0,0,0
495.14,1.6621,3.6513,0.29824,0.32038,0,0,0
495.64,1.6646,3.6517,0.29894,0.32104,0,0,0
496.14,1.6667,3.6523,0.29976,0.32192,0,0,0
496.64,1.6686,3.6527,0.30053,0.32245,0,0,0
497.14,1.6713,3.6533,0.3016,0.32354,0,0,0
497.64,1.6736,3.654,0.30227,0.3243,0,0,0
498.14,1.6757,3.655,0.30311,0.32546,0,0,0
498.64,1.678,3.6557,0.30371,0.32609,0,0,0
499.14,1.6803,3.6563,0.30458,0.32711,0,0,0
499.64,1.6822,3.6567,0.30549,0.32808,0,0,0
500.14,1.6847,3.6573,0.30623,0.32868,0,0,0
500.64,1.6871,3.6577,0.30697,0.32965,0,0,0
501.14,1.6893,3.6583,0.30794,0.33047,0,0,0
501.64,1.6916,3.659,0.30873,0.33126,0,0,0
502.14,1.6938,3.6597,0.30947,0.33196,0,0,0
502.64,1.6964,3.6603,0.31018,0.33288,0,0,0
503.14,1.6984,3.6607,0.31114,0.33374,0,0,0
503.64,1.7011,3.6613,0.31193,0.33439,0,0,0
504.14,1.7034,3.6617,0.31284,0.33526,0,0,0
504.64,1.7054,3.6623,0.31382,0.33636,0,0,0
505.14,1.708,3.6627,0.31475,0.33722,0,0,0
505.64,1.7102,3.6633,0.31568,0.33835,0,0,0
506.14,1.7123,3.664,0.31646,0.33916,0,0,0
506.64,1.7147,3.6647,0.31746,0.34029,0,0,0
507.14,1.7171,3.6653,0.31837,0.341,0,0,0
507.64,1.7196,3.6657,0.31937,0.34174,0,0,0
508.14,1.7219,3.666,0.32025,0.34303,0,0,0
508.64,1.7244,3.6663,0.32108,0.34398,0,0,0
509.14,1.7269,3.6667,0.32217,0.34491,0,0,0
509.64,1.7293,3.667,0.3231,0.34572,0,0,0
510.14,1.7318,3.6673,0.32399,0.34702,0,0,0
510.64,1.7341,3.6677,0.32516,0.34795,0,0,0
511.14,1.7363,3.6683,0.32589,0.34911,0,0,0
511.64,1.7387,3.669,0.32695,0.34987,0,0,0
512.14,1.7411,3.6697,0.32802,0.35088,0,0,0
512.64,1.7438,3.67,0.32898,0.35169,0,0,0
513.14,1.746,3.6703,0.32993,0.35291,0,0,0
513.64,1.7483,3.6707,0.33094,0.35428,0,0,0
514.14,1.7508,3.6713,0.33181,0.35494,0,0,0
514.64,1.7535,3.6717,0.33291,0.3564,0,0,0
515.14,1.7558,3.6723,0.33393,0.35746,0,0,0
515.64,1.7583,3.6727,0.33484,0.35865,0,0,0
516.14,1.7609,3.6733,0.33575,0.3594,0,0,0
516.64,1.7632,3.6737,0.33676,0.36055,0,0,0
517.14,1.7659,3.674,0.33796,0.36177,0,0,0
517.64,1.7683,3.674,0.3391,0.36287,0,0,0
518.14,1.7709,3.674,0.33999,0.36389,0,0,0
518.64,1.7733,3.674,0.34116,0.3649,0,0,0
519.14,1.7759,3.6743,0.34226,0.36599,0,0,0
519.64,1.7784,3.6747,0.34347,0.36727,0,0,0
520.14,1.781,3.675,0.34438,0.36811,0,0,0
520.64,1.7836,3.6753,0.34561,0.36955,0,0,0
521.14,1.7861,3.6757,0.3468,0.37041,0,0,0
521.64,1.7887,3.676,0.34792,0.3721,0,0,0
522.14,1.7915,3.676,0.34905,0.37297,0,0,0
522.64,1.794,3.676,0.3504,0.37411,0,0,0
523.14,1.7966,3.676,0.35161,0.37498,0,0,0
523.64,1.7992,3.6763,0.35288,0.37694,0,0,0
524.14,1.802,3.6767,0.35439,0.37775,0,0,0
524.64,1.8047,3.677,0.35564,0.37892,0,0,0
525.14,1.8072,3.677,0.35679,0.3798,0,0,0
525.64,1.8101,3.677,0.35817,0.38113,0,0,0
526.14,1.8125,3.677,0.35935,0.38257,0,0,0
526.64,1.8154,3.677,0.36024,0.38346,0,0,0
527.14,1.818,3.677,0.36157,0.38486,0,0,0
527.64,1.8207,3.677,0.36304,0.3862,0,0,0
528.14,1.8233,3.677,0.36412,0.38737,0,0,0
528.64,1.826,3.677,0.36542,0.38846,0,0,0
529.14,1.8287,3.677,0.36694,0.38985,0,0,0
529.64,1.8316,3.677,0.36831,0.39094,0,0,0
530.14,1.8342,3.677,0.36982,0.39239,0,0,0
530.64,1.837,3.677,0.37134,0.39371,0,0,0
531.14,1.84,3.6767,0.37239,0.39509,0,0,0
531.64,1.8428,3.6763,0.37375,0.3964,0,0,0
532.14,1.8458,3.676,0.37484,0.39744,0,0,0
532.64,1.8485,3.676,0.37654,0.39294,0,0,0
533.14,1.8515,3.6757,0.37783,0.39373,0,0,0
533.64,1.8541,3.6753,0.37919,0.39461,0,0,0
534.14,1.857,3.6747,0.38061,0.39597,0,0,0
534.64,1.8598,3.6743,0.38217,0.39705,0,0,0
535.14,1.8627,3.674,0.38389,0.3985,0,0,0
535.64,1.8657,3.6737,0.38526,0.40012,0,0,0
536.14,1.8686,3.6733,0.38654,0.40216,0,0,0
536.64,1.8715,3.6727,0.38843,0.40425,0,0,0
537.14,1.8746,3.6723,0.3895,0.40564,0,0,0
537.64,1.8776,3.6717,0.39102,0.40707,0,0,0
538.14,1.8807,3.6713,0.39256,0.40827,0,0,0
538.64,1.8837,3.6707,0.39422,0.40946,0,0,0
539.14,1.8865,3.67,0.39573,0.41084,0,0,0
539.64,1.8898,3.6693,0.39743,0.41184,0,0,0
540.14,1.8928,3.6687,0.399,0.41311,0,0,0
540.64,1.8957,3.668,0.40072,0.41468,0,0,0
541.14,1.8986,3.667,0.4026,0.4165,0,0,0
541.64,1.902,3.666,0.4042,0.41811,0,0,0
542.14,1.9052,3.665,0.40601,0.42017,0,0,0
542.64,1.9082,3.664,0.40769,0.42184,0,0,0
543.14,1.9116,3.663,0.40947,0.42386,0,0,0
543.64,1.9148,3.662,0.41119,0.4252,0,0,0
544.14,1.9178,3.6607,0.41287,0.42678,0,0,0
544.64,1.9208,3.659,0.41469,0.42873,0,0,0
545.14,1.9242,3.657,0.41669,0.43035,0,0,0
545.64,1.9275,3.6553,0.41883,0.43181,0,0,0
546.14,1.9306,3.6537,0.42055,0.43331,0,0,0
546.64,1.9337,3.652,0.42269,0.43605,0,0,0
547.14,1.937,3.6497,0.42476,0.43746,0,0,0
547.64,1.9407,3.647,0.42671,0.43926,0,0,0
548.14,1.9444,3.6437,0.42883,0.44131,0,0,0
548.64,1.9476,3.6394,0.43143,0.44261,0,0,0
549.14,1.9514,3.6331,0.43413,0.44439,0,0,0
549.64,1.9555,3.6261,0.43665,0.44614,0,0,0
550.14,1.9589,3.62,0.43925,0.44841,0,0,0
550.64,1.9625,3.6147,0.44163,0.45124,0,0,0
551.14,1.9663,3.6087,0.44404,0.4531,0,0,0
551.64,1.9699,3.602,0.44699,0.45557,0,0,0
552.14,1.9745,3.5919,0.45038,0.45876,0,0,0