File: lab_data/AA6014-T4_results/DATA/NT20_90_2.csv
Time[s],Displacement[mm],Force[kN],AxStrain_1,AxStrain_2,Thickness[mm],OuterWidth[mm],InnerWidth[mm]
0.6,0,-0.004886,0,0,1.1134,20,10.095
1.1,0.000252,0.0036646,-9.3004e-05,0,0,0,0
1.6,0.000936,0.014013,9.1996e-05,0,0,0,0
2.1,0.001276,0.035996,7.4997e-05,0,0,0,0
2.6,0.001965,0.062718,-4.9001e-05,0,0,0,0
3.1,0.002422,0.086278,0.00016999,0,0,0,0
3.6,0.002562,0.104,7.9997e-05,0,0,0,0
4.1,0.002856,0.11815,0.00010499,0,0,0,0
4.6,0.003146,0.13414,0.00016999,0,0,0,0
5.1,0.003553,0.15171,6.2998e-05,0,0,0,0
5.6,0.003701,0.16943,0.00017898,0,0,0,0
6.1,0.00404,0.18871,0.00010999,0,0,0,0
6.6,0.004436,0.20728,-6.7002e-05,0,0,0,0
7.1,0.004532,0.22071,0.00016399,0,0,0,0
7.6,0.004691,0.22986,0.00016099,0,0,0,0
8.1,0.004929,0.23857,0.00013099,0,0,0,0
8.6,0.005029,0.25043,2.5e-05,0,0,0,0
9.1,0.005339,0.26414,0.00016999,0,0,0,0
9.6,0.005732,0.278,2.4e-05,0,0,0,0
10.1,0.006042,0.29186,0.00020898,0,0,0,0
10.6,0.006512,0.307,0.00014799,0,0,0,0
11.1,0.007159,0.32214,0.00018798,0,0,0,0
11.6,0.00764,0.33686,4.0999e-05,0,0,0,0
12.1,0.008002,0.35114,0.00034694,0,0,0,0
12.6,0.008383,0.36471,0.00030695,0,0,0,0
13.1,0.008846,0.37843,0.00046789,0,0,0,0
13.6,0.009121,0.39285,0.00029496,0,0,0,0
14.1,0.009478,0.407,0.00026197,0,0,0,0
14.6,0.009918,0.42086,0.00014799,0,0,0,0
15.1,0.010088,0.43629,0.00053686,0,0,0,0
15.6,0.010263,0.45214,0.00041591,0,0,0,0
16.1,0.010683,0.46786,0.00030895,0,0,0,0
16.6,0.010951,0.48314,0.00043291,0,0,0,0
17.1,0.011035,0.498,0.00023797,0,0,0,0
17.6,0.011324,0.51286,0.00029196,0,0,0,0
18.1,0.0117,0.52785,0.00033894,0,0,0,0
18.6,0.011767,0.54229,0.00033894,0,0,0,0
19.1,0.011854,0.55715,0.00026197,0,0,0,0
19.6,0.012465,0.57257,0.00046289,0,0,0,0
20.1,0.012955,0.58843,0.00040592,0,0,0,0
20.6,0.01356,0.60471,0.00039992,0,0,0,0
21.1,0.013875,0.62114,0.00042591,0,0,0,0
21.6,0.014658,0.63629,0.00036893,0,0,0,0
22.1,0.014886,0.65157,0.00047289,0,0,0,0
22.6,0.015336,0.66714,0.00041291,0,0,0,0
23.1,0.016021,0.682,0.00047289,0,0,0,0
23.6,0.016669,0.69715,0.00055085,0,0,0,0
24.1,0.017038,0.71371,0.00066478,0,0,0,0
24.6,0.017632,0.73014,0.00057084,0,0,0,0
25.1,0.017968,0.74615,0.00073173,0,0,0,0
25.6,0.018414,0.76185,0.00071774,0,0,0,0
26.1,0.018824,0.77671,0.00078169,0,0,0,0
26.6,0.018915,0.79143,0.00051687,0,0,0,0
27.1,0.019254,0.80657,0.00071774,0,0,0,0
27.6,0.019596,0.82157,0.00057683,0,0,0,0
28.1,0.019861,0.83657,0.00072174,0,0,0,0
28.6,0.020053,0.85214,0.00075172,0,0,0,0
29.1,0.020398,0.86786,0.00067077,0,0,0,0
29.6,0.020821,0.88429,0.00074872,0,0,0,0
30.1,0.021181,0.90057,0.0006348,0,0,0,0
30.6,0.021164,0.91529,0.00070175,0,0,0,0
31.1,0.021855,0.92986,0.00071774,0,0,0,0
31.6,0.022641,0.94514,0.00068177,0,0,0,0
32.1,0.023104,0.96,0.0008996,0,0,0,0
32.6,0.023628,0.97486,0.00082866,0,0,0,0
33.1,0.024407,0.991,0.0008956,0,0,0,0
33.6,0.024974,1.0069,0.00085863,0,0,0,0
34.1,0.025471,1.0221,0.00092257,0,0,0,0
34.6,0.025928,1.0371,0.0010634,0,0,0,0
35.1,0.026149,1.0517,0.00080568,0,0,0,0
35.6,0.026656,1.0661,0.00092657,0,0,0,0
36.1,0.027076,1.0809,0.00097952,0,0,0,0
36.6,0.027566,1.095,0.0010934,0,0,0,0
37.1,0.027946,1.1091,0.0011443,0,0,0,0
37.6,0.02853,1.1247,0.0010674,0,0,0,0
38.1,0.028946,1.1404,0.0012143,0,0,0,0
38.6,0.028879,1.1556,0.0010974,0,0,0,0
39.1,0.029664,1.1701,0.0010165,0,0,0,0
39.6,0.030275,1.184,0.0011743,0,0,0,0
40.1,0.03047,1.1979,0.0011773,0,0,0,0
40.6,0.031085,1.2121,0.0011543,0,0,0,0
41.1,0.031679,1.2257,0.0012452,0,0,0,0
41.6,0.032236,1.2391,0.0013022,0,0,0,0
42.1,0.033146,1.2534,0.0011513,0,0,0,0
42.6,0.033663,1.2674,0.0012582,0,0,0,0
43.1,0.03468,1.2809,0.001416,0,0,0,0
43.6,0.035231,1.2939,0.001439,0,0,0,0
44.1,0.036423,1.306,0.0015468,0,0,0,0
44.6,0.037248,1.3176,0.0014659,0,0,0,0
45.1,0.038125,1.3289,0.0019721,0,0,0,0
45.6,0.039072,1.3384,0.0023373,0,0,0,0
46.1,0.040535,1.3463,0.0026724,0,0,0,0
46.6,0.042127,1.3537,0.0031441,0,0,0,0
47.1,0.043846,1.3607,0.0035188,0,0,0,0
47.6,0.045561,1.3679,0.0039542,0,0,0,0
48.1,0.047401,1.3751,0.004241,0,0,0,0
48.6,0.049539,1.382,0.0044023,0,0,0,0
49.1,0.05146,1.3886,0.0046253,0,0,0,0
49.6,0.053756,1.3954,0.0048333,0,0,0,0
50.1,0.055942,1.402,0.0052074,0,0,0,0
50.6,0.058007,1.4083,0.0049696,0,0,0,0
51.1,0.060115,1.4153,0.0051975,0,0,0,0
51.6,0.062076,1.4221,0.0055545,0,0,0,0
52.1,0.06408,1.4286,0.005658,0,0,0,0
52.6,0.065889,1.4344,0.005992,0,0,0,0
53.1,0.067746,1.44,0.0059711,0,0,0,0
53.6,0.069848,1.4456,0.0063349,0,0,0,0
54.1,0.07198,1.4514,0.0066091,0,0,0,0
54.6,0.074262,1.457,0.0068227,0,0,0,0
55.1,0.076542,1.4623,0.0073589,0,0,0,0
55.6,0.078822,1.468,0.0076626,0,0,0,0
56.1,0.081481,1.4734,0.0079057,0,0,0,0
56.6,0.084089,1.4786,0.0081656,0,0,0,0
57.1,0.086443,1.4837,0.0086078,0,0,0,0
57.6,0.088783,1.4887,0.0090073,0,0,0,0
58.1,0.090475,1.4936,0.0091906,0,0,0,0
58.6,0.092979,1.4984,0.0091074,0,0,0,0
59.1,0.095198,1.5033,0.009254,0,0,0,0
59.6,0.097344,1.508,0.0094433,0,0,0,0
60.1,0.099616,1.513,0.0094334,0,0,0,0
60.6,0.1021,1.5177,0.0095126,0,0,0,0
61.1,0.1044,1.5226,0.0095265,0,0,0,0
61.6,0.10705,1.5274,0.0097553,0,0,0,0
62.1,0.10971,1.532,0.0098285,0,0,0,0
62.6,0.11216,1.5363,0.010034,0,0,0,0
63.1,0.11482,1.5407,0.010258,0,0,0,0
63.6,0.11699,1.545,0.01046,0,0,0,0
64.1,0.11951,1.5493,0.01068,0,0,0,0
64.6,0.1219,1.5537,0.010959,0,0,0,0
65.1,0.12422,1.558,0.011284,0,0,0,0
65.6,0.12639,1.562,0.011523,0,0,0,0
66.1,0.12862,1.5663,0.011988,0,0,0,0
66.6,0.13111,1.5707,0.012531,0,0,0,0
67.1,0.13353,1.575,0.012604,0,0,0,0
67.6,0.13621,1.579,0.012959,0,0,0,0
68.1,0.13899,1.5827,0.013036,0,0,0,0
68.6,0.14163,1.5866,0.013128,0,0,0,0
69.1,0.1443,1.5907,0.013188,0,0,0,0
69.6,0.1465,1.595,0.01331,0,0,0,0
70.1,0.14883,1.599,0.013241,0,0,0,0
70.6,0.15103,1.603,0.013349,0,0,0,0
71.1,0.15361,1.6067,0.013539,0,0,0,0
71.6,0.15596,1.6106,0.013588,0,0,0,0
72.1,0.15806,1.6144,0.013734,0,0,0,0
72.6,0.1608,1.6183,0.013664,0,0,0,0
73.1,0.16342,1.622,0.013896,0,0,0,0
73.6,0.1662,1.626,0.014078,0,0,0,0
74.1,0.16917,1.6297,0.01432,0,0,0,0
74.6,0.17162,1.6333,0.014707,0,0,0,0
75.1,0.17452,1.637,0.014988,0,0,0,0
75.6,0.177,1.6407,0.015058,0,0,0,0
76.1,0.17926,1.6443,0.015497,0,0,0,0
76.6,0.18141,1.6477,0.015782,0,0,0,0
77.1,0.18381,1.6513,0.016169,0,0,0,0
77.6,0.18628,1.6547,0.016456,0,0,0,0
78.1,0.18881,1.6583,0.016519,0,0,0,0
78.6,0.1915,1.662,0.016677,0,0,0,0
79.1,0.19421,1.6657,0.016789,0,0,0,0
79.6,0.19688,1.6693,0.016848,0,0,0,0
80.1,0.19976,1.6727,0.017034,0,0,0,0
80.6,0.2025,1.676,0.017152,0,0,0,0
81.1,0.20518,1.6793,0.017106,0,0,0,0
81.6,0.20762,1.6827,0.017172,0,0,0,0
82.1,0.20994,1.6863,0.017235,0,0,0,0
82.6,0.21252,1.69,0.01746,0,0,0,0
83.1,0.21501,1.6934,0.017635,0,0,0,0
83.6,0.21775,1.6966,0.017806,0,0,0,0
84.1,0.2202,1.6997,0.017915,0,0,0,0
84.6,0.22331,1.703,0.018172,0,0,0,0
85.1,0.22625,1.7063,0.018455,0,0,0,0
85.6,0.229,1.7097,0.018927,0,0,0,0
86.1,0.2317,1.713,0.019029,0,0,0,0
86.6,0.23437,1.7163,0.019292,0,0,0,0
87.1,0.2372,1.7194,0.019407,0,0,0,0
87.6,0.23953,1.7226,0.019793,0,0,0,0
88.1,0.24215,1.726,0.01991,0,0,0,0
88.6,0.24489,1.7294,0.02022,0,0,0,0
89.1,0.24747,1.7326,0.020167,0,0,0,0
89.6,0.25032,1.7357,0.020615,0,0,0,0
90.1,0.25319,1.739,0.02053,0,0,0,0
90.6,0.25626,1.7417,0.020552,0,0,0,0
91.1,0.25881,1.7446,0.020526,0,0,0,0
91.6,0.26161,1.7477,0.02078,0,0,0,0
92.1,0.26435,1.751,0.020918,0,0,0,0
92.6,0.26696,1.754,0.020993,0,0,0,0
93.1,0.26963,1.757,0.021128,0,0,0,0
93.6,0.27209,1.76,0.021272,0,0,0,0
94.1,0.27466,1.7633,0.02146,0,0,0,0
94.6,0.27736,1.7667,0.0217,0,0,0,0
95.1,0.27993,1.7697,0.022058,0,0,0,0
95.6,0.28289,1.7723,0.022264,0,0,0,0
96.1,0.2858,1.7753,0.022386,0,0,0,0
96.6,0.28863,1.7784,0.022692,0,0,0,0
97.1,0.2915,1.7816,0.022856,0,0,0,0
97.6,0.29458,1.7847,0.023009,0,0,0,0
98.1,0.29706,1.7877,0.023308,0,0,0,0
98.6,0.29978,1.7906,0.023304,0,0,0,0
99.1,0.30254,1.7934,0.02356,0,0,0,0
99.6,0.30489,1.7963,0.023627,0,0,0,0
100.1,0.30745,1.799,0.023806,0,0,0,0
100.6,0.3106,1.802,0.023842,0,0,0,0
101.1,0.31335,1.8047,0.023941,0,0,0,0
101.6,0.31655,1.8076,0.023925,0,0,0,0
102.1,0.31953,1.8104,0.024337,0,0,0,0
102.6,0.32228,1.8133,0.024311,0,0,0,0
103.1,0.32517,1.816,0.024649,0,0,0,0
103.6,0.32793,1.8187,0.024731,0,0,0,0
104.1,0.33055,1.8213,0.024917,0,0,0,0
104.6,0.33322,1.824,0.02516,0,0,0,0
105.1,0.33592,1.827,0.025349,0,0,0,0
105.6,0.33875,1.83,0.025402,0,0,0,0
106.1,0.34117,1.833,0.025664,0,0,0,0
106.6,0.34403,1.8357,0.025929,0,0,0,0
107.1,0.34672,1.8383,0.026017,0,0,0,0
107.6,0.34984,1.841,0.026194,0,0,0,0
108.1,0.35297,1.8437,0.026469,0,0,0,0
108.6,0.3559,1.8463,0.026652,0,0,0,0
109.1,0.35844,1.8487,0.026553,0,0,0,0
109.6,0.36139,1.8513,0.026838,0,0,0,0
110.1,0.36346,1.854,0.027063,0,0,0,0
110.6,0.36619,1.857,0.027151,0,0,0,0
111.1,0.36891,1.8597,0.027204,0,0,0,0
111.6,0.37143,1.8623,0.027341,0,0,0,0
112.1,0.37439,1.8647,0.027321,0,0,0,0
112.6,0.37752,1.8673,0.027756,0,0,0,0
113.1,0.38056,1.8697,0.027647,0,0,0,0
113.6,0.38362,1.8723,0.028072,0,0,0,0
114.1,0.38634,1.875,0.028366,0,0,0,0
114.6,0.38914,1.8777,0.028366,0,0,0,0
115.1,0.39163,1.8803,0.028562,0,0,0,0
115.6,0.39446,1.8827,0.02879,0,0,0,0
116.1,0.3971,1.8853,0.028856,0,0,0,0
116.6,0.39958,1.888,0.029116,0,0,0,0
117.1,0.40261,1.8907,0.029051,0,0,0,0
117.6,0.40538,1.893,0.02941,0,0,0,0
118.1,0.40772,1.8953,0.029573,0,0,0,0
118.6,0.41247,1.898,0.02967,0,0,0,0
119.1,0.41458,1.9007,0.029638,0,0,0,0
119.6,0.41724,1.903,0.030127,0,0,0,0
120.1,0.41985,1.9053,0.030062,0,0,0,0
120.6,0.42263,1.9077,0.030258,0,0,0,0
121.1,0.42491,1.91,0.030486,0,0,0,0
121.6,0.42775,1.9123,0.030583,0,0,0,0
122.1,0.43056,1.9147,0.030778,0,0,0,0
122.6,0.4331,1.9173,0.030908,0,0,0,0
123.1,0.43592,1.92,0.031006,0,0,0,0
123.6,0.43917,1.9227,0.031104,0,0,0,0
124.1,0.44202,1.925,0.031559,0,0,0,0
124.6,0.44539,1.927,0.031429,0,0,0,0
125.1,0.44812,1.9293,0.031754,0,0,0,0
125.6,0.45074,1.9317,0.032047,0,0,0,0
126.1,0.45353,1.934,0.032275,0,0,0,0
126.6,0.45592,1.9363,0.032437,0,0,0,0
127.1,0.45872,1.9387,0.03247,0,0,0,0
127.6,0.46136,1.941,0.032892,0,0,0,0
128.1,0.46422,1.9433,0.032827,0,0,0,0
128.6,0.46709,1.9457,0.033055,0,0,0,0
129.1,0.47026,1.9483,0.033022,0,0,0,0
129.6,0.47324,1.9507,0.033152,0,0,0,0
130.1,0.47631,1.953,0.033541,0,0,0,0
130.6,0.47925,1.955,0.033574,0,0,0,0
131.1,0.48169,1.957,0.033801,0,0,0,0
131.6,0.48475,1.9593,0.033931,0,0,0,0
132.1,0.48706,1.9617,0.034158,0,0,0,0
132.6,0.48983,1.964,0.034288,0,0,0,0
133.1,0.49253,1.9663,0.034353,0,0,0,0
133.6,0.4955,1.9687,0.03458,0,0,0,0
134.1,0.49856,1.971,0.034742,0,0,0,0
134.6,0.50141,1.9733,0.034969,0,0,0,0
135.1,0.50447,1.9757,0.035163,0,0,0,0
135.6,0.50757,1.9777,0.035358,0,0,0,0
136.1,0.51041,1.9796,0.035423,0,0,0,0
136.6,0.51306,1.982,0.035585,0,0,0,0
137.1,0.5155,1.9844,0.035877,0,0,0,0
137.6,0.51832,1.9866,0.036039,0,0,0,0
138.1,0.52095,1.9887,0.036103,0,0,0,0
138.6,0.52371,1.991,0.036362,0,0,0,0
139.1,0.52627,1.993,0.036426,0,0,0,0
139.6,0.52928,1.995,0.036492,0,0,0,0
140.1,0.53258,1.9973,0.036815,0,0,0,0
140.6,0.53552,1.9997,0.036977,0,0,0,0
141.1,0.53859,2.002,0.037107,0,0,0,0
141.6,0.54139,2.004,0.037203,0,0,0,0
142.1,0.54413,2.0063,0.037236,0,0,0,0
142.6,0.54654,2.0087,0.037527,0,0,0,0
143.1,0.54954,2.011,0.037624,0,0,0,0
143.6,0.5522,2.013,0.037883,0,0,0,0
144.1,0.55506,2.015,0.037851,0,0,0,0
144.6,0.55787,2.0167,0.038141,0,0,0,0
145.1,0.56071,2.0186,0.038303,0,0,0,0
145.6,0.56401,2.0207,0.038529,0,0,0,0
146.1,0.56688,2.023,0.038691,0,0,0,0
146.6,0.56991,2.0253,0.038787,0,0,0,0
147.1,0.57259,2.0274,0.03882,0,0,0,0
147.6,0.57538,2.0293,0.039369,0,0,0,0
148.1,0.57809,2.031,0.039336,0,0,0,0
148.6,0.58063,2.0333,0.039433,0,0,0,0
149.1,0.58344,2.0354,0.039692,0,0,0,0
149.6,0.58601,2.0376,0.039982,0,0,0,0
150.1,0.58869,2.0397,0.040111,0,0,0,0
150.6,0.59207,2.042,0.040111,0,0,0,0
151.1,0.59503,2.044,0.040272,0,0,0,0
151.6,0.59808,2.046,0.040433,0,0,0,0
152.1,0.60087,2.048,0.040498,0,0,0,0
152.6,0.60383,2.05,0.040916,0,0,0,0
153.1,0.60649,2.052,0.040981,0,0,0,0
153.6,0.60925,2.054,0.041175,0,0,0,0
154.1,0.61194,2.056,0.041175,0,0,0,0
154.6,0.61446,2.058,0.041497,0,0,0,0
155.1,0.61722,2.06,0.041497,0,0,0,0
155.6,0.62021,2.062,0.041593,0,0,0,0
156.1,0.62323,2.064,0.041787,0,0,0,0
156.6,0.62638,2.066,0.042012,0,0,0,0
157.1,0.62952,2.068,0.042431,0,0,0,0
157.6,0.63269,2.0697,0.042463,0,0,0,0
158.1,0.6353,2.0713,0.042624,0,0,0,0
158.6,0.63791,2.0733,0.04288,0,0,0,0
159.1,0.64051,2.0757,0.043106,0,0,0,0
159.6,0.64322,2.0777,0.043428,0,0,0,0
160.1,0.64609,2.0793,0.043491,0,0,0,0
160.6,0.64836,2.081,0.043652,0,0,0,0
161.1,0.65177,2.083,0.04378,0,0,0,0
161.6,0.65475,2.085,0.043942,0,0,0,0
162.1,0.65789,2.087,0.043974,0,0,0,0
162.6,0.66105,2.0887,0.044199,0,0,0,0
163.1,0.66422,2.0906,0.044327,0,0,0,0
163.6,0.66667,2.0927,0.044424,0,0,0,0
164.1,0.66945,2.0947,0.044488,0,0,0,0
164.6,0.67209,2.0966,0.044648,0,0,0,0
165.1,0.67496,2.0984,0.044809,0,0,0,0
165.6,0.67748,2.1003,0.04513,0,0,0,0
166.1,0.68038,2.102,0.045258,0,0,0,0
166.6,0.68319,2.104,0.045322,0,0,0,0
167.1,0.68647,2.1057,0.045804,0,0,0,0
167.6,0.68956,2.1073,0.045707,0,0,0,0
168.1,0.69256,2.109,0.046156,0,0,0,0
168.6,0.69537,2.111,0.046284,0,0,0,0
169.1,0.69837,2.113,0.046477,0,0,0,0
169.6,0.70098,2.115,0.046669,0,0,0,0
170.1,0.70382,2.117,0.046989,0,0,0,0
170.6,0.70647,2.1187,0.046893,0,0,0,0
171.1,0.70901,2.1203,0.047181,0,0,0,0
171.6,0.71205,2.122,0.047086,0,0,0,0
172.1,0.71491,2.124,0.047246,0,0,0,0
172.6,0.71799,2.126,0.047342,0,0,0,0
173.1,0.72112,2.1277,0.047438,0,0,0,0
173.6,0.72426,2.1293,0.047694,0,0,0,0
174.1,0.72704,2.131,0.047982,0,0,0,0
174.6,0.72975,2.1327,0.048078,0,0,0,0
175.1,0.73236,2.1346,0.048078,0,0,0,0
175.6,0.73507,2.1364,0.04843,0,0,0,0
176.1,0.73795,2.1383,0.04859,0,0,0,0
176.6,0.74057,2.14,0.048686,0,0,0,0
177.1,0.74344,2.142,0.049005,0,0,0,0
177.6,0.74625,2.1437,0.049134,0,0,0,0
178.1,0.7497,2.1453,0.049389,0,0,0,0
178.6,0.75281,2.147,0.049485,0,0,0,0
179.1,0.75618,2.1487,0.049805,0,0,0,0
179.6,0.75861,2.1503,0.049869,0,0,0,0
180.1,0.76149,2.152,0.050028,0,0,0,0
180.6,0.76415,2.154,0.050156,0,0,0,0
181.1,0.7668,2.1557,0.050316,0,0,0,0
181.6,0.76947,2.1573,0.050539,0,0,0,0
182.1,0.77225,2.1587,0.050443,0,0,0,0
182.6,0.77517,2.1603,0.050794,0,0,0,0
183.1,0.778,2.162,0.050986,0,0,0,0
183.6,0.78101,2.1637,0.05105,0,0,0,0
184.1,0.78415,2.1653,0.051241,0,0,0,0
184.6,0.78691,2.167,0.051177,0,0,0,0
185.1,0.78973,2.169,0.051561,0,0,0,0
185.6,0.79256,2.171,0.051624,0,0,0,0
186.1,0.79545,2.1727,0.05191,0,0,0,0
186.6,0.79804,2.174,0.052198,0,0,0,0
187.1,0.80056,2.1753,0.052452,0,0,0,0
187.6,0.80359,2.177,0.052644,0,0,0,0
188.1,0.80643,2.1787,0.052771,0,0,0,0
188.6,0.80921,2.1803,0.052962,0,0,0,0
189.1,0.81244,2.182,0.053217,0,0,0,0
189.6,0.81568,2.1837,0.053312,0,0,0,0
190.1,0.81832,2.1853,0.053472,0,0,0,0
190.6,0.82131,2.187,0.053503,0,0,0,0
191.1,0.82396,2.1887,0.053693,0,0,0,0
191.6,0.82651,2.1903,0.053885,0,0,0,0
192.1,0.8293,2.192,0.054107,0,0,0,0
192.6,0.83192,2.1937,0.05414,0,0,0,0
193.1,0.83461,2.1953,0.054426,0,0,0,0
193.6,0.83747,2.1967,0.054426,0,0,0,0
194.1,0.84038,2.1983,0.054585,0,0,0,0
194.6,0.84353,2.1997,0.054775,0,0,0,0
195.1,0.84662,2.2013,0.054902,0,0,0,0
195.6,0.84974,2.2027,0.055061,0,0,0,0
196.1,0.85251,2.2043,0.055443,0,0,0,0
196.6,0.8552,2.2057,0.055474,0,0,0,0
197.1,0.85774,2.2073,0.055601,0,0,0,0
197.6,0.86039,2.2087,0.055856,0,0,0,0
198.1,0.86308,2.2103,0.056078,0,0,0,0
198.6,0.86585,2.2117,0.056205,0,0,0,0
199.1,0.86851,2.2133,0.056458,0,0,0,0
199.6,0.87145,2.215,0.05649,0,0,0,0
200.1,0.87438,2.2167,0.056585,0,0,0,0
200.6,0.87756,2.2183,0.056871,0,0,0,0
201.1,0.88084,2.2197,0.056934,0,0,0,0
201.6,0.88336,2.2213,0.057061,0,0,0,0
202.1,0.88619,2.2227,0.057347,0,0,0,0
202.6,0.8887,2.2243,0.057315,0,0,0,0
203.1,0.8915,2.2257,0.057505,0,0,0,0
203.6,0.89416,2.2273,0.05779,0,0,0,0
204.1,0.89671,2.2287,0.057822,0,0,0,0
204.6,0.89965,2.2303,0.058012,0,0,0,0
205.1,0.90258,2.2317,0.058297,0,0,0,0
205.6,0.9057,2.233,0.058425,0,0,0,0
206.1,0.90892,2.234,0.05855,0,0,0,0
206.6,0.91167,2.2353,0.058867,0,0,0,0
207.1,0.91468,2.2367,0.059088,0,0,0,0
207.6,0.9172,2.2383,0.059088,0,0,0,0
208.1,0.91996,2.24,0.059468,0,0,0,0
208.6,0.92237,2.2417,0.059595,0,0,0,0
209.1,0.92515,2.2433,0.05969,0,0,0,0
209.6,0.92773,2.245,0.059753,0,0,0,0
210.1,0.93086,2.2467,0.060069,0,0,0,0
210.6,0.93368,2.248,0.060069,0,0,0,0
211.1,0.93658,2.249,0.060322,0,0,0,0
211.6,0.93951,2.2503,0.060227,0,0,0,0
212.1,0.94285,2.2517,0.06048,0,0,0,0
212.6,0.94563,2.2533,0.06067,0,0,0,0
213.1,0.94831,2.2547,0.06067,0,0,0,0
213.6,0.95118,2.256,0.060891,0,0,0,0
214.1,0.95377,2.2573,0.061144,0,0,0,0
214.6,0.9565,2.2587,0.061365,0,0,0,0
215.1,0.95895,2.2603,0.061554,0,0,0,0
215.6,0.96183,2.2617,0.061712,0,0,0,0
216.1,0.96469,2.263,0.06187,0,0,0,0
216.6,0.96808,2.264,0.062186,0,0,0,0
217.1,0.97104,2.2653,0.062186,0,0,0,0
217.6,0.97395,2.267,0.062312,0,0,0,0
218.1,0.97673,2.2687,0.062626,0,0,0,0
218.6,0.97957,2.27,0.062816,0,0,0,0
219.1,0.98211,2.2713,0.062942,0,0,0,0
219.6,0.98485,2.2727,0.063006,0,0,0,0
220.1,0.9875,2.274,0.063446,0,0,0,0
220.6,0.99025,2.275,0.063541,0,0,0,0
221.1,0.99296,2.2763,0.063573,0,0,0,0
221.6,0.99597,2.2777,0.063668,0,0,0,0
222.1,0.99904,2.279,0.063729,0,0,0,0
222.6,1.0021,2.2803,0.063982,0,0,0,0
223.1,1.0051,2.282,0.064234,0,0,0,0
223.6,1.0077,2.2837,0.064392,0,0,0,0
224.1,1.0106,2.285,0.064675,0,0,0,0
224.6,1.013,2.286,0.064738,0,0,0,0
225.1,1.0157,2.2873,0.064863,0,0,0,0
225.6,1.0184,2.2887,0.065021,0,0,0,0
226.1,1.0212,2.29,0.065241,0,0,0,0
226.6,1.0241,2.2913,0.065461,0,0,0,0
227.1,1.0272,2.2927,0.065681,0,0,0,0
227.6,1.03,2.2943,0.065745,0,0,0,0
228.1,1.0332,2.2957,0.065995,0,0,0,0
228.6,1.0364,2.297,0.066216,0,0,0,0
229.1,1.0391,2.298,0.066498,0,0,0,0
229.6,1.0418,2.2993,0.066624,0,0,0,0
230.1,1.0444,2.3007,0.066718,0,0,0,0
230.6,1.0471,2.302,0.066938,0,0,0,0
231.1,1.0496,2.303,0.067158,0,0,0,0
231.6,1.0525,2.3043,0.067126,0,0,0,0
232.1,1.0554,2.3057,0.067251,0,0,0,0
232.6,1.0583,2.307,0.067534,0,0,0,0
233.1,1.0614,2.3083,0.067565,0,0,0,0
233.6,1.0644,2.3097,0.067817,0,0,0,0
234.1,1.0673,2.311,0.067911,0,0,0,0
234.6,1.0701,2.312,0.06813,0,0,0,0
235.1,1.0727,2.3133,0.068443,0,0,0,0
235.6,1.0754,2.3147,0.068569,0,0,0,0
236.1,1.078,2.3163,0.068976,0,0,0,0
236.6,1.081,2.3177,0.068851,0,0,0,0
237.1,1.0837,2.319,0.069196,0,0,0,0
237.6,1.0867,2.32,0.069572,0,0,0,0
238.1,1.0895,2.321,0.069541,0,0,0,0
238.6,1.0927,2.3223,0.069854,0,0,0,0
239.1,1.0957,2.3237,0.069979,0,0,0,0
239.6,1.0988,2.325,0.070198,0,0,0,0
240.1,1.1015,2.326,0.070511,0,0,0,0
240.6,1.1042,2.327,0.070354,0,0,0,0
241.1,1.1067,2.3283,0.070542,0,0,0,0
241.6,1.1095,2.3297,0.070855,0,0,0,0
242.1,1.112,2.331,0.070886,0,0,0,0
242.6,1.115,2.3323,0.070949,0,0,0,0
243.1,1.1177,2.3337,0.071356,0,0,0,0
243.6,1.1209,2.335,0.071292,0,0,0,0
244.1,1.1237,2.336,0.071731,0,0,0,0
244.6,1.1269,2.3373,0.071886,0,0,0,0
245.1,1.1297,2.3387,0.072074,0,0,0,0
245.6,1.1327,2.34,0.072355,0,0,0,0
246.1,1.1354,2.341,0.07248,0,0,0,0
246.6,1.1381,2.342,0.072636,0,0,0,0
247.1,1.1406,2.3433,0.073011,0,0,0,0
247.6,1.1431,2.3447,0.073105,0,0,0,0
248.1,1.146,2.346,0.073323,0,0,0,0
248.6,1.1489,2.347,0.073479,0,0,0,0
249.1,1.1521,2.348,0.073666,0,0,0,0
249.6,1.1549,2.349,0.073791,0,0,0,0
250.1,1.158,2.3503,0.074134,0,0,0,0
250.6,1.161,2.3517,0.074228,0,0,0,0
251.1,1.1638,2.353,0.074258,0,0,0,0
251.6,1.1664,2.354,0.074508,0,0,0,0
252.1,1.1691,2.355,0.074664,0,0,0,0
252.6,1.1716,2.356,0.07482,0,0,0,0
253.1,1.1745,2.3573,0.074913,0,0,0,0
253.6,1.1771,2.3587,0.075255,0,0,0,0
254.1,1.1802,2.36,0.075224,0,0,0,0
254.6,1.1831,2.361,0.075474,0,0,0,0
255.1,1.186,2.362,0.075816,0,0,0,0
255.6,1.1889,2.363,0.076003,0,0,0,0
256.1,1.1918,2.3643,0.076252,0,0,0,0
256.6,1.1946,2.3657,0.076314,0,0,0,0
257.1,1.1971,2.3667,0.0765,0,0,0,0
257.6,1.1999,2.3676,0.076717,0,0,0,0
258.1,1.2025,2.369,0.076873,0,0,0,0
258.6,1.2051,2.3707,0.077091,0,0,0,0
259.1,1.2078,2.372,0.077153,0,0,0,0
259.6,1.2106,2.3727,0.077371,0,0,0,0
260.1,1.2137,2.3733,0.077526,0,0,0,0
260.6,1.2167,2.3743,0.077713,0,0,0,0
261.1,1.2196,2.3757,0.077961,0,0,0,0
261.6,1.2226,2.377,0.077992,0,0,0,0
262.1,1.2254,2.378,0.078241,0,0,0,0
262.6,1.228,2.3793,0.078489,0,0,0,0
263.1,1.2307,2.3807,0.078612,0,0,0,0
263.6,1.2332,2.382,0.078893,0,0,0,0
264.1,1.236,2.383,0.079016,0,0,0,0
264.6,1.2388,2.3837,0.079171,0,0,0,0
265.1,1.2417,2.3843,0.079451,0,0,0,0
265.6,1.2446,2.385,0.079823,0,0,0,0
266.1,1.2477,2.3863,0.079946,0,0,0,0
266.6,1.2507,2.3877,0.080257,0,0,0,0
267.1,1.2536,2.389,0.080195,0,0,0,0
267.6,1.2564,2.39,0.080567,0,0,0,0
268.1,1.2588,2.391,0.08066,0,0,0,0
268.6,1.2616,2.392,0.080845,0,0,0,0
269.1,1.2643,2.393,0.080969,0,0,0,0
269.6,1.2668,2.3943,0.081217,0,0,0,0
270.1,1.2695,2.3957,0.081433,0,0,0,0
270.6,1.2725,2.397,0.081774,0,0,0,0
271.1,1.2752,2.398,0.081867,0,0,0,0
271.6,1.2786,2.399,0.082052,0,0,0,0
272.1,1.2816,2.4,0.082145,0,0,0,0
272.6,1.2843,2.401,0.082361,0,0,0,0
273.1,1.2871,2.402,0.082578,0,0,0,0
273.6,1.2898,2.403,0.082701,0,0,0,0
274.1,1.2926,2.404,0.08298,0,0,0,0
274.6,1.2952,2.405,0.083319,0,0,0,0
275.1,1.2979,2.406,0.083443,0,0,0,0
275.6,1.3006,2.407,0.083473,0,0,0,0
276.1,1.3036,2.408,0.083783,0,0,0,0
276.6,1.3064,2.409,0.083998,0,0,0,0
277.1,1.3095,2.4103,0.084214,0,0,0,0
277.6,1.3127,2.4117,0.084369,0,0,0,0
278.1,1.3153,2.4127,0.084802,0,0,0,0
278.6,1.3181,2.4136,0.084955,0,0,0,0
279.1,1.3208,2.4147,0.084986,0,0,0,0
279.6,1.3235,2.416,0.08514,0,0,0,0
280.1,1.3261,2.417,0.085387,0,0,0,0
280.6,1.3288,2.418,0.085664,0,0,0,0
281.1,1.3316,2.419,0.085849,0,0,0,0
281.6,1.3346,2.42,0.085972,0,0,0,0
282.1,1.3378,2.421,0.086311,0,0,0,0
282.6,1.3407,2.422,0.086466,0,0,0,0
283.1,1.3435,2.423,0.086619,0,0,0,0
283.6,1.3466,2.424,0.086958,0,0,0,0
284.1,1.3493,2.425,0.08702,0,0,0,0
284.6,1.3519,2.426,0.087142,0,0,0,0
285.1,1.3546,2.427,0.08745,0,0,0,0
285.6,1.3575,2.428,0.087819,0,0,0,0
286.1,1.3602,2.429,0.087666,0,0,0,0
286.6,1.3631,2.43,0.088065,0,0,0,0
287.1,1.3662,2.431,0.088189,0,0,0,0
287.6,1.3691,2.432,0.088526,0,0,0,0
288.1,1.3721,2.433,0.08868,0,0,0,0
288.6,1.375,2.434,0.088741,0,0,0,0
289.1,1.378,2.435,0.089171,0,0,0,0
289.6,1.3806,2.436,0.089202,0,0,0,0
290.1,1.3834,2.437,0.08954,0,0,0,0
290.6,1.3862,2.438,0.089694,0,0,0,0
291.1,1.3888,2.439,0.089908,0,0,0,0
291.6,1.3915,2.44,0.090092,0,0,0,0
292.1,1.3944,2.441,0.090277,0,0,0,0
292.6,1.3974,2.442,0.090368,0,0,0,0
293.1,1.4004,2.4427,0.090614,0,0,0,0
293.6,1.4035,2.4436,0.090859,0,0,0,0
294.1,1.4063,2.4444,0.091257,0,0,0,0
294.6,1.4092,2.4453,0.091319,0,0,0,0
295.1,1.412,2.4463,0.091472,0,0,0,0
295.6,1.4146,2.4477,0.091778,0,0,0,0
296.1,1.4172,2.449,0.091931,0,0,0,0
296.6,1.4202,2.4497,0.092176,0,0,0,0
297.1,1.423,2.4503,0.092421,0,0,0,0
297.6,1.4258,2.451,0.092636,0,0,0,0
298.1,1.4288,2.452,0.092941,0,0,0,0
298.6,1.4321,2.453,0.093155,0,0,0,0
299.1,1.4349,2.454,0.093431,0,0,0,0
299.6,1.438,2.4547,0.093492,0,0,0,0
300.1,1.4407,2.4553,0.093614,0,0,0,0
300.6,1.4434,2.456,0.093797,0,0,0,0
301.1,1.4462,2.4573,0.093981,0,0,0,0
301.6,1.4487,2.4584,0.094256,0,0,0,0
302.1,1.4516,2.4593,0.094378,0,0,0,0
302.6,1.4545,2.46,0.094623,0,0,0,0
303.1,1.4571,2.4613,0.095081,0,0,0,0
303.6,1.4602,2.4624,0.095141,0,0,0,0
304.1,1.4634,2.4633,0.095325,0,0,0,0
304.6,1.4662,2.464,0.09563,0,0,0,0
305.1,1.4693,2.465,0.095722,0,0,0,0
305.6,1.472,2.466,0.095905,0,0,0,0
306.1,1.4748,2.467,0.096241,0,0,0,0
306.6,1.4776,2.468,0.096484,0,0,0,0
307.1,1.4804,2.469,0.096637,0,0,0,0
307.6,1.4833,2.47,0.097002,0,0,0,0
308.1,1.4857,2.4707,0.097063,0,0,0,0
308.6,1.4886,2.4713,0.097307,0,0,0,0
309.1,1.4916,2.472,0.09749,0,0,0,0
309.6,1.4948,2.473,0.09752,0,0,0,0
310.1,1.4979,2.474,0.097885,0,0,0,0
310.6,1.5008,2.475,0.098159,0,0,0,0
311.1,1.5036,2.476,0.098372,0,0,0,0
311.6,1.5064,2.477,0.098555,0,0,0,0
312.1,1.5092,2.478,0.098737,0,0,0,0
312.6,1.5118,2.4787,0.09895,0,0,0,0
313.1,1.5147,2.4793,0.099254,0,0,0,0
313.6,1.5175,2.48,0.099437,0,0,0,0
314.1,1.5206,2.481,0.09965,0,0,0,0
314.6,1.5235,2.482,0.09974,0,0,0,0
315.1,1.5264,2.483,0.10017,0,0,0,0
315.6,1.5295,2.484,0.10038,0,0,0,0
316.1,1.5323,2.485,0.10053,0,0,0,0
316.6,1.5351,2.4857,0.10068,0,0,0,0
317.1,1.5378,2.4863,0.10108,0,0,0,0
317.6,1.5407,2.487,0.10126,0,0,0,0
318.1,1.5434,2.488,0.10138,0,0,0,0
318.6,1.5463,2.489,0.10171,0,0,0,0
319.1,1.5502,2.49,0.10196,0,0,0,0
319.6,1.5526,2.491,0.10214,0,0,0,0
320.1,1.5545,2.492,0.10223,0,0,0,0
320.6,1.5584,2.4927,0.10253,0,0,0,0
321.1,1.5617,2.4933,0.10277,0,0,0,0
321.6,1.5639,2.494,0.10302,0,0,0,0
322.1,1.567,2.495,0.10335,0,0,0,0
322.6,1.5701,2.496,0.10344,0,0,0,0
323.1,1.5725,2.4967,0.10374,0,0,0,0
323.6,1.575,2.4973,0.10393,0,0,0,0
324.1,1.5779,2.498,0.10432,0,0,0,0
324.6,1.5812,2.499,0.10444,0,0,0,0
325.1,1.5839,2.4997,0.10465,0,0,0,0
325.6,1.5871,2.5003,0.1051,0,0,0,0
326.1,1.5901,2.501,0.1052,0,0,0,0
326.6,1.593,2.502,0.10547,0,0,0,0
327.1,1.5958,2.503,0.10571,0,0,0,0
327.6,1.5986,2.504,0.10583,0,0,0,0
328.1,1.6015,2.505,0.10601,0,0,0,0
328.6,1.6041,2.5057,0.10637,0,0,0,0
329.1,1.6069,2.5063,0.10655,0,0,0,0
329.6,1.6102,2.507,0.10674,0,0,0,0
330.1,1.6127,2.508,0.10695,0,0,0,0
330.6,1.6163,2.509,0.10716,0,0,0,0
331.1,1.6194,2.5097,0.1074,0,0,0,0
331.6,1.6221,2.5103,0.10776,0,0,0,0
332.1,1.6246,2.511,0.10791,0,0,0,0
332.6,1.6279,2.5117,0.10827,0,0,0,0
333.1,1.6306,2.5123,0.10836,0,0,0,0
333.6,1.6333,2.513,0.10879,0,0,0,0
334.1,1.6361,2.514,0.10897,0,0,0,0
334.6,1.6389,2.515,0.10909,0,0,0,0
335.1,1.6419,2.5157,0.10954,0,0,0,0
335.6,1.645,2.5163,0.10978,0,0,0,0
336.1,1.648,2.517,0.11002,0,0,0,0
336.6,1.6512,2.518,0.11035,0,0,0,0
337.1,1.6536,2.519,0.11041,0,0,0,0
337.6,1.6571,2.5197,0.11059,0,0,0,0
338.1,1.66,2.5203,0.11071,0,0,0,0
338.6,1.6625,2.521,0.11101,0,0,0,0
339.1,1.6653,2.522,0.11116,0,0,0,0
339.6,1.6678,2.523,0.11155,0,0,0,0
340.1,1.6705,2.5237,0.11173,0,0,0,0
340.6,1.6735,2.5243,0.11212,0,0,0,0
341.1,1.6764,2.525,0.1123,0,0,0,0
341.6,1.6795,2.5257,0.11242,0,0,0,0
342.1,1.6824,2.5263,0.1129,0,0,0,0
342.6,1.6854,2.527,0.11311,0,0,0,0
343.1,1.6885,2.5277,0.11335,0,0,0,0
343.6,1.6913,2.5283,0.11356,0,0,0,0
344.1,1.694,2.529,0.11407,0,0,0,0
344.6,1.6968,2.53,0.11419,0,0,0,0
345.1,1.6994,2.531,0.11452,0,0,0,0
345.6,1.7024,2.5317,0.11458,0,0,0,0
346.1,1.7054,2.5323,0.11506,0,0,0,0
346.6,1.7084,2.533,0.11515,0,0,0,0
347.1,1.7114,2.534,0.11536,0,0,0,0
347.6,1.7142,2.5347,0.11572,0,0,0,0
348.1,1.7174,2.5353,0.11599,0,0,0,0
348.6,1.7204,2.536,0.11608,0,0,0,0
349.1,1.723,2.5367,0.11626,0,0,0,0
349.6,1.7257,2.5373,0.11673,0,0,0,0
350.1,1.7286,2.538,0.11673,0,0,0,0
350.6,1.7313,2.5387,0.11709,0,0,0,0
351.1,1.7346,2.5393,0.11736,0,0,0,0
351.6,1.7374,2.54,0.11781,0,0,0,0
352.1,1.7405,2.541,0.11805,0,0,0,0
352.6,1.7434,2.542,0.11844,0,0,0,0
353.1,1.7463,2.5427,0.11858,0,0,0,0
353.6,1.7497,2.543,0.11882,0,0,0,0
354.1,1.7526,2.5433,0.11912,0,0,0,0
354.6,1.7552,2.544,0.11927,0,0,0,0
355.1,1.7579,2.545,0.11966,0,0,0,0
355.6,1.7608,2.546,0.12005,0,0,0,0
356.1,1.7639,2.547,0.12025,0,0,0,0
356.6,1.7667,2.5477,0.12046,0,0,0,0
357.1,1.77,2.5483,0.12079,0,0,0,0
357.6,1.7729,2.549,0.12118,0,0,0,0
358.1,1.776,2.5497,0.12138,0,0,0,0
358.6,1.7792,2.5503,0.12153,0,0,0,0
359.1,1.7822,2.5507,0.12183,0,0,0,0
359.6,1.785,2.551,0.12195,0,0,0,0
360.1,1.7875,2.5516,0.12239,0,0,0,0
360.6,1.7905,2.5524,0.1226,0,0,0,0
361.1,1.7933,2.5533,0.12308,0,0,0,0
361.6,1.7962,2.554,0.12314,0,0,0,0
362.1,1.7992,2.5547,0.1234,0,0,0,0
362.6,1.8021,2.5553,0.12373,0,0,0,0
363.1,1.8057,2.556,0.12412,0,0,0,0
363.6,1.8082,2.5567,0.12426,0,0,0,0
364.1,1.8113,2.5573,0.12447,0,0,0,0
364.6,1.8148,2.5577,0.12483,0,0,0,0
365.1,1.8174,2.5583,0.12503,0,0,0,0
365.6,1.8203,2.559,0.12542,0,0,0,0
366.1,1.8233,2.56,0.1256,0,0,0,0
366.6,1.8262,2.5607,0.12583,0,0,0,0
367.1,1.8291,2.5613,0.1261,0,0,0,0
367.59,1.8319,2.5617,0.12637,0,0,0,0
368.1,1.835,2.5623,0.12678,0,0,0,0
368.6,1.8381,2.563,0.12711,0,0,0,0
369.1,1.841,2.5637,0.12723,0,0,0,0
369.6,1.8441,2.564,0.12752,0,0,0,0
370.1,1.8469,2.5643,0.12779,0,0,0,0
370.6,1.8504,2.565,0.12796,0,0,0,0
371.1,1.8532,2.566,0.12844,0,0,0,0
371.6,1.8555,2.567,0.12864,0,0,0,0
372.09,1.8584,2.5677,0.12888,0,0,0,0
372.6,1.8615,2.5683,0.12917,0,0,0,0
373.1,1.8645,2.5687,0.12953,0,0,0,0
373.6,1.8678,2.5693,0.12953,0,0,0,0
374.1,1.8709,2.57,0.12991,0,0,0,0
374.6,1.8736,2.5707,0.13029,0,0,0,0
375.09,1.8769,2.5713,0.13044,0,0,0,0
375.6,1.8796,2.5717,0.13077,0,0,0,0
376.1,1.8825,2.5723,0.13103,0,0,0,0
376.6,1.8854,2.573,0.1315,0,0,0,0
377.1,1.8883,2.5737,0.13174,0,0,0,0
377.6,1.8913,2.574,0.13197,0,0,0,0
378.1,1.8943,2.5743,0.13236,0,0,0,0
378.6,1.8975,2.575,0.13277,0,0,0,0
379.1,1.9003,2.5757,0.13312,0,0,0,0
379.6,1.9034,2.5763,0.1333,0,0,0,0
380.1,1.9065,2.577,0.13362,0,0,0,0
380.6,1.9093,2.5777,0.13394,0,0,0,0
381.1,1.9122,2.5783,0.13427,0,0,0,0
381.6,1.9149,2.579,0.13459,0,0,0,0
382.1,1.918,2.5797,0.13474,0,0,0,0
382.6,1.9208,2.5803,0.13503,0,0,0,0
383.1,1.9238,2.5807,0.13523,0,0,0,0
383.6,1.9271,2.5813,0.13559,0,0,0,0
384.1,1.93,2.5817,0.13585,0,0,0,0
384.6,1.933,2.5823,0.1362,0,0,0,0
385.1,1.9362,2.5827,0.13658,0,0,0,0
385.6,1.9394,2.5833,0.13685,0,0,0,0
386.1,1.9419,2.5837,0.13705,0,0,0,0
386.6,1.9449,2.5843,0.13752,0,0,0,0
387.1,1.9477,2.585,0.13781,0,0,0,0
387.59,1.9507,2.5857,0.13816,0,0,0,0
388.1,1.9533,2.5863,0.13851,0,0,0,0
388.6,1.9562,2.5867,0.13884,0,0,0,0
389.1,1.9594,2.5873,0.1391,0,0,0,0
389.6,1.9626,2.588,0.13954,0,0,0,0
390.1,1.9651,2.5887,0.13992,0,0,0,0
390.6,1.9689,2.5893,0.14009,0,0,0,0
391.1,1.9717,2.5897,0.14047,0,0,0,0
391.6,1.9747,2.5903,0.14091,0,0,0,0
392.1,1.9777,2.5907,0.14117,0,0,0,0
392.6,1.9806,2.5913,0.14149,0,0,0,0
393.1,1.9836,2.5917,0.14161,0,0,0,0
393.6,1.9861,2.592,0.14219,0,0,0,0
394.1,1.9896,2.5923,0.14242,0,0,0,0
394.6,1.9928,2.593,0.14283,0,0,0,0
395.1,1.9957,2.5937,0.14306,0,0,0,0
395.6,1.9987,2.594,0.1433,0,0,0,0
396.09,2.002,2.5943,0.14388,0,0,0,0
396.59,2.005,2.595,0.14417,0,0,0,0
397.1,2.008,2.5957,0.14455,0,0,0,0
397.6,2.0108,2.5963,0.14466,0,0,0,0
398.09,2.0138,2.5967,0.14513,0,0,0,0
398.6,2.0168,2.5973,0.14545,0,0,0,0
399.1,2.0197,2.5977,0.14574,0,0,0,0
399.6,2.0229,2.5983,0.14626,0,0,0,0
400.1,2.0262,2.5987,0.14661,0,0,0,0
400.6,2.0291,2.5993,0.14687,0,0,0,0
401.1,2.0322,2.5997,0.14739,0,0,0,0
401.59,2.0356,2.6003,0.14765,0,0,0,0
402.1,2.0386,2.6007,0.14797,0,0,0,0
402.59,2.0413,2.6013,0.14835,0,0,0,0
403.1,2.0445,2.6017,0.14866,0,0,0,0
403.59,2.0472,2.602,0.14904,0,0,0,0
404.1,2.0503,2.6023,0.14942,0,0,0,0
404.6,2.0537,2.6027,0.14959,0,0,0,0
405.1,2.0563,2.6033,0.15011,0,0,0,0
405.6,2.0599,2.6037,0.15031,0,0,0,0
406.1,2.063,2.6043,0.1506,0,0,0,0
406.6,2.066,2.6047,0.15121,0,0,0,0
407.1,2.0691,2.6053,0.15132,0,0,0,0
407.59,2.0721,2.6057,0.15184,0,0,0,0
408.1,2.0753,2.6063,0.15201,0,0,0,0
408.6,2.0781,2.6067,0.15239,0,0,0,0
409.1,2.0808,2.607,0.15288,0,0,0,0
409.6,2.0844,2.6073,0.15311,0,0,0,0
410.1,2.0873,2.608,0.15348,0,0,0,0
410.59,2.0905,2.6087,0.15394,0,0,0,0
411.1,2.0935,2.609,0.15446,0,0,0,0
411.6,2.0966,2.6093,0.15469,0,0,0,0
412.1,2.0998,2.6097,0.15492,0,0,0,0
412.6,2.1029,2.6103,0.15547,0,0,0,0
413.09,2.1059,2.6107,0.15587,0,0,0,0
413.59,2.1089,2.6113,0.15607,0,0,0,0
414.1,2.1116,2.6117,0.15656,0,0,0,0
414.6,2.1148,2.6123,0.15691,0,0,0,0
415.09,2.1179,2.6127,0.15728,0,0,0,0
415.6,2.121,2.613,0.15762,0,0,0,0
416.1,2.1241,2.6133,0.15802,0,0,0,0
416.6,2.1275,2.6137,0.15825,0,0,0,0
417.1,2.1307,2.6143,0.15865,0,0,0,0
417.59,2.1338,2.6147,0.15911,0,0,0,0
418.1,2.1363,2.615,0.15957,0,0,0,0
418.6,2.1394,2.615,0.15997,0,0,0,0
419.1,2.1423,2.6153,0.16037,0,0,0,0
419.6,2.1456,2.616,0.16071,0,0,0,0
420.1,2.1487,2.6167,0.16117,0,0,0,0
420.59,2.1517,2.617,0.16166,0,0,0,0
421.1,2.1549,2.6173,0.16209,0,0,0,0
421.59,2.158,2.6177,0.16243,0,0,0,0
422.1,2.1612,2.6183,0.16291,0,0,0,0
422.59,2.1644,2.6187,0.16331,0,0,0,0
423.1,2.1674,2.619,0.16363,0,0,0,0
423.6,2.1702,2.6193,0.16388,0,0,0,0
424.1,2.1733,2.6197,0.16445,0,0,0,0
424.59,2.1761,2.6203,0.1648,0,0,0,0
425.09,2.1793,2.6207,0.16514,0,0,0,0
425.6,2.1826,2.621,0.16542,0,0,0,0
426.1,2.1859,2.6213,0.16602,0,0,0,0
426.59,2.1891,2.6217,0.16633,0,0,0,0
427.1,2.1921,2.622,0.16696,0,0,0,0
427.59,2.1954,2.6223,0.16747,0,0,0,0
428.1,2.1984,2.6227,0.16775,0,0,0,0
428.59,2.2015,2.623,0.16841,0,0,0,0
429.1,2.2045,2.6233,0.16883,0,0,0,0
429.6,2.2072,2.6237,0.16934,0,0,0,0
430.1,2.2104,2.6243,0.1696,0,0,0,0
430.59,2.2136,2.6247,0.17002,0,0,0,0
431.1,2.2168,2.625,0.17062,0,0,0,0
431.59,2.2199,2.625,0.17096,0,0,0,0
432.1,2.2229,2.6253,0.17141,0,0,0,0
432.59,2.2259,2.626,0.17183,0,0,0,0
433.09,2.2291,2.6267,0.17226,0,0,0,0
433.59,2.2321,2.627,0.17277,0,0,0,0
434.09,2.235,2.627,0.17299,0,0,0,0
434.6,2.2382,2.6273,0.17364,0,0,0,0
435.09,2.2412,2.6277,0.17412,0,0,0,0
435.59,2.2446,2.628,0.17454,0,0,0,0
436.09,2.2479,2.6283,0.17502,0,0,0,0
436.6,2.2509,2.6287,0.17556,0,0,0,0
437.09,2.2542,2.629,0.17581,0,0,0,0
437.59,2.2575,2.629,0.17654,0,0,0,0
438.09,2.2602,2.6293,0.17702,0,0,0,0
438.59,2.2636,2.6297,0.17736,0,0,0,0
439.09,2.2666,2.63,0.17792,0,0,0,0
439.6,2.2695,2.63,0.1784,0,0,0,0
440.09,2.2728,2.6303,0.17885,0,0,0,0
440.59,2.2759,2.6307,0.17913,0,0,0,0
441.09,2.279,2.6313,0.17974,0,0,0,0
441.59,2.2821,2.6317,0.18028,0,0,0,0
442.09,2.2856,2.632,0.18061,0,0,0,0
442.59,2.2888,2.6323,0.18109,0,0,0,0
443.09,2.2918,2.6327,0.18151,0,0,0,0
443.59,2.2951,2.633,0.18207,0,0,0,0
444.09,2.2981,2.633,0.1826,0,0,0,0
444.6,2.3012,2.633,0.18305,0,0,0,0
445.09,2.3042,2.633,0.18369,0,0,0,0
445.6,2.3072,2.6333,0.18417,0,0,0,0
446.09,2.3106,2.6337,0.18475,0,0,0,0
446.59,2.3137,2.6343,0.185,0,0,0,0
447.1,2.3169,2.6347,0.1857,0,0,0,0
447.6,2.3199,2.635,0.18587,0,0,0,0
448.09,2.3231,2.635,0.18654,0,0,0,0
448.59,2.3263,2.6353,0.18698,0,0,0,0
449.1,2.3295,2.6357,0.18735,0,0,0,0
449.59,2.3325,2.636,0.18793,0,0,0,0
450.09,2.3357,2.636,0.18843,0,0,0,0
450.59,2.3386,2.636,0.1889,0,0,0,0
451.09,2.3422,2.636,0.18949,0,0,0,0
451.59,2.3453,2.6363,0.19002,0,0,0,0
452.1,2.3485,2.6367,0.1906,0,0,0,0
452.59,2.3518,2.637,0.19107,0,0,0,0
453.09,2.355,2.637,0.19168,0,0,0,0
453.59,2.358,2.637,0.19218,0,0,0,0
454.09,2.3612,2.6373,0.19271,0,0,0,0
454.59,2.3645,2.6377,0.19332,0,0,0,0
455.09,2.3674,2.638,0.1939,0,0,0,0
455.59,2.3703,2.638,0.19448,0,0,0,0
456.09,2.3734,2.6383,0.19498,0,0,0,0
456.6,2.3767,2.6387,0.1955,0,0,0,0
457.09,2.3799,2.639,0.19591,0,0,0,0
457.59,2.3832,2.639,0.19647,0,0,0,0
458.09,2.3865,2.6393,0.19718,0,0,0,0
458.59,2.3897,2.6397,0.19749,0,0,0,0
459.09,2.3927,2.64,0.19823,0,0,0,0
459.59,2.3958,2.64,0.19878,0,0,0,0
460.09,2.399,2.64,0.19939,0,0,0,0
460.59,2.4018,2.64,0.19999,0,0,0,0
461.09,2.4054,2.64,0.20062,0,0,0,0
461.59,2.4083,2.64,0.20128,0,0,0,0
462.09,2.4118,2.6403,0.20194,0,0,0,0
462.59,2.415,2.6407,0.20233,0,0,0,0
463.09,2.4183,2.641,0.20326,0,0,0,0
463.59,2.4215,2.641,0.20369,0,0,0,0
464.09,2.4246,2.641,0.20419,0,0,0,0
464.59,2.4278,2.641,0.2049,0,0,0,0
465.09,2.4308,2.641,0.20558,0,0,0,0
465.6,2.4337,2.641,0.20605,0,0,0,0
466.09,2.437,2.641,0.20689,0,0,0,0
466.59,2.44,2.641,0.20749,0,0,0,0
467.09,2.4431,2.6413,0.20823,0,0,0,0
467.59,2.4467,2.6417,0.20883,0,0,0,0
468.09,2.4498,2.642,0.20951,0,0,0,0
468.59,2.4532,2.642,0.21027,0,0,0,0
469.09,2.4566,2.642,0.21087,0,0,0,0
469.59,2.4597,2.642,0.21157,0,0,0,0
470.09,2.4627,2.642,0.21231,0,0,0,0
470.59,2.466,2.642,0.21309,0,0,0,0
471.09,2.4694,2.642,0.21353,0,0,0,0
471.59,2.4723,2.642,0.21437,0,0,0,0
472.09,2.4755,2.6423,0.21504,0,0,0,0
472.59,2.4789,2.6427,0.21553,0,0,0,0
473.09,2.4823,2.643,0.21629,0,0,0,0
473.59,2.4856,2.643,0.21718,0,0,0,0
474.09,2.4887,2.643,0.21791,0,0,0,0
474.59,2.492,2.643,0.21858,0,0,0,0
475.09,2.495,2.643,0.21945,0,0,0,0
475.59,2.4982,2.643,0.22015,0,0,0,0
476.1,2.5015,2.643,0.2209,0,0,0,0
476.59,2.5045,2.643,0.22157,0,0,0,0
477.09,2.5079,2.643,0.22219,0,0,0,0
477.59,2.5114,2.643,0.22305,0,0,0,0
478.1,2.5147,2.643,0.2238,0,0,0,0
478.59,2.5179,2.6427,0.22466,0,0,0,0
479.09,2.5211,2.6423,0.22533,0,0,0,0
479.59,2.5245,2.642,0.22625,0,0,0,0
480.09,2.5277,2.642,0.2271,0,0,0,0
480.59,2.5308,2.642,0.22782,0,0,0,0
481.09,2.534,2.642,0.22868,0,0,0,0
481.59,2.5372,2.642,0.22948,0,0,0,0
482.09,2.5405,2.642,0.23044,0,0,0,0
482.59,2.5439,2.642,0.23114,0,0,0,0
483.09,2.5475,2.642,0.23202,0,0,0,0
483.59,2.5508,2.642,0.23295,0,0,0,0
484.09,2.554,2.642,0.2338,0,0,0,0
484.59,2.5573,2.642,0.2346,0,0,0,0
485.09,2.5606,2.642,0.23534,0,0,0,0
485.59,2.5638,2.642,0.23622,0,0,0,0
486.09,2.5668,2.642,0.23717,0,0,0,0
486.59,2.5702,2.6417,0.2381,0,0,0,0
487.09,2.5737,2.6413,0.239,0,0,0,0
487.59,2.5768,2.641,0.23977,0,0,0,0
488.09,2.5801,2.641,0.24069,0,0,0,0
488.59,2.5835,2.641,0.24174,0,0,0,0
489.09,2.587,2.641,0.24256,0,0,0,0
489.59,2.5905,2.6407,0.24361,0,0,0,0
490.09,2.5934,2.6403,0.24456,0,0,0,0
490.59,2.5966,2.64,0.24551,0,0,0,0
491.09,2.5999,2.6397,0.24635,0,0,0,0
491.59,2.603,2.6393,0.24729,0,0,0,0
492.09,2.6062,2.6387,0.24836,0,0,0,0
492.59,2.6098,2.6383,0.24915,0,0,0,0
493.09,2.613,2.638,0.25027,0,0,0,0
493.59,2.6165,2.638,0.25121,0,0,0,0
494.09,2.62,2.638,0.25241,0,0,0,0
494.59,2.6229,2.6377,0.25343,0,0,0,0
495.09,2.6264,2.6373,0.25455,0,0,0,0
495.59,2.6298,2.637,0.25543,0,0,0,0
496.09,2.6331,2.637,0.25652,0,0,0,0
496.59,2.6362,2.6367,0.25758,0,0,0,0
497.09,2.6397,2.6363,0.25865,0,0,0,0
497.59,2.6426,2.6357,0.25979,0,0,0,0
498.09,2.6462,2.6353,0.26087,0,0,0,0
498.59,2.6497,2.635,0.26196,0,0,0,0
499.09,2.6532,2.6347,0.26294,0,0,0,0
499.59,2.6566,2.6343,0.26407,0,0,0,0
500.09,2.6598,2.6337,0.26513,0,0,0,0
500.59,2.663,2.6333,0.26644,0,0,0,0
501.09,2.6662,2.6327,0.26744,0,0,0,0
501.59,2.6693,2.6323,0.26875,0,0,0,0
502.09,2.6728,2.6317,0.2698,0,0,0,0
502.59,2.6763,2.6313,0.27083,0,0,0,0
503.09,2.6799,2.6307,0.27206,0,0,0,0
503.59,2.6832,2.63,0.27311,0,0,0,0
504.09,2.6868,2.629,0.27423,0,0,0,0
504.59,2.6898,2.6283,0.27548,0,0,0,0
505.09,2.6931,2.6277,0.2766,0,0,0,0
505.59,2.6964,2.6273,0.27785,0,0,0,0
506.09,2.7,2.6267,0.27915,0,0,0,0
506.59,2.7031,2.626,0.28062,0,0,0,0
507.09,2.7064,2.6253,0.28178,0,0,0,0
507.59,2.7097,2.6247,0.2829,0,0,0,0
508.09,2.7133,2.6243,0.28419,0,0,0,0
508.59,2.7167,2.6237,0.28533,0,0,0,0
509.09,2.7204,2.623,0.28649,0,0,0,0
509.59,2.7236,2.622,0.28762,0,0,0,0
510.09,2.7271,2.621,0.28896,0,0,0,0
510.59,2.7304,2.6203,0.29011,0,0,0,0
511.09,2.7338,2.6197,0.29142,0,0,0,0
511.59,2.7372,2.619,0.29275,0,0,0,0
512.09,2.7404,2.618,0.29405,0,0,0,0
512.59,2.7437,2.617,0.29535,0,0,0,0
513.09,2.7473,2.616,0.29663,0,0,0,0
513.59,2.7508,2.615,0.29807,0,0,0,0
514.09,2.7543,2.614,0.29924,0,0,0,0
514.59,2.7573,2.6127,0.30064,0,0,0,0
515.09,2.7609,2.6113,0.30223,0,0,0,0
515.59,2.7644,2.6103,0.30334,0,0,0,0
516.09,2.7667,2.6097,0.30465,0,0,0,0
516.59,2.7707,2.6087,0.30609,0,0,0,0
517.09,2.7745,2.6073,0.3075,0,0,0,0
517.59,2.778,2.6057,0.30888,0,0,0,0
518.09,2.7813,2.6043,0.31018,0,0,0,0
518.59,2.7852,2.603,0.31151,0,0,0,0
519.09,2.7883,2.6017,0.31308,0,0,0,0
519.59,2.7917,2.6003,0.31446,0,0,0,0
520.09,2.7951,2.599,0.31593,0,0,0,0
520.59,2.7984,2.5977,0.3173,0,0,0,0
521.09,2.8018,2.5963,0.31886,0,0,0,0
521.59,2.8053,2.5947,0.3203,0,0,0,0
522.09,2.8085,2.593,0.32164,0,0,0,0
522.59,2.812,2.591,0.32332,0,0,0,0
523.09,2.8155,2.5893,0.32465,0,0,0,0
523.59,2.8191,2.588,0.32623,0,0,0,0
524.09,2.8227,2.5867,0.32766,0,0,0,0
524.59,2.8262,2.585,0.32913,0,0,0,0
525.09,2.8298,2.583,0.33068,0,0,0,0
525.59,2.8331,2.581,0.33207,0,0,0,0
526.09,2.8364,2.579,0.33366,0,0,0,0
526.59,2.8397,2.577,0.33515,0,0,0,0
527.09,2.8431,2.575,0.3365,0,0,0,0
527.59,2.8467,2.5733,0.33817,0,0,0,0
528.09,2.8501,2.5714,0.33947,0,0,0,0
528.59,2.8537,2.5693,0.34092,0,0,0,0
529.09,2.8573,2.567,0.34252,0,0,0,0
529.59,2.8608,2.565,0.34407,0,0,0,0
530.09,2.8643,2.563,0.34562,0,0,0,0
530.59,2.8679,2.5607,0.34719,0,0,0,0
531.09,2.8711,2.5583,0.34875,0,0,0,0
531.59,2.8747,2.5557,0.35015,0,0,0,0
532.09,2.8783,2.5533,0.35185,0,0,0,0
532.59,2.8818,2.5507,0.35331,0,0,0,0
533.09,2.8853,2.5483,0.35503,0,0,0,0
533.59,2.8887,2.5457,0.35645,0,0,0,0
534.09,2.8922,2.543,0.358,0,0,0,0
534.59,2.8962,2.5403,0.35962,0,0,0,0
535.09,2.8995,2.5377,0.36123,0,0,0,0
535.59,2.9029,2.535,0.36275,0,0,0,0
536.09,2.9065,2.532,0.36422,0,0,0,0
536.59,2.91,2.5293,0.36602,0,0,0,0
537.09,2.9138,2.5264,0.3676,0,0,0,0
537.59,2.917,2.5233,0.36895,0,0,0,0
538.09,2.9208,2.52,0.37104,0,0,0,0
538.59,2.9246,2.517,0.37257,0,0,0,0
539.09,2.9279,2.514,0.37412,0,0,0,0
539.59,2.9315,2.511,0.37573,0,0,0,0
540.09,2.935,2.5077,0.37723,0,0,0,0
540.59,2.9386,2.504,0.37912,0,0,0,0
541.09,2.9422,2.5003,0.38073,0,0,0,0
541.59,2.9458,2.4967,0.38249,0,0,0,0
542.09,2.9495,2.4933,0.38407,0,0,0,0
542.59,2.9529,2.49,0.38567,0,0,0,0
543.09,2.9569,2.4867,0.38741,0,0,0,0
543.59,2.9605,2.483,0.38911,0,0,0,0
544.09,2.9642,2.479,0.39082,0,0,0,0
544.59,2.9677,2.475,0.39241,0,0,0,0
545.09,2.9714,2.4707,0.39429,0,0,0,0
545.59,2.9753,2.4663,0.39599,0,0,0,0
546.09,2.9787,2.462,0.39771,0,0,0,0
546.59,2.9822,2.458,0.39942,0,0,0,0
547.09,2.986,2.454,0.40102,0,0,0,0
547.59,2.9898,2.4497,0.40268,0,0,0,0
548.09,2.9936,2.4453,0.40444,0,0,0,0
548.59,2.9976,2.4404,0.40641,0,0,0,0
549.09,3.0013,2.435,0.40786,0,0,0,0
549.59,3.005,2.4296,0.41005,0,0,0,0
550.09,3.0086,2.4247,0.41179,0,0,0,0
550.59,3.0122,2.4197,0.41339,0,0,0,0
551.09,3.0159,2.4146,0.41525,0,0,0,0
551.59,3.02,2.4097,0.41709,0,0,0,0
552.09,3.0236,2.4047,0.41884,0,0,0,0
552.59,3.0278,2.399,0.42056,0,0,0,0
553.09,3.0319,2.3927,0.42266,0,0,0,0
553.59,3.0354,2.386,0.42448,0,0,0,0
554.09,3.0391,2.3793,0.42642,0,0,0,0
554.59,3.043,2.3727,0.4285,0,0,0,0
555.09,3.047,2.3651,0.43064,0,0,0,0