File: lab_data/AA6014-T4_results/DATA/NT20_00_1.csv
Time[s],Displacement[mm],Force[kN],AxStrain_1,AxStrain_2,Thickness[mm],OuterWidth[mm],InnerWidth[mm]
0.68,0,-0.0047583,0,0,1.1133,20,10.002
1.18,-0.000257,0.0023651,3e-06,0,0,0,0
1.68,0.000391,0.011299,-5.1001e-05,0,0,0,0
2.18,0.000688,0.032282,3e-06,0,0,0,0
2.68,0.001253,0.057286,2.2e-05,0,0,0,0
3.18,0.001666,0.081286,0.00015799,0,0,0,0
3.68,0.001744,0.10142,0.00033994,0,0,0,0
4.18,0.001854,0.11672,0.00011299,0,0,0,0
4.68,0.00234,0.13057,0.00032495,0,0,0,0
5.18,0.002701,0.14786,0.00022098,0,0,0,0
5.68,0.002789,0.16614,0.00021098,0,0,0,0
6.18,0.003177,0.18486,8.5996e-05,0,0,0,0
6.68,0.003463,0.20257,0.00026696,0,0,0,0
7.18,0.003646,0.21843,0.00018798,0,0,0,0
7.68,0.003755,0.23085,0.00012399,0,0,0,0
8.18,0.004065,0.24186,0.00020598,0,0,0,0
8.68,0.004212,0.253,7.7997e-05,0,0,0,0
9.18,0.004504,0.265,0.00010699,0,0,0,0
9.68,0.004697,0.27815,9.6995e-05,0,0,0,0
10.18,0.005068,0.29214,0.00010799,0,0,0,0
10.68,0.005329,0.30686,-6.3002e-05,0,0,0,0
11.18,0.005731,0.32085,0.00020698,0,0,0,0
11.68,0.006164,0.33429,0.00018098,0,0,0,0
12.18,0.006497,0.34786,0.00022098,0,0,0,0
12.68,0.007078,0.36329,0.00029496,0,0,0,0
13.18,0.00738,0.37885,0.00022497,0,0,0,0
13.68,0.007605,0.393,0.00030895,0,0,0,0
14.18,0.008113,0.40686,0.00041291,0,0,0,0
14.68,0.008229,0.42143,0.00035894,0,0,0,0
15.18,0.008584,0.43657,0.00045989,0,0,0,0
15.68,0.008819,0.45143,0.00039992,0,0,0,0
16.18,0.008974,0.466,0.00030195,0,0,0,0
16.68,0.009017,0.48057,0.00048688,0,0,0,0
17.18,0.009363,0.49629,0.0004529,0,0,0,0
17.68,0.009578,0.51214,0.00037593,0,0,0,0
18.18,0.009796,0.527,0.00043291,0,0,0,0
18.68,0.010031,0.54186,0.0004569,0,0,0,0
19.18,0.010575,0.55714,0.00042991,0,0,0,0
19.68,0.010854,0.57286,0.00047988,0,0,0,0
20.18,0.01119,0.58814,0.0004569,0,0,0,0
20.68,0.011589,0.603,0.00029896,0,0,0,0
21.18,0.011827,0.61786,0.00040592,0,0,0,0
21.68,0.012546,0.63429,0.00039292,0,0,0,0
22.18,0.013056,0.65085,0.00040992,0,0,0,0
22.68,0.013429,0.66571,0.00054385,0,0,0,0
23.18,0.01407,0.68043,0.0004529,0,0,0,0
23.68,0.014718,0.69585,0.00065479,0,0,0,0
24.18,0.015114,0.71215,0.00054385,0,0,0,0
24.68,0.015494,0.72757,0.00065079,0,0,0,0
25.18,0.016,0.74229,0.00055085,0,0,0,0
25.68,0.016497,0.75715,0.00078169,0,0,0,0
26.18,0.016722,0.77371,0.00084864,0,0,0,0
26.68,0.016961,0.79014,0.00076171,0,0,0,0
27.18,0.017058,0.805,0.00080568,0,0,0,0
27.68,0.01737,0.81986,0.00079568,0,0,0,0
28.18,0.017726,0.83514,0.00080867,0,0,0,0
28.68,0.018005,0.85086,0.00073173,0,0,0,0
29.18,0.018438,0.86614,0.0007757,0,0,0,0
29.68,0.018545,0.881,0.00079169,0,0,0,0
30.18,0.018841,0.89586,0.00082266,0,0,0,0
30.68,0.019072,0.91114,0.00080568,0,0,0,0
31.18,0.019529,0.92715,0.00053386,0,0,0,0
31.68,0.019945,0.94257,0.00066778,0,0,0,0
32.18,0.020378,0.95815,0.00078869,0,0,0,0
32.68,0.020798,0.97314,0.00075472,0,0,0,0
33.18,0.02155,0.98886,0.00064479,0,0,0,0
33.68,0.022205,1.0041,0.00069776,0,0,0,0
34.18,0.022705,1.0187,0.00072174,0,0,0,0
34.68,0.02343,1.0331,0.00074472,0,0,0,0
35.18,0.023762,1.049,0.00084564,0,0,0,0
35.68,0.024199,1.0651,0.00082866,0,0,0,0
36.18,0.024733,1.0797,0.00091658,0,0,0,0
36.68,0.025038,1.0941,0.00088561,0,0,0,0
37.18,0.025579,1.1089,0.00081567,0,0,0,0
37.68,0.0258,1.1239,0.00096354,0,0,0,0
38.18,0.026099,1.1384,0.00091658,0,0,0,0
38.68,0.026589,1.1527,0.00099351,0,0,0,0
39.18,0.02715,1.1669,0.00097353,0,0,0,0
39.68,0.027287,1.1811,0.0010165,0,0,0,0
40.18,0.027966,1.1959,0.00094655,0,0,0,0
40.68,0.028221,1.2101,0.0010335,0,0,0,0
41.18,0.029053,1.2246,0.0010904,0,0,0,0
41.68,0.029288,1.2384,0.0010435,0,0,0,0
42.18,0.029903,1.2529,0.0010405,0,0,0,0
42.68,0.030537,1.2669,0.0010235,0,0,0,0
43.18,0.031309,1.28,0.0010934,0,0,0,0
43.68,0.032014,1.2929,0.0010265,0,0,0,0
44.18,0.032998,1.3067,0.0012652,0,0,0,0
44.68,0.033619,1.3201,0.0012312,0,0,0,0
45.18,0.034438,1.332,0.001389,0,0,0,0
45.68,0.035432,1.3436,0.0015568,0,0,0,0
46.18,0.036271,1.3551,0.0015768,0,0,0,0
46.68,0.037218,1.3666,0.0020529,0,0,0,0
47.18,0.038242,1.3771,0.0021497,0,0,0,0
47.68,0.03936,1.387,0.0023472,0,0,0,0
48.18,0.040606,1.3966,0.0025547,0,0,0,0
48.68,0.041804,1.4067,0.0027692,0,0,0,0
49.18,0.043462,1.4161,0.0029437,0,0,0,0
49.68,0.045118,1.4243,0.0031002,0,0,0,0
50.18,0.046635,1.4323,0.0034022,0,0,0,0
50.68,0.048616,1.4401,0.0036155,0,0,0,0
51.18,0.05062,1.4479,0.0037669,0,0,0,0
51.68,0.052507,1.4551,0.0038496,0,0,0,0
52.18,0.05435,1.462,0.0040677,0,0,0,0
52.68,0.056213,1.4686,0.0041046,0,0,0,0
53.18,0.05814,1.476,0.0045287,0,0,0,0
53.68,0.060252,1.4831,0.0046721,0,0,0,0
54.18,0.062031,1.4893,0.0049726,0,0,0,0
54.68,0.063965,1.4953,0.0052999,0,0,0,0
55.18,0.065831,1.5014,0.005474,0,0,0,0
55.68,0.067879,1.5076,0.0060049,0,0,0,0
56.18,0.070048,1.5134,0.0062822,0,0,0,0
56.68,0.072257,1.519,0.0065783,0,0,0,0
57.18,0.074651,1.5246,0.0067621,0,0,0,0
57.68,0.077085,1.5307,0.007339,0,0,0,0
58.18,0.079203,1.5364,0.0075623,0,0,0,0
58.68,0.081674,1.5416,0.0078114,0,0,0,0
59.18,0.083772,1.547,0.0079553,0,0,0,0
59.68,0.085961,1.5524,0.0080416,0,0,0,0
60.18,0.087999,1.5576,0.0081616,0,0,0,0
60.68,0.089906,1.5627,0.0081388,0,0,0,0
61.18,0.092239,1.5677,0.0081814,0,0,0,0
61.68,0.094435,1.5726,0.0083818,0,0,0,0
62.18,0.096741,1.5777,0.0085612,0,0,0,0
62.68,0.099125,1.583,0.0086981,0,0,0,0
63.18,0.10158,1.5877,0.0087704,0,0,0,0
63.68,0.10398,1.5923,0.0089508,0,0,0,0
64.18,0.1066,1.5967,0.0092204,0,0,0,0
64.68,0.10893,1.6016,0.0095096,0,0,0,0
65.18,0.11145,1.6064,0.0099018,0,0,0,0
65.68,0.11353,1.611,0.010343,0,0,0,0
66.18,0.11573,1.6153,0.010517,0,0,0,0
66.68,0.118,1.62,0.010779,0,0,0,0
67.18,0.12033,1.6247,0.011098,0,0,0,0
67.68,0.12269,1.629,0.011426,0,0,0,0
68.18,0.12484,1.6333,0.011781,0,0,0,0
68.68,0.12719,1.6377,0.011791,0,0,0,0
69.18,0.12984,1.6423,0.011915,0,0,0,0
69.68,0.13268,1.6464,0.01195,0,0,0,0
70.18,0.1352,1.6503,0.012196,0,0,0,0
70.68,0.1379,1.6543,0.012209,0,0,0,0
71.18,0.14011,1.6587,0.012173,0,0,0,0
71.68,0.14245,1.663,0.012275,0,0,0,0
72.18,0.14498,1.667,0.012269,0,0,0,0
72.68,0.14699,1.671,0.012488,0,0,0,0
73.18,0.14933,1.675,0.012498,0,0,0,0
73.68,0.15164,1.679,0.012594,0,0,0,0
74.18,0.15403,1.683,0.012893,0,0,0,0
74.68,0.1566,1.687,0.013293,0,0,0,0
75.18,0.1594,1.691,0.01342,0,0,0,0
75.68,0.16217,1.6953,0.013781,0,0,0,0
76.18,0.1648,1.6994,0.014042,0,0,0,0
76.68,0.16745,1.703,0.014369,0,0,0,0
77.18,0.16987,1.7066,0.014671,0,0,0,0
77.68,0.17247,1.7104,0.01513,0,0,0,0
78.18,0.17471,1.7143,0.015203,0,0,0,0
78.68,0.17705,1.718,0.015342,0,0,0,0
79.18,0.17935,1.7217,0.015497,0,0,0,0
79.68,0.182,1.7253,0.01561,0,0,0,0
80.18,0.18453,1.7293,0.015748,0,0,0,0
80.68,0.18721,1.7334,0.015768,0,0,0,0
81.18,0.18998,1.737,0.015659,0,0,0,0
81.68,0.19298,1.7403,0.015874,0,0,0,0
82.18,0.19562,1.7437,0.015782,0,0,0,0
82.68,0.19786,1.7476,0.015864,0,0,0,0
83.18,0.20048,1.7514,0.01603,0,0,0,0
83.68,0.20299,1.755,0.01634,0,0,0,0
84.18,0.20544,1.7583,0.016274,0,0,0,0
84.68,0.2079,1.762,0.016604,0,0,0,0
85.18,0.21038,1.7657,0.016885,0,0,0,0
85.68,0.2129,1.769,0.017176,0,0,0,0
86.18,0.21577,1.7723,0.017463,0,0,0,0
86.68,0.21856,1.7757,0.017934,0,0,0,0
87.18,0.22146,1.7793,0.018168,0,0,0,0
87.68,0.22432,1.783,0.018343,0,0,0,0
88.18,0.22692,1.7864,0.018517,0,0,0,0
88.68,0.22953,1.7896,0.018768,0,0,0,0
89.18,0.23219,1.793,0.01893,0,0,0,0
89.68,0.23465,1.7967,0.019042,0,0,0,0
90.18,0.23708,1.8,0.019078,0,0,0,0
90.68,0.23969,1.803,0.019058,0,0,0,0
91.18,0.24224,1.8063,0.019243,0,0,0,0
91.68,0.24512,1.81,0.019193,0,0,0,0
92.18,0.24795,1.8134,0.019354,0,0,0,0
92.68,0.25078,1.8163,0.019588,0,0,0,0
93.18,0.25358,1.8193,0.019756,0,0,0,0
93.68,0.2563,1.823,0.019789,0,0,0,0
94.18,0.25901,1.8264,0.01995,0,0,0,0
94.68,0.26167,1.8293,0.020078,0,0,0,0
95.18,0.26426,1.8323,0.020424,0,0,0,0
95.68,0.2668,1.8357,0.020565,0,0,0,0
96.18,0.26944,1.8393,0.020986,0,0,0,0
96.68,0.27196,1.8424,0.021338,0,0,0,0
97.18,0.27471,1.8453,0.021384,0,0,0,0
97.68,0.27735,1.848,0.021555,0,0,0,0
98.18,0.28042,1.851,0.022034,0,0,0,0
98.68,0.28325,1.8543,0.021923,0,0,0,0
99.18,0.28613,1.8577,0.022064,0,0,0,0
99.68,0.28885,1.861,0.022143,0,0,0,0
100.18,0.29161,1.864,0.022225,0,0,0,0
100.68,0.29425,1.8673,0.022415,0,0,0,0
101.18,0.29664,1.8704,0.02256,0,0,0,0
101.68,0.29935,1.8733,0.022596,0,0,0,0
102.18,0.30187,1.876,0.022884,0,0,0,0
102.68,0.30457,1.879,0.02277,0,0,0,0
103.18,0.30762,1.882,0.023101,0,0,0,0
103.68,0.31044,1.885,0.023239,0,0,0,0
104.18,0.31328,1.8883,0.0234,0,0,0,0
104.68,0.31617,1.8914,0.023567,0,0,0,0
105.18,0.31888,1.8943,0.023884,0,0,0,0
105.68,0.32147,1.897,0.024085,0,0,0,0
106.18,0.32393,1.8997,0.024147,0,0,0,0
106.68,0.32662,1.9026,0.024324,0,0,0,0
107.18,0.3292,1.9054,0.02475,0,0,0,0
107.68,0.33191,1.9086,0.0249,0,0,0,0
108.18,0.33472,1.9114,0.025032,0,0,0,0
108.68,0.3375,1.9143,0.025225,0,0,0,0
109.18,0.3403,1.917,0.0255,0,0,0,0
109.68,0.3433,1.92,0.025399,0,0,0,0
110.18,0.3462,1.923,0.025696,0,0,0,0
110.68,0.34895,1.926,0.025785,0,0,0,0
111.18,0.35169,1.9287,0.025903,0,0,0,0
111.68,0.35419,1.9313,0.026014,0,0,0,0
112.18,0.35692,1.934,0.026039,0,0,0,0
112.68,0.35937,1.9367,0.026151,0,0,0,0
113.18,0.36217,1.9396,0.026373,0,0,0,0
113.68,0.36486,1.9424,0.026667,0,0,0,0
114.18,0.36755,1.9453,0.026766,0,0,0,0
114.68,0.37049,1.948,0.026961,0,0,0,0
115.18,0.37375,1.9507,0.027093,0,0,0,0
115.68,0.37617,1.9533,0.027256,0,0,0,0
116.18,0.37901,1.956,0.027419,0,0,0,0
116.68,0.38169,1.9587,0.027779,0,0,0,0
117.18,0.3844,1.9613,0.027876,0,0,0,0
117.68,0.38696,1.964,0.028007,0,0,0,0
118.18,0.38967,1.9667,0.028105,0,0,0,0
118.68,0.39228,1.9696,0.028236,0,0,0,0
119.18,0.39503,1.9724,0.028529,0,0,0,0
119.68,0.39769,1.975,0.028562,0,0,0,0
120.18,0.40084,1.9773,0.028659,0,0,0,0
120.68,0.40383,1.98,0.028986,0,0,0,0
121.18,0.40663,1.9827,0.029051,0,0,0,0
121.68,0.40964,1.9853,0.029181,0,0,0,0
122.18,0.41221,1.9877,0.029409,0,0,0,0
122.68,0.4147,1.9903,0.029572,0,0,0,0
123.18,0.41737,1.993,0.029605,0,0,0,0
123.68,0.42007,1.9957,0.029768,0,0,0,0
124.18,0.42274,1.998,0.030127,0,0,0,0
124.68,0.42522,2.0003,0.030094,0,0,0,0
125.18,0.42797,2.003,0.030355,0,0,0,0
125.68,0.43099,2.0057,0.030485,0,0,0,0
126.18,0.43427,2.0083,0.030648,0,0,0,0
126.68,0.43721,2.011,0.030843,0,0,0,0
127.18,0.44002,2.0137,0.030973,0,0,0,0
127.68,0.44274,2.016,0.031201,0,0,0,0
128.18,0.44556,2.0183,0.031331,0,0,0,0
128.68,0.448,2.0207,0.031429,0,0,0,0
129.18,0.45091,2.023,0.031689,0,0,0,0
129.68,0.45335,2.0253,0.031754,0,0,0,0
130.18,0.45606,2.028,0.031982,0,0,0,0
130.68,0.45888,2.0307,0.032145,0,0,0,0
131.18,0.46184,2.0333,0.032177,0,0,0,0
131.68,0.465,2.0357,0.032632,0,0,0,0
132.18,0.46791,2.0383,0.032599,0,0,0,0
132.68,0.47099,2.0407,0.032859,0,0,0,0
133.18,0.47373,2.043,0.032859,0,0,0,0
133.68,0.47649,2.045,0.033054,0,0,0,0
134.18,0.47903,2.0473,0.033184,0,0,0,0
134.68,0.48164,2.0497,0.033443,0,0,0,0
135.18,0.48419,2.052,0.033574,0,0,0,0
135.68,0.48712,2.0543,0.033768,0,0,0,0
136.18,0.49,2.0567,0.033736,0,0,0,0
136.68,0.49299,2.0593,0.034093,0,0,0,0
137.18,0.49615,2.0617,0.034191,0,0,0,0
137.68,0.49886,2.064,0.03432,0,0,0,0
138.18,0.50236,2.0663,0.034483,0,0,0,0
138.68,0.50515,2.0687,0.034514,0,0,0,0
139.18,0.50743,2.071,0.034806,0,0,0,0
139.68,0.50991,2.073,0.035001,0,0,0,0
140.18,0.51285,2.0753,0.035131,0,0,0,0
140.68,0.51552,2.0777,0.03539,0,0,0,0
141.18,0.51839,2.0803,0.035487,0,0,0,0
141.68,0.52113,2.0827,0.035714,0,0,0,0
142.18,0.52399,2.085,0.035811,0,0,0,0
142.68,0.52706,2.087,0.036071,0,0,0,0
143.18,0.52997,2.0893,0.036168,0,0,0,0
143.68,0.53273,2.0917,0.036264,0,0,0,0
144.18,0.53553,2.094,0.036394,0,0,0,0
144.68,0.53839,2.096,0.036524,0,0,0,0
145.18,0.54085,2.098,0.036524,0,0,0,0
145.68,0.54359,2.1003,0.03675,0,0,0,0
146.18,0.54608,2.1027,0.036944,0,0,0,0
146.68,0.54907,2.1053,0.037171,0,0,0,0
147.18,0.55194,2.1074,0.037139,0,0,0,0
147.68,0.55493,2.1096,0.037462,0,0,0,0
148.18,0.55802,2.1117,0.037559,0,0,0,0
148.68,0.56099,2.114,0.037753,0,0,0,0
149.18,0.56383,2.116,0.038011,0,0,0,0
149.68,0.56667,2.118,0.038011,0,0,0,0
150.18,0.56927,2.12,0.03827,0,0,0,0
150.68,0.57207,2.122,0.038399,0,0,0,0
151.18,0.57444,2.1243,0.038496,0,0,0,0
151.68,0.57735,2.1267,0.038723,0,0,0,0
152.18,0.58014,2.129,0.038884,0,0,0,0
152.68,0.58298,2.131,0.039013,0,0,0,0
153.18,0.58605,2.133,0.03911,0,0,0,0
153.68,0.58886,2.1353,0.039175,0,0,0,0
154.18,0.592,2.1374,0.039497,0,0,0,0
154.68,0.59473,2.1396,0.039561,0,0,0,0
155.18,0.59771,2.1417,0.039658,0,0,0,0
155.68,0.60016,2.144,0.03982,0,0,0,0
156.18,0.60279,2.146,0.040142,0,0,0,0
156.68,0.60558,2.148,0.040207,0,0,0,0
157.18,0.60837,2.15,0.040335,0,0,0,0
157.68,0.61122,2.152,0.040529,0,0,0,0
158.18,0.61431,2.154,0.040594,0,0,0,0
158.68,0.61696,2.156,0.040819,0,0,0,0
159.18,0.62017,2.158,0.041367,0,0,0,0
159.68,0.62314,2.16,0.041335,0,0,0,0
160.18,0.62604,2.1623,0.041464,0,0,0,0
160.68,0.62891,2.1647,0.041657,0,0,0,0
161.18,0.6315,2.167,0.04169,0,0,0,0
161.68,0.63419,2.1687,0.041721,0,0,0,0
162.18,0.63695,2.1703,0.042108,0,0,0,0
162.68,0.63959,2.1723,0.042236,0,0,0,0
163.18,0.6425,2.1744,0.042269,0,0,0,0
163.68,0.64536,2.1763,0.042462,0,0,0,0
164.18,0.64823,2.178,0.042623,0,0,0,0
164.68,0.65115,2.1803,0.042719,0,0,0,0
165.18,0.65448,2.1824,0.043041,0,0,0,0
165.68,0.65758,2.1843,0.043234,0,0,0,0
166.18,0.66016,2.186,0.043298,0,0,0,0
166.68,0.66282,2.188,0.043459,0,0,0,0
167.18,0.66538,2.19,0.043587,0,0,0,0
167.68,0.66804,2.192,0.043909,0,0,0,0
168.18,0.67071,2.194,0.044134,0,0,0,0
168.68,0.67353,2.196,0.04423,0,0,0,0
169.18,0.6764,2.198,0.044423,0,0,0,0
169.68,0.67965,2.2,0.04468,0,0,0,0
170.18,0.68262,2.202,0.044744,0,0,0,0
170.68,0.68566,2.204,0.044969,0,0,0,0
171.18,0.68844,2.206,0.045033,0,0,0,0
171.68,0.69126,2.208,0.045033,0,0,0,0
172.18,0.69394,2.2097,0.045226,0,0,0,0
172.68,0.69671,2.2113,0.045386,0,0,0,0
173.18,0.69935,2.213,0.045706,0,0,0,0
173.68,0.70213,2.2153,0.045899,0,0,0,0
174.18,0.70476,2.2174,0.045996,0,0,0,0
174.68,0.70788,2.2193,0.046188,0,0,0,0
175.18,0.71098,2.221,0.046348,0,0,0,0
175.68,0.71393,2.2227,0.04638,0,0,0,0
176.18,0.71637,2.2243,0.046668,0,0,0,0
176.68,0.71943,2.226,0.046764,0,0,0,0
177.18,0.72233,2.228,0.047021,0,0,0,0
177.68,0.72517,2.23,0.047181,0,0,0,0
178.18,0.72745,2.232,0.047502,0,0,0,0
178.68,0.73049,2.234,0.047629,0,0,0,0
179.18,0.73332,2.236,0.047693,0,0,0,0
179.68,0.73621,2.2377,0.047885,0,0,0,0
180.18,0.73894,2.2393,0.048045,0,0,0,0
180.68,0.74186,2.241,0.048078,0,0,0,0
181.18,0.74514,2.243,0.048397,0,0,0,0
181.68,0.74801,2.2447,0.048429,0,0,0,0
182.18,0.75076,2.2463,0.048558,0,0,0,0
182.68,0.75343,2.248,0.048685,0,0,0,0
183.18,0.75614,2.25,0.048941,0,0,0,0
183.68,0.75884,2.252,0.049197,0,0,0,0
184.18,0.76163,2.2537,0.049261,0,0,0,0
184.68,0.76402,2.2553,0.049452,0,0,0,0
185.18,0.767,2.257,0.049612,0,0,0,0
185.68,0.76972,2.259,0.049675,0,0,0,0
186.18,0.77277,2.2607,0.049899,0,0,0,0
186.68,0.7758,2.2623,0.050027,0,0,0,0
187.18,0.77861,2.264,0.050315,0,0,0,0
187.68,0.7818,2.266,0.050442,0,0,0,0
188.18,0.78405,2.268,0.050506,0,0,0,0
188.68,0.78661,2.2697,0.050666,0,0,0,0
189.18,0.78951,2.271,0.050825,0,0,0,0
189.68,0.79214,2.2726,0.051081,0,0,0,0
190.18,0.79487,2.2744,0.051081,0,0,0,0
190.68,0.79763,2.2763,0.051304,0,0,0,0
191.18,0.80039,2.2777,0.0514,0,0,0,0
191.68,0.80336,2.2793,0.051718,0,0,0,0
192.18,0.80633,2.281,0.051782,0,0,0,0
192.68,0.8092,2.283,0.051909,0,0,0,0
193.18,0.81221,2.285,0.052069,0,0,0,0
193.68,0.8149,2.2867,0.052293,0,0,0,0
194.18,0.8176,2.2883,0.052515,0,0,0,0
194.68,0.82024,2.2897,0.052643,0,0,0,0
195.18,0.82291,2.2913,0.052833,0,0,0,0
195.68,0.82536,2.2927,0.052961,0,0,0,0
196.18,0.82811,2.2943,0.053183,0,0,0,0
196.68,0.8312,2.296,0.053407,0,0,0,0
197.18,0.8342,2.298,0.053565,0,0,0,0
197.68,0.83713,2.2997,0.05382,0,0,0,0
198.18,0.84,2.3013,0.053789,0,0,0,0
198.68,0.84284,2.3027,0.053916,0,0,0,0
199.18,0.8454,2.3043,0.054202,0,0,0,0
199.68,0.84828,2.3057,0.054329,0,0,0,0
200.18,0.85081,2.3073,0.054615,0,0,0,0
200.68,0.85341,2.309,0.054647,0,0,0,0
201.18,0.8562,2.3107,0.054743,0,0,0,0
201.68,0.85886,2.3123,0.054933,0,0,0,0
202.18,0.86176,2.314,0.054933,0,0,0,0
202.68,0.86479,2.3157,0.055251,0,0,0,0
203.18,0.86778,2.3173,0.055378,0,0,0,0
203.68,0.87084,2.3187,0.055632,0,0,0,0
204.18,0.87373,2.3203,0.055759,0,0,0,0
204.68,0.87682,2.322,0.056045,0,0,0,0
205.18,0.87929,2.3237,0.056362,0,0,0,0
205.68,0.88169,2.3253,0.056458,0,0,0,0
206.18,0.88447,2.3267,0.056648,0,0,0,0
206.68,0.88718,2.3283,0.056839,0,0,0,0
207.18,0.89007,2.3297,0.05706,0,0,0,0
207.68,0.89279,2.3313,0.056997,0,0,0,0
208.18,0.89595,2.3327,0.057346,0,0,0,0
208.68,0.89893,2.334,0.057377,0,0,0,0
209.18,0.90166,2.3353,0.057694,0,0,0,0
209.68,0.90473,2.337,0.057726,0,0,0,0
210.18,0.90743,2.3387,0.05779,0,0,0,0
210.68,0.91006,2.3403,0.058043,0,0,0,0
211.18,0.91277,2.342,0.05817,0,0,0,0
211.68,0.91543,2.3437,0.058455,0,0,0,0
212.18,0.91809,2.3453,0.058518,0,0,0,0
212.68,0.92106,2.3467,0.05874,0,0,0,0
213.18,0.92365,2.348,0.058866,0,0,0,0
213.68,0.92674,2.3493,0.059183,0,0,0,0
214.18,0.92986,2.351,0.059151,0,0,0,0
214.68,0.93282,2.3527,0.059562,0,0,0,0
215.18,0.93581,2.3543,0.059752,0,0,0,0
215.68,0.93838,2.3557,0.059973,0,0,0,0
216.18,0.94102,2.357,0.060068,0,0,0,0
216.68,0.94371,2.3583,0.060163,0,0,0,0
217.18,0.94642,2.36,0.060385,0,0,0,0
217.68,0.94928,2.3617,0.060701,0,0,0,0
218.18,0.95203,2.363,0.060732,0,0,0,0
218.68,0.95499,2.3643,0.060921,0,0,0,0
219.18,0.95787,2.3657,0.061111,0,0,0,0
219.68,0.9611,2.3673,0.061111,0,0,0,0
220.18,0.96388,2.3687,0.06149,0,0,0,0
220.68,0.96676,2.37,0.061458,0,0,0,0
221.18,0.96971,2.3713,0.061742,0,0,0,0
221.68,0.97234,2.3727,0.061774,0,0,0,0
222.18,0.97506,2.3743,0.062121,0,0,0,0
222.68,0.97758,2.3757,0.062152,0,0,0,0
223.18,0.98019,2.3773,0.062279,0,0,0,0
223.68,0.98325,2.3787,0.062594,0,0,0,0
224.18,0.98615,2.38,0.062783,0,0,0,0
224.68,0.98913,2.3813,0.062972,0,0,0,0
225.18,0.99212,2.3827,0.06313,0,0,0,0
225.68,0.9951,2.3843,0.06335,0,0,0,0
226.18,0.99789,2.3857,0.063571,0,0,0,0
226.68,1.0005,2.387,0.063823,0,0,0,0
227.18,1.0033,2.3883,0.063823,0,0,0,0
227.68,1.0058,2.39,0.064012,0,0,0,0
228.18,1.0084,2.3917,0.064138,0,0,0,0
228.68,1.011,2.3933,0.064296,0,0,0,0
229.18,1.014,2.3947,0.064453,0,0,0,0
229.68,1.0169,2.396,0.064642,0,0,0,0
230.18,1.02,2.3973,0.064798,0,0,0,0
230.68,1.0231,2.3987,0.064988,0,0,0,0
231.18,1.0262,2.4,0.065145,0,0,0,0
231.68,1.0289,2.401,0.065428,0,0,0,0
232.18,1.0314,2.4023,0.065365,0,0,0,0
232.68,1.0341,2.4037,0.065743,0,0,0,0
233.18,1.037,2.405,0.065899,0,0,0,0
233.68,1.0397,2.406,0.065994,0,0,0,0
234.18,1.0423,2.4073,0.066246,0,0,0,0
234.68,1.0451,2.409,0.066403,0,0,0,0
235.18,1.0479,2.4107,0.066591,0,0,0,0
235.68,1.0507,2.412,0.066842,0,0,0,0
236.18,1.0538,2.4133,0.066936,0,0,0,0
236.68,1.0565,2.4147,0.067,0,0,0,0
237.18,1.0596,2.4163,0.067282,0,0,0,0
237.68,1.0625,2.4177,0.067314,0,0,0,0
238.18,1.065,2.419,0.067627,0,0,0,0
238.68,1.0679,2.4203,0.067721,0,0,0,0
239.18,1.0704,2.4217,0.068034,0,0,0,0
239.68,1.0732,2.423,0.068129,0,0,0,0
240.18,1.0761,2.424,0.06838,0,0,0,0
240.68,1.0789,2.4253,0.068536,0,0,0,0
241.18,1.0819,2.4267,0.068787,0,0,0,0
241.68,1.0847,2.428,0.06885,0,0,0,0
242.18,1.0878,2.429,0.069101,0,0,0,0
242.68,1.0906,2.4303,0.069195,0,0,0,0
243.18,1.0935,2.4317,0.069351,0,0,0,0
243.68,1.096,2.433,0.069727,0,0,0,0
244.18,1.0989,2.4343,0.069883,0,0,0,0
244.68,1.1012,2.4357,0.069977,0,0,0,0
245.18,1.1038,2.437,0.070008,0,0,0,0
245.68,1.1066,2.438,0.070291,0,0,0,0
246.18,1.1098,2.4393,0.070353,0,0,0,0
246.68,1.1132,2.441,0.070791,0,0,0,0
247.18,1.116,2.4424,0.070978,0,0,0,0
247.68,1.119,2.4433,0.071042,0,0,0,0
248.18,1.1216,2.4443,0.071229,0,0,0,0
248.68,1.1244,2.4457,0.071604,0,0,0,0
249.18,1.1272,2.447,0.071697,0,0,0,0
249.68,1.1299,2.4483,0.071823,0,0,0,0
250.18,1.1324,2.4497,0.072042,0,0,0,0
250.68,1.135,2.451,0.072353,0,0,0,0
251.18,1.1378,2.452,0.072479,0,0,0,0
251.68,1.1412,2.453,0.072635,0,0,0,0
252.18,1.1443,2.4543,0.072822,0,0,0,0
252.68,1.1469,2.4557,0.07304,0,0,0,0
253.18,1.1498,2.457,0.073259,0,0,0,0
253.68,1.1526,2.458,0.073384,0,0,0,0
254.18,1.1552,2.4593,0.073509,0,0,0,0
254.68,1.1581,2.4607,0.073633,0,0,0,0
255.18,1.1605,2.462,0.073758,0,0,0,0
255.68,1.1632,2.4633,0.073914,0,0,0,0
256.18,1.1658,2.4647,0.074256,0,0,0,0
256.68,1.1687,2.466,0.074382,0,0,0,0
257.18,1.1716,2.467,0.0746,0,0,0,0
257.68,1.1746,2.468,0.074912,0,0,0,0
258.18,1.1776,2.469,0.074942,0,0,0,0
258.68,1.1802,2.47,0.075316,0,0,0,0
259.18,1.183,2.4713,0.075534,0,0,0,0
259.68,1.1857,2.4727,0.07569,0,0,0,0
260.18,1.1886,2.4743,0.075846,0,0,0,0
260.68,1.1913,2.4754,0.076188,0,0,0,0
261.18,1.1939,2.4763,0.076126,0,0,0,0
261.68,1.1965,2.4773,0.076498,0,0,0,0
262.18,1.1992,2.4787,0.076498,0,0,0,0
262.68,1.2021,2.48,0.076717,0,0,0,0
263.18,1.205,2.481,0.077027,0,0,0,0
263.68,1.208,2.4823,0.076996,0,0,0,0
264.18,1.211,2.4834,0.077276,0,0,0,0
264.68,1.2138,2.4846,0.077462,0,0,0,0
265.18,1.2167,2.4857,0.077649,0,0,0,0
265.68,1.2194,2.487,0.077742,0,0,0,0
266.18,1.222,2.488,0.077959,0,0,0,0
266.68,1.2248,2.489,0.078177,0,0,0,0
267.18,1.2274,2.49,0.078456,0,0,0,0
267.68,1.2301,2.491,0.078704,0,0,0,0
268.18,1.2331,2.492,0.079045,0,0,0,0
268.68,1.2358,2.4933,0.0792,0,0,0,0
269.18,1.239,2.4947,0.079387,0,0,0,0
269.68,1.2418,2.496,0.079604,0,0,0,0
270.18,1.2445,2.497,0.079696,0,0,0,0
270.68,1.2473,2.498,0.080038,0,0,0,0
271.18,1.25,2.499,0.080347,0,0,0,0
271.68,1.2524,2.5003,0.080255,0,0,0,0
272.18,1.2553,2.5017,0.080502,0,0,0,0
272.68,1.258,2.503,0.08075,0,0,0,0
273.18,1.2608,2.504,0.080782,0,0,0,0
273.68,1.2638,2.505,0.080936,0,0,0,0
274.18,1.267,2.506,0.08106,0,0,0,0
274.68,1.2697,2.507,0.081431,0,0,0,0
275.18,1.2727,2.508,0.081462,0,0,0,0
275.68,1.2755,2.509,0.081833,0,0,0,0
276.18,1.2781,2.51,0.081803,0,0,0,0
276.68,1.281,2.511,0.082143,0,0,0,0
277.18,1.2837,2.5123,0.082359,0,0,0,0
277.68,1.2863,2.5134,0.082576,0,0,0,0
278.18,1.2892,2.5146,0.08273,0,0,0,0
278.68,1.2918,2.5157,0.08307,0,0,0,0
279.18,1.2946,2.517,0.083225,0,0,0,0
279.68,1.2979,2.518,0.083595,0,0,0,0
280.18,1.3006,2.519,0.08378,0,0,0,0
280.68,1.3036,2.52,0.083966,0,0,0,0
281.18,1.3069,2.521,0.084089,0,0,0,0
281.68,1.3093,2.522,0.084398,0,0,0,0
282.18,1.312,2.523,0.084583,0,0,0,0
282.68,1.3147,2.524,0.084614,0,0,0,0
283.18,1.3172,2.5253,0.084923,0,0,0,0
283.68,1.3203,2.5264,0.085046,0,0,0,0
284.18,1.3231,2.5276,0.0852,0,0,0,0
284.68,1.326,2.5287,0.085354,0,0,0,0
285.18,1.3288,2.5297,0.085632,0,0,0,0
285.68,1.3319,2.5303,0.085816,0,0,0,0
286.18,1.335,2.5313,0.086063,0,0,0,0
286.68,1.3378,2.5327,0.086155,0,0,0,0
287.18,1.3405,2.534,0.086493,0,0,0,0
287.68,1.3432,2.535,0.086678,0,0,0,0
288.18,1.3459,2.536,0.086987,0,0,0,0
288.68,1.3491,2.537,0.08714,0,0,0,0
289.18,1.3514,2.538,0.087356,0,0,0,0
289.68,1.3542,2.539,0.087601,0,0,0,0
290.18,1.3573,2.54,0.087786,0,0,0,0
290.68,1.3603,2.541,0.08794,0,0,0,0
291.18,1.3634,2.542,0.088155,0,0,0,0
291.68,1.3662,2.543,0.08834,0,0,0,0
292.18,1.3691,2.544,0.088555,0,0,0,0
292.68,1.3721,2.545,0.08877,0,0,0,0
293.18,1.3741,2.546,0.088985,0,0,0,0
293.68,1.3777,2.547,0.0892,0,0,0,0
294.18,1.3803,2.548,0.089384,0,0,0,0
294.68,1.3829,2.549,0.089691,0,0,0,0
295.18,1.3859,2.55,0.089906,0,0,0,0
295.68,1.3884,2.5507,0.090029,0,0,0,0
296.18,1.3917,2.5516,0.090213,0,0,0,0
296.68,1.3946,2.5527,0.090458,0,0,0,0
297.18,1.3978,2.554,0.090703,0,0,0,0
297.68,1.4004,2.555,0.091009,0,0,0,0
298.18,1.4034,2.556,0.091132,0,0,0,0
298.68,1.4061,2.557,0.091347,0,0,0,0
299.18,1.4088,2.558,0.09153,0,0,0,0
299.68,1.4114,2.559,0.091806,0,0,0,0
300.18,1.4144,2.56,0.092082,0,0,0,0
300.68,1.4172,2.561,0.092327,0,0,0,0
301.18,1.4203,2.5617,0.092602,0,0,0,0
301.68,1.4232,2.5623,0.092786,0,0,0,0
302.18,1.4262,2.563,0.092878,0,0,0,0
302.68,1.429,2.564,0.09303,0,0,0,0
303.18,1.4318,2.565,0.093397,0,0,0,0
303.68,1.4347,2.566,0.093428,0,0,0,0
304.18,1.4373,2.567,0.093856,0,0,0,0
304.68,1.44,2.568,0.09407,0,0,0,0
305.18,1.4427,2.569,0.094284,0,0,0,0
305.68,1.4455,2.57,0.094376,0,0,0,0
306.18,1.4486,2.571,0.09462,0,0,0,0
306.68,1.4514,2.572,0.094926,0,0,0,0
307.18,1.4546,2.573,0.0952,0,0,0,0
307.68,1.4576,2.574,0.095169,0,0,0,0
308.18,1.4603,2.575,0.095414,0,0,0,0
308.68,1.4632,2.576,0.095688,0,0,0,0
309.18,1.4657,2.577,0.095963,0,0,0,0
309.68,1.4685,2.578,0.096177,0,0,0,0
310.18,1.4712,2.5787,0.09639,0,0,0,0
310.68,1.4742,2.5793,0.096726,0,0,0,0
311.18,1.4768,2.58,0.096969,0,0,0,0
311.68,1.4795,2.581,0.097152,0,0,0,0
312.18,1.483,2.582,0.097487,0,0,0,0
312.68,1.4855,2.583,0.097639,0,0,0,0
313.18,1.4886,2.584,0.097943,0,0,0,0
313.68,1.4915,2.585,0.097974,0,0,0,0
314.18,1.4945,2.586,0.098369,0,0,0,0
314.68,1.4974,2.5867,0.098674,0,0,0,0
315.18,1.4999,2.5873,0.098765,0,0,0,0
315.68,1.5025,2.588,0.098978,0,0,0,0
316.18,1.5053,2.589,0.099312,0,0,0,0
316.68,1.5078,2.59,0.099586,0,0,0,0
317.18,1.5112,2.591,0.099798,0,0,0,0
317.68,1.5139,2.592,0.09989,0,0,0,0
318.18,1.5168,2.5927,0.10001,0,0,0,0
318.68,1.5198,2.5936,0.10044,0,0,0,0
319.18,1.5228,2.5947,0.10056,0,0,0,0
319.68,1.5254,2.5957,0.10098,0,0,0,0
320.18,1.5284,2.5963,0.10114,0,0,0,0
320.68,1.5309,2.597,0.10147,0,0,0,0
321.18,1.5339,2.5977,0.10177,0,0,0,0
321.68,1.5363,2.5986,0.10217,0,0,0,0
322.18,1.5392,2.5994,0.10211,0,0,0,0
322.68,1.5425,2.6006,0.10244,0,0,0,0
323.18,1.5455,2.6014,0.10277,0,0,0,0
323.68,1.5485,2.6023,0.10298,0,0,0,0
324.18,1.5512,2.603,0.10314,0,0,0,0
324.68,1.5543,2.604,0.10347,0,0,0,0
325.18,1.5571,2.6047,0.10362,0,0,0,0
325.68,1.5599,2.6053,0.10395,0,0,0,0
326.18,1.5627,2.606,0.10416,0,0,0,0
326.68,1.5655,2.607,0.10429,0,0,0,0
327.18,1.5682,2.608,0.10459,0,0,0,0
327.68,1.5711,2.609,0.10486,0,0,0,0
328.18,1.5739,2.6097,0.10522,0,0,0,0
328.68,1.5768,2.6103,0.10522,0,0,0,0
329.18,1.5799,2.611,0.10559,0,0,0,0
329.68,1.5831,2.612,0.10592,0,0,0,0
330.18,1.5858,2.613,0.10619,0,0,0,0
330.68,1.5886,2.614,0.10646,0,0,0,0
331.18,1.5915,2.6147,0.10676,0,0,0,0
331.68,1.5941,2.6153,0.10691,0,0,0,0
332.18,1.5969,2.616,0.10715,0,0,0,0
332.68,1.5996,2.617,0.10743,0,0,0,0
333.18,1.6026,2.618,0.10746,0,0,0,0
333.68,1.6057,2.6187,0.10767,0,0,0,0
334.18,1.6087,2.6193,0.10812,0,0,0,0
334.68,1.6118,2.6197,0.10815,0,0,0,0
335.18,1.6148,2.6203,0.10866,0,0,0,0
335.68,1.6173,2.621,0.10881,0,0,0,0
336.18,1.6203,2.622,0.10887,0,0,0,0
336.68,1.6228,2.623,0.10917,0,0,0,0
337.18,1.6257,2.624,0.10959,0,0,0,0
337.68,1.6283,2.625,0.10993,0,0,0,0
338.18,1.6313,2.6257,0.11014,0,0,0,0
338.68,1.6342,2.6263,0.11035,0,0,0,0
339.18,1.6372,2.6267,0.11062,0,0,0,0
339.68,1.6403,2.6273,0.11101,0,0,0,0
340.18,1.6432,2.628,0.11119,0,0,0,0
340.68,1.6461,2.629,0.11134,0,0,0,0
341.18,1.649,2.63,0.1117,0,0,0,0
341.68,1.6516,2.631,0.11182,0,0,0,0
342.18,1.6543,2.6317,0.11206,0,0,0,0
342.68,1.657,2.6323,0.1123,0,0,0,0
343.18,1.6599,2.633,0.11266,0,0,0,0
343.68,1.663,2.6337,0.11284,0,0,0,0
344.18,1.6657,2.6343,0.11326,0,0,0,0
344.68,1.6688,2.635,0.11344,0,0,0,0
345.18,1.6718,2.636,0.11383,0,0,0,0
345.68,1.6749,2.6367,0.11389,0,0,0,0
346.18,1.6776,2.6373,0.11428,0,0,0,0
346.68,1.6806,2.638,0.11464,0,0,0,0
347.18,1.6833,2.639,0.11482,0,0,0,0
347.68,1.6861,2.6397,0.11512,0,0,0,0
348.18,1.689,2.6403,0.11547,0,0,0,0
348.68,1.6917,2.641,0.11577,0,0,0,0
349.18,1.6947,2.642,0.11589,0,0,0,0
349.68,1.6977,2.6427,0.11625,0,0,0,0
350.18,1.7008,2.6433,0.11652,0,0,0,0
350.68,1.7037,2.644,0.11676,0,0,0,0
351.18,1.7067,2.6447,0.11697,0,0,0,0
351.68,1.7094,2.6453,0.11736,0,0,0,0
352.18,1.7126,2.6457,0.11748,0,0,0,0
352.68,1.7155,2.6463,0.11783,0,0,0,0
353.18,1.7183,2.647,0.11816,0,0,0,0
353.68,1.7209,2.648,0.11837,0,0,0,0
354.18,1.7238,2.6487,0.11873,0,0,0,0
354.68,1.7269,2.6493,0.11909,0,0,0,0
355.18,1.7298,2.65,0.1193,0,0,0,0
355.68,1.7328,2.6507,0.11959,0,0,0,0
356.18,1.7362,2.6513,0.11986,0,0,0,0
356.68,1.739,2.652,0.1201,0,0,0,0
357.18,1.7421,2.6527,0.12037,0,0,0,0
357.68,1.7449,2.6533,0.12067,0,0,0,0
358.18,1.7475,2.654,0.12117,0,0,0,0
358.68,1.7505,2.655,0.12135,0,0,0,0
359.18,1.7534,2.6557,0.12165,0,0,0,0
359.68,1.7562,2.6563,0.12191,0,0,0,0
360.18,1.7594,2.6567,0.1223,0,0,0,0
360.68,1.7625,2.6573,0.12245,0,0,0,0
361.18,1.7657,2.6577,0.12292,0,0,0,0
361.68,1.7688,2.6583,0.12304,0,0,0,0
362.18,1.7715,2.659,0.12337,0,0,0,0
362.68,1.7745,2.66,0.12378,0,0,0,0
363.18,1.7773,2.6607,0.12414,0,0,0,0
363.68,1.7801,2.6613,0.12432,0,0,0,0
364.18,1.7831,2.6617,0.12479,0,0,0,0
364.68,1.7859,2.6623,0.12509,0,0,0,0
365.18,1.7889,2.663,0.12524,0,0,0,0
365.68,1.792,2.6637,0.12568,0,0,0,0
366.18,1.7949,2.6643,0.1258,0,0,0,0
366.68,1.798,2.665,0.12621,0,0,0,0
367.18,1.8013,2.6657,0.12645,0,0,0,0
367.68,1.8042,2.6663,0.12678,0,0,0,0
368.18,1.8073,2.667,0.1271,0,0,0,0
368.68,1.81,2.6677,0.1274,0,0,0,0
369.18,1.8127,2.6683,0.12784,0,0,0,0
369.68,1.8158,2.6687,0.12796,0,0,0,0
370.18,1.8186,2.6693,0.12837,0,0,0,0
370.68,1.8216,2.6697,0.12876,0,0,0,0
371.18,1.8248,2.6703,0.12896,0,0,0,0
371.68,1.8277,2.671,0.12929,0,0,0,0
372.18,1.8308,2.6717,0.12964,0,0,0,0
372.68,1.8337,2.6723,0.13002,0,0,0,0
373.18,1.8366,2.673,0.13041,0,0,0,0
373.68,1.8395,2.6737,0.1307,0,0,0,0
374.18,1.8425,2.6743,0.13109,0,0,0,0
374.68,1.8456,2.6747,0.13135,0,0,0,0
375.18,1.8484,2.6753,0.13161,0,0,0,0
375.68,1.8512,2.676,0.13194,0,0,0,0
376.18,1.8543,2.6767,0.13235,0,0,0,0
376.68,1.8571,2.6773,0.13253,0,0,0,0
377.18,1.8608,2.678,0.13282,0,0,0,0
377.68,1.8637,2.6787,0.13309,0,0,0,0
378.18,1.8666,2.679,0.1335,0,0,0,0
378.68,1.8695,2.6793,0.13382,0,0,0,0
379.18,1.8723,2.6797,0.13414,0,0,0,0
379.68,1.8751,2.68,0.13455,0,0,0,0
380.18,1.8783,2.6803,0.13491,0,0,0,0
380.68,1.8811,2.681,0.13523,0,0,0,0
381.18,1.884,2.6817,0.13576,0,0,0,0
381.68,1.8873,2.6823,0.13602,0,0,0,0
382.18,1.8903,2.6827,0.1364,0,0,0,0
382.68,1.8932,2.6833,0.13664,0,0,0,0
383.18,1.8964,2.684,0.13696,0,0,0,0
383.68,1.8993,2.6847,0.13731,0,0,0,0
384.18,1.9023,2.6853,0.13775,0,0,0,0
384.68,1.9053,2.686,0.13798,0,0,0,0
385.18,1.9081,2.6867,0.13827,0,0,0,0
385.68,1.9112,2.687,0.13871,0,0,0,0
386.18,1.914,2.6873,0.13912,0,0,0,0
386.68,1.9169,2.6877,0.1395,0,0,0,0
387.18,1.9202,2.6883,0.13971,0,0,0,0
387.68,1.9233,2.6887,0.14,0,0,0,0
388.18,1.9261,2.689,0.14038,0,0,0,0
388.68,1.9291,2.6893,0.14084,0,0,0,0
389.18,1.9321,2.69,0.14125,0,0,0,0
389.68,1.9351,2.6907,0.14169,0,0,0,0
390.18,1.9378,2.6913,0.14201,0,0,0,0
390.68,1.9405,2.692,0.1425,0,0,0,0
391.18,1.9438,2.6927,0.14271,0,0,0,0
391.68,1.9468,2.6933,0.14317,0,0,0,0
392.18,1.9499,2.6937,0.14364,0,0,0,0
392.68,1.9531,2.694,0.14408,0,0,0,0
393.18,1.9562,2.6943,0.14437,0,0,0,0
393.68,1.9593,2.695,0.14486,0,0,0,0
394.18,1.9622,2.6957,0.14509,0,0,0,0
394.68,1.9654,2.696,0.14541,0,0,0,0
395.18,1.9682,2.6963,0.14588,0,0,0,0
395.68,1.971,2.6967,0.14622,0,0,0,0
396.18,1.974,2.697,0.14677,0,0,0,0
396.68,1.9771,2.6973,0.14718,0,0,0,0
397.18,1.9802,2.6977,0.14759,0,0,0,0
397.68,1.9834,2.6983,0.14796,0,0,0,0
398.18,1.9866,2.6987,0.1484,0,0,0,0
398.68,1.9896,2.6993,0.1488,0,0,0,0
399.18,1.9928,2.6997,0.14915,0,0,0,0
399.68,1.9957,2.7003,0.14947,0,0,0,0
400.18,1.9988,2.7007,0.15019,0,0,0,0
400.68,2.0017,2.701,0.15039,0,0,0,0
401.18,2.0047,2.7013,0.15091,0,0,0,0
401.68,2.0076,2.7017,0.1512,0,0,0,0
402.18,2.0109,2.702,0.15175,0,0,0,0
402.68,2.0141,2.7023,0.15204,0,0,0,0
403.18,2.0174,2.7027,0.15261,0,0,0,0
403.68,2.0204,2.7033,0.15302,0,0,0,0
404.18,2.0234,2.7037,0.15342,0,0,0,0
404.68,2.0267,2.7043,0.15391,0,0,0,0
405.18,2.0296,2.7047,0.15451,0,0,0,0
405.68,2.0326,2.705,0.15486,0,0,0,0
406.18,2.0356,2.7053,0.15532,0,0,0,0
406.68,2.0385,2.7057,0.15581,0,0,0,0
407.18,2.0417,2.7063,0.15618,0,0,0,0
407.68,2.045,2.7067,0.15655,0,0,0,0
408.18,2.0479,2.7073,0.15701,0,0,0,0
408.68,2.0511,2.7077,0.15736,0,0,0,0
409.18,2.0543,2.708,0.1579,0,0,0,0
409.68,2.0575,2.7083,0.1583,0,0,0,0
410.18,2.0605,2.7087,0.15868,0,0,0,0
410.68,2.0634,2.709,0.15913,0,0,0,0
411.18,2.0663,2.709,0.15948,0,0,0,0
411.68,2.0695,2.7093,0.15993,0,0,0,0
412.18,2.0726,2.71,0.16036,0,0,0,0
412.68,2.0758,2.7107,0.16105,0,0,0,0
413.18,2.0789,2.711,0.16145,0,0,0,0
413.68,2.0822,2.711,0.16208,0,0,0,0
414.18,2.0853,2.7113,0.16253,0,0,0,0
414.68,2.0886,2.7117,0.16311,0,0,0,0
415.18,2.0916,2.712,0.16365,0,0,0,0
415.68,2.0946,2.7123,0.16402,0,0,0,0
416.18,2.0975,2.7127,0.16476,0,0,0,0
416.68,2.1007,2.713,0.16524,0,0,0,0
417.18,2.1037,2.713,0.16567,0,0,0,0
417.68,2.1068,2.7133,0.16607,0,0,0,0
418.18,2.1099,2.7137,0.16652,0,0,0,0
418.68,2.1133,2.7143,0.16695,0,0,0,0
419.18,2.1165,2.7147,0.16752,0,0,0,0
419.68,2.1197,2.715,0.16789,0,0,0,0
420.18,2.1227,2.715,0.1684,0,0,0,0
420.68,2.1257,2.715,0.16888,0,0,0,0
421.18,2.1288,2.7153,0.1695,0,0,0,0
421.68,2.1319,2.7157,0.16993,0,0,0,0
422.18,2.1349,2.716,0.17047,0,0,0,0
422.68,2.1379,2.7163,0.17106,0,0,0,0
423.18,2.1409,2.7167,0.17154,0,0,0,0
423.68,2.1442,2.717,0.17225,0,0,0,0
424.18,2.1474,2.7173,0.1727,0,0,0,0
424.68,2.1507,2.7177,0.17332,0,0,0,0
425.18,2.1537,2.718,0.17394,0,0,0,0
425.68,2.1569,2.718,0.17448,0,0,0,0
426.18,2.1599,2.718,0.17498,0,0,0,0
426.68,2.1629,2.7183,0.17552,0,0,0,0
427.18,2.1661,2.7187,0.17603,0,0,0,0
427.68,2.1692,2.719,0.17667,0,0,0,0
428.18,2.1723,2.719,0.17735,0,0,0,0
428.68,2.1755,2.719,0.17785,0,0,0,0
429.18,2.179,2.7193,0.17842,0,0,0,0
429.68,2.1822,2.7197,0.17901,0,0,0,0
430.18,2.1855,2.72,0.17957,0,0,0,0
430.68,2.1883,2.72,0.18018,0,0,0,0
431.18,2.1916,2.72,0.1808,0,0,0,0
431.68,2.1945,2.72,0.18145,0,0,0,0
432.18,2.1975,2.7203,0.182,0,0,0,0
432.68,2.2006,2.7207,0.18265,0,0,0,0
433.18,2.2037,2.721,0.18318,0,0,0,0
433.68,2.2068,2.721,0.18388,0,0,0,0
434.18,2.2101,2.721,0.18455,0,0,0,0
434.68,2.2135,2.7213,0.18511,0,0,0,0
435.18,2.2168,2.7217,0.18575,0,0,0,0
435.68,2.22,2.722,0.1865,0,0,0,0
436.18,2.2231,2.722,0.1872,0,0,0,0
436.68,2.2262,2.722,0.18786,0,0,0,0
437.18,2.2293,2.722,0.18842,0,0,0,0
437.68,2.2323,2.722,0.18917,0,0,0,0
438.18,2.2356,2.722,0.18992,0,0,0,0
438.68,2.2388,2.722,0.19061,0,0,0,0
439.18,2.2422,2.7223,0.19128,0,0,0,0
439.68,2.2455,2.7227,0.19195,0,0,0,0
440.18,2.2488,2.723,0.19272,0,0,0,0
440.68,2.2523,2.723,0.19344,0,0,0,0
441.18,2.2553,2.7227,0.19416,0,0,0,0
441.68,2.2584,2.7226,0.19485,0,0,0,0
442.18,2.2614,2.7227,0.19554,0,0,0,0
442.67,2.2645,2.723,0.19642,0,0,0,0
443.18,2.2678,2.723,0.19709,0,0,0,0
443.68,2.2708,2.723,0.1978,0,0,0,0
444.18,2.2745,2.723,0.19866,0,0,0,0
444.68,2.2777,2.723,0.19943,0,0,0,0
445.18,2.2812,2.723,0.20011,0,0,0,0
445.68,2.2845,2.723,0.20102,0,0,0,0
446.18,2.2875,2.723,0.20179,0,0,0,0
446.68,2.2907,2.723,0.20267,0,0,0,0
447.18,2.2938,2.723,0.20335,0,0,0,0
447.68,2.2969,2.723,0.20415,0,0,0,0
448.18,2.3001,2.723,0.20489,0,0,0,0
448.68,2.3034,2.723,0.20581,0,0,0,0
449.18,2.3066,2.723,0.20639,0,0,0,0
449.68,2.31,2.723,0.20748,0,0,0,0
450.18,2.3131,2.723,0.20813,0,0,0,0
450.68,2.3165,2.723,0.20914,0,0,0,0
451.18,2.3198,2.723,0.21004,0,0,0,0
451.68,2.3231,2.7227,0.21097,0,0,0,0
452.18,2.3261,2.7223,0.21173,0,0,0,0
452.68,2.3294,2.722,0.21249,0,0,0,0
453.18,2.3324,2.722,0.21335,0,0,0,0
453.68,2.3357,2.722,0.21428,0,0,0,0
454.18,2.339,2.722,0.21533,0,0,0,0
454.68,2.3424,2.722,0.21617,0,0,0,0
455.18,2.3455,2.7217,0.21688,0,0,0,0
455.68,2.3486,2.7213,0.21782,0,0,0,0
456.17,2.3523,2.721,0.2189,0,0,0,0
456.68,2.3552,2.721,0.21992,0,0,0,0
457.18,2.3584,2.721,0.22092,0,0,0,0
457.68,2.3615,2.721,0.22181,0,0,0,0
458.18,2.3647,2.7207,0.22283,0,0,0,0
458.67,2.368,2.7203,0.22369,0,0,0,0
459.18,2.3712,2.72,0.22476,0,0,0,0
459.68,2.3747,2.7197,0.22565,0,0,0,0
460.17,2.3781,2.7193,0.22669,0,0,0,0
460.68,2.3813,2.719,0.22763,0,0,0,0
461.18,2.3847,2.719,0.22862,0,0,0,0
461.68,2.3881,2.7187,0.22979,0,0,0,0
462.17,2.3913,2.7183,0.23099,0,0,0,0
462.68,2.3942,2.7177,0.23206,0,0,0,0
463.18,2.3976,2.7173,0.23317,0,0,0,0
463.68,2.4008,2.717,0.2345,0,0,0,0
464.18,2.4043,2.7167,0.23559,0,0,0,0
464.68,2.4077,2.7163,0.23676,0,0,0,0
465.18,2.4111,2.7157,0.23776,0,0,0,0
465.68,2.4144,2.7153,0.23879,0,0,0,0
466.18,2.4178,2.7147,0.24014,0,0,0,0
466.68,2.421,2.7143,0.24128,0,0,0,0
467.18,2.4243,2.7137,0.24259,0,0,0,0
467.68,2.4273,2.7133,0.24362,0,0,0,0
468.17,2.4304,2.713,0.24486,0,0,0,0
468.68,2.4338,2.7127,0.24607,0,0,0,0
469.17,2.4371,2.712,0.2474,0,0,0,0
469.67,2.4406,2.7113,0.24858,0,0,0,0
470.18,2.4442,2.7107,0.24979,0,0,0,0
470.68,2.4475,2.71,0.25109,0,0,0,0
471.17,2.4508,2.7093,0.25235,0,0,0,0
471.67,2.4541,2.7087,0.25373,0,0,0,0
472.18,2.4575,2.708,0.2549,0,0,0,0
472.67,2.4605,2.7073,0.25628,0,0,0,0
473.18,2.4639,2.7064,0.25765,0,0,0,0
473.68,2.4674,2.7056,0.25903,0,0,0,0
474.17,2.4706,2.7047,0.26048,0,0,0,0
474.68,2.4738,2.704,0.26185,0,0,0,0
475.17,2.4776,2.703,0.26329,0,0,0,0
475.68,2.481,2.702,0.26469,0,0,0,0
476.18,2.4845,2.701,0.26608,0,0,0,0
476.68,2.4876,2.7003,0.26749,0,0,0,0
477.17,2.4909,2.6997,0.26893,0,0,0,0
477.68,2.4941,2.6987,0.27036,0,0,0,0
478.17,2.4974,2.6976,0.27185,0,0,0,0
478.68,2.5008,2.6964,0.27343,0,0,0,0
479.18,2.5044,2.6956,0.27484,0,0,0,0
479.67,2.5076,2.6944,0.27642,0,0,0,0
480.18,2.5113,2.6933,0.27792,0,0,0,0
480.68,2.5148,2.692,0.27944,0,0,0,0
481.17,2.5184,2.691,0.28097,0,0,0,0
481.67,2.5216,2.6897,0.28274,0,0,0,0
482.18,2.525,2.6883,0.28423,0,0,0,0
482.67,2.5282,2.687,0.28585,0,0,0,0
483.18,2.5316,2.6857,0.28741,0,0,0,0
483.68,2.535,2.6843,0.28912,0,0,0,0
484.18,2.5386,2.6827,0.29068,0,0,0,0
484.67,2.5423,2.681,0.29234,0,0,0,0
485.17,2.5458,2.6793,0.29406,0,0,0,0
485.67,2.5494,2.6777,0.29571,0,0,0,0
486.18,2.5528,2.6763,0.29749,0,0,0,0
486.67,2.5564,2.6747,0.29911,0,0,0,0
487.17,2.5596,2.673,0.30095,0,0,0,0
487.67,2.5629,2.671,0.30276,0,0,0,0
488.18,2.5664,2.6693,0.3044,0,0,0,0
488.67,2.57,2.6677,0.30623,0,0,0,0
489.17,2.5733,2.666,0.30793,0,0,0,0
489.68,2.577,2.664,0.30969,0,0,0,0
490.17,2.5805,2.662,0.31146,0,0,0,0
490.68,2.5841,2.66,0.31318,0,0,0,0
491.17,2.5876,2.6577,0.31492,0,0,0,0
491.67,2.5914,2.6553,0.31666,0,0,0,0
492.18,2.5946,2.653,0.3184,0,0,0,0
492.68,2.5978,2.651,0.32013,0,0,0,0
493.17,2.6014,2.6487,0.32189,0,0,0,0
493.68,2.6048,2.6463,0.32395,0,0,0,0
494.18,2.6085,2.644,0.32563,0,0,0,0
494.68,2.612,2.6417,0.32752,0,0,0,0
495.17,2.6156,2.6393,0.32931,0,0,0,0
495.67,2.6193,2.6367,0.33105,0,0,0,0
496.18,2.6225,2.6343,0.333,0,0,0,0
496.68,2.6262,2.6314,0.33495,0,0,0,0
497.18,2.6297,2.6286,0.3369,0,0,0,0
497.67,2.6332,2.6257,0.33872,0,0,0,0
498.17,2.6366,2.623,0.34073,0,0,0,0
498.67,2.6402,2.62,0.34281,0,0,0,0
499.17,2.6438,2.617,0.34471,0,0,0,0
499.68,2.6476,2.614,0.34643,0,0,0,0
500.17,2.6513,2.611,0.3484,0,0,0,0
500.68,2.6548,2.608,0.35044,0,0,0,0
501.18,2.6585,2.6047,0.35223,0,0,0,0
501.67,2.6621,2.6013,0.35429,0,0,0,0
502.18,2.6654,2.5977,0.35627,0,0,0,0
502.68,2.669,2.5943,0.35848,0,0,0,0
503.18,2.6726,2.591,0.36024,0,0,0,0
503.67,2.6761,2.5877,0.36214,0,0,0,0
504.17,2.6798,2.584,0.36436,0,0,0,0
504.67,2.6834,2.58,0.36609,0,0,0,0
505.18,2.6875,2.5763,0.36813,0,0,0,0
505.67,2.6912,2.5724,0.37014,0,0,0,0
506.18,2.6949,2.5683,0.37225,0,0,0,0
506.67,2.6982,2.564,0.37424,0,0,0,0
507.17,2.702,2.56,0.37628,0,0,0,0
507.67,2.7053,2.556,0.37867,0,0,0,0
508.18,2.7092,2.5517,0.38068,0,0,0,0
508.68,2.713,2.5473,0.38279,0,0,0,0
509.18,2.7167,2.5427,0.38486,0,0,0,0
509.67,2.7205,2.5383,0.38717,0,0,0,0
510.17,2.7244,2.5337,0.38915,0,0,0,0
510.68,2.7283,2.529,0.39134,0,0,0,0
511.17,2.732,2.524,0.39346,0,0,0,0
511.67,2.7354,2.519,0.39579,0,0,0,0
512.17,2.7389,2.514,0.39803,0,0,0,0
512.67,2.7428,2.5087,0.40027,0,0,0,0
513.17,2.7466,2.5033,0.40273,0,0,0,0
513.67,2.7505,2.4977,0.40515,0,0,0,0
514.17,2.7543,2.4923,0.40713,0,0,0,0
514.67,2.7584,2.4867,0.4093,0,0,0,0
515.17,2.7621,2.481,0.41176,0,0,0,0
515.67,2.7659,2.4747,0.4141,0,0,0,0
516.17,2.7696,2.4686,0.41659,0,0,0,0
516.67,2.7734,2.4627,0.41906,0,0,0,0
517.17,2.777,2.4567,0.42138,0,0,0,0
517.67,2.7811,2.4503,0.4239,0,0,0,0
518.17,2.7849,2.4434,0.42625,0,0,0,0
518.67,2.7889,2.4363,0.42847,0,0,0,0
519.17,2.793,2.4287,0.43065,0,0,0,0
519.67,2.797,2.4213,0.43277,0,0,0,0
520.17,2.8009,2.4131,0.43537,0,0,0,0
520.67,2.8049,2.4043,0.43813,0,0,0,0
521.17,2.8091,2.3944,0.441,0,0,0,0