File: lab_data/AA6014-T4_results/DATA/NT20_00_2.csv
Time[s],Displacement[mm],Force[kN],AxStrain_1,AxStrain_2,Thickness[mm],OuterWidth[mm],InnerWidth[mm]
0.57,0,-0.0050652,0,0,1.12,20,9.9932
1.07,0.000192,0.0010359,-4.9001e-05,0,0,0,0
1.57,0.000633,0.0088715,-5.3001e-05,0,0,0,0
2.07,0.000963,0.028855,-0.00010701,0,0,0,0
2.57,0.001724,0.055145,-3.1e-05,0,0,0,0
3.07,0.002025,0.080282,4.6999e-05,0,0,0,0
3.57,0.002051,0.099705,3e-05,0,0,0,0
4.08,0.002348,0.11358,7e-06,0,0,0,0
4.57,0.002645,0.12843,0.00014299,0,0,0,0
5.08,0.003113,0.14685,-1.3e-05,0,0,0,0
5.57,0.003207,0.16471,8.2997e-05,0,0,0,0
6.08,0.003666,0.18243,5e-06,0,0,0,0
6.58,0.004044,0.20057,-0.00016301,0,0,0,0
7.08,0.004393,0.21886,0.00013599,0,0,0,0
7.57,0.004591,0.23528,0.00029396,0,0,0,0
8.07,0.004686,0.24771,7.6997e-05,0,0,0,0
8.57,0.004951,0.25615,0.00012199,0,0,0,0
9.07,0.00527,0.26572,4.4999e-05,0,0,0,0
9.57,0.005324,0.27814,0.00018798,0,0,0,0
10.07,0.005849,0.29129,0.00029296,0,0,0,0
10.57,0.006167,0.30457,0.00015499,0,0,0,0
11.07,0.006726,0.31843,0.00025197,0,0,0,0
11.57,0.00709,0.33286,0.00023597,0,0,0,0
12.07,0.007491,0.348,0.00015899,0,0,0,0
12.57,0.007878,0.36314,0.00028496,0,0,0,0
13.07,0.008282,0.377,0.00023297,0,0,0,0
13.57,0.008455,0.39,0.00024497,0,0,0,0
14.07,0.008977,0.40386,0.00030595,0,0,0,0
14.57,0.009015,0.41843,0.00024197,0,0,0,0
15.07,0.009383,0.43357,0.00022198,0,0,0,0
15.57,0.009649,0.44843,0.00037893,0,0,0,0
16.07,0.009746,0.46386,0.00028896,0,0,0,0
16.57,0.010095,0.47914,0.00031895,0,0,0,0
17.07,0.010297,0.49486,0.00033894,0,0,0,0
17.57,0.010505,0.50985,0.00025497,0,0,0,0
18.07,0.010666,0.52515,0.00020098,0,0,0,0
18.57,0.011065,0.54014,0.00032595,0,0,0,0
19.07,0.011435,0.555,0.00031895,0,0,0,0
19.57,0.01166,0.56986,0.00032895,0,0,0,0
20.07,0.012109,0.58485,0.00031595,0,0,0,0
20.57,0.012549,0.60043,0.00022797,0,0,0,0
21.07,0.012861,0.61671,0.00042591,0,0,0,0
21.57,0.013483,0.63314,0.00041591,0,0,0,0
22.07,0.013932,0.648,0.0004529,0,0,0,0
22.57,0.01452,0.662,0.00043291,0,0,0,0
23.07,0.015262,0.67686,0.00046989,0,0,0,0
23.57,0.01548,0.69214,0.00047988,0,0,0,0
24.07,0.016138,0.70786,0.00066078,0,0,0,0
24.57,0.016538,0.72343,0.00058383,0,0,0,0
25.07,0.016645,0.73957,0.00051687,0,0,0,0
25.57,0.017001,0.75514,0.00057683,0,0,0,0
26.07,0.017377,0.77086,0.00055684,0,0,0,0
26.57,0.01781,0.78614,0.00042291,0,0,0,0
27.07,0.017659,0.80186,0.00058783,0,0,0,0
27.57,0.018226,0.81714,0.0004499,0,0,0,0
28.07,0.018528,0.832,0.00047689,0,0,0,0
28.57,0.0188,0.84686,0.00056684,0,0,0,0
29.07,0.018985,0.86243,0.00066478,0,0,0,0
29.57,0.019344,0.87857,0.00041591,0,0,0,0
30.07,0.019556,0.895,0.00065778,0,0,0,0
30.57,0.020123,0.91114,0.00051387,0,0,0,0
31.07,0.020328,0.926,0.00058383,0,0,0,0
31.57,0.020939,0.94086,0.00059083,0,0,0,0
32.07,0.021261,0.95614,0.00075871,0,0,0,0
32.58,0.021825,0.971,0.0006348,0,0,0,0
33.07,0.022423,0.98586,0.0007757,0,0,0,0
33.57,0.02298,1.0011,0.00075172,0,0,0,0
34.08,0.023558,1.0169,0.00083565,0,0,0,0
34.58,0.023997,1.033,0.00084864,0,0,0,0
35.07,0.024467,1.048,0.00096354,0,0,0,0
35.57,0.024947,1.0617,0.00087961,0,0,0,0
36.07,0.025323,1.0763,0.00094655,0,0,0,0
36.57,0.025706,1.0921,0.00097952,0,0,0,0
37.07,0.026186,1.1067,0.00088561,0,0,0,0
37.57,0.026596,1.1211,0.00092957,0,0,0,0
38.08,0.026975,1.1361,0.00090559,0,0,0,0
38.58,0.027254,1.1516,0.00080568,0,0,0,0
39.07,0.027667,1.167,0.00092657,0,0,0,0
39.57,0.028056,1.1821,0.00093656,0,0,0,0
40.08,0.028563,1.196,0.0010834,0,0,0,0
40.57,0.028842,1.2099,0.0009995,0,0,0,0
41.08,0.029409,1.2241,0.0010335,0,0,0,0
41.57,0.030003,1.238,0.0011773,0,0,0,0
42.08,0.030403,1.2519,0.0010904,0,0,0,0
42.57,0.031084,1.2656,0.0011473,0,0,0,0
43.07,0.031873,1.2794,0.0012752,0,0,0,0
43.57,0.032632,1.2937,0.0012752,0,0,0,0
44.07,0.033357,1.307,0.0013181,0,0,0,0
44.57,0.034072,1.3187,0.0014929,0,0,0,0
45.07,0.034764,1.331,0.0015598,0,0,0,0
45.57,0.035711,1.3439,0.0018213,0,0,0,0
46.07,0.03655,1.3553,0.002006,0,0,0,0
46.58,0.037608,1.3663,0.0019421,0,0,0,0
47.07,0.038464,1.3771,0.0021297,0,0,0,0
47.57,0.039672,1.3876,0.002428,0,0,0,0
48.07,0.041149,1.3977,0.0028559,0,0,0,0
48.57,0.042116,1.4074,0.0027722,0,0,0,0
49.08,0.043805,1.416,0.0029835,0,0,0,0
49.57,0.045292,1.4243,0.0031141,0,0,0,0
50.07,0.046974,1.4324,0.0032647,0,0,0,0
50.57,0.048824,1.44,0.0035058,0,0,0,0
51.07,0.050848,1.4476,0.0036991,0,0,0,0
51.57,0.05293,1.4551,0.0039074,0,0,0,0
52.07,0.054756,1.4626,0.0040637,0,0,0,0
52.57,0.056596,1.4697,0.0042081,0,0,0,0
53.07,0.05862,1.4767,0.0045685,0,0,0,0
53.57,0.060359,1.483,0.0046223,0,0,0,0
54.07,0.062142,1.4893,0.0049129,0,0,0,0
54.57,0.064099,1.4957,0.0053507,0,0,0,0
55.07,0.065966,1.5017,0.0056013,0,0,0,0
55.57,0.068114,1.5076,0.0059751,0,0,0,0
56.07,0.070327,1.5134,0.0063786,0,0,0,0
56.57,0.072593,1.5193,0.0066618,0,0,0,0
57.07,0.074654,1.5253,0.0068525,0,0,0,0
57.57,0.076961,1.5314,0.0071792,0,0,0,0
58.07,0.079468,1.537,0.0074988,0,0,0,0
58.57,0.081751,1.5423,0.0078481,0,0,0,0
59.07,0.08391,1.5477,0.0079215,0,0,0,0
59.57,0.086045,1.553,0.0080684,0,0,0,0
60.07,0.088174,1.5583,0.0080753,0,0,0,0
60.57,0.090268,1.5634,0.0082052,0,0,0,0
61.07,0.092296,1.5686,0.0083213,0,0,0,0
61.57,0.094593,1.5734,0.0083381,0,0,0,0
62.07,0.096896,1.5786,0.0086971,0,0,0,0
62.57,0.099353,1.5834,0.0087308,0,0,0,0
63.07,0.10166,1.5886,0.0089003,0,0,0,0
63.57,0.10419,1.5934,0.009153,0,0,0,0
64.07,0.10663,1.598,0.0094264,0,0,0,0
64.57,0.1092,1.6023,0.0096027,0,0,0,0
65.07,0.11156,1.6073,0.009981,0,0,0,0
65.57,0.11367,1.6119,0.010214,0,0,0,0
66.07,0.11583,1.6161,0.010666,0,0,0,0
66.57,0.11786,1.6207,0.010911,0,0,0,0
67.07,0.12047,1.6257,0.011214,0,0,0,0
67.57,0.12292,1.6303,0.01151,0,0,0,0
68.07,0.12495,1.6344,0.011698,0,0,0,0
68.57,0.12742,1.6383,0.011918,0,0,0,0
69.07,0.12987,1.6423,0.01209,0,0,0,0
69.57,0.13252,1.647,0.012094,0,0,0,0
70.07,0.13525,1.6517,0.012309,0,0,0,0
70.57,0.1377,1.656,0.012351,0,0,0,0
71.07,0.13985,1.66,0.012275,0,0,0,0
71.57,0.14242,1.664,0.012441,0,0,0,0
72.07,0.14469,1.6683,0.01259,0,0,0,0
72.57,0.14689,1.6724,0.012644,0,0,0,0
73.07,0.14938,1.6763,0.012806,0,0,0,0
73.57,0.15155,1.68,0.012895,0,0,0,0
74.07,0.15402,1.6843,0.012766,0,0,0,0
74.57,0.15663,1.6884,0.013442,0,0,0,0
75.07,0.15949,1.6923,0.013618,0,0,0,0
75.57,0.16242,1.696,0.013913,0,0,0,0
76.07,0.16492,1.7,0.014306,0,0,0,0
76.57,0.16736,1.704,0.014439,0,0,0,0
77.07,0.16969,1.708,0.014859,0,0,0,0
77.57,0.17228,1.7117,0.015203,0,0,0,0
78.08,0.17457,1.7153,0.015349,0,0,0,0
78.57,0.1771,1.7193,0.015424,0,0,0,0
79.07,0.17946,1.7234,0.015547,0,0,0,0
79.57,0.18184,1.727,0.015722,0,0,0,0
80.07,0.18436,1.7303,0.015831,0,0,0,0
80.57,0.1872,1.734,0.015768,0,0,0,0
81.07,0.18994,1.738,0.0159,0,0,0,0
81.57,0.1927,1.7417,0.015877,0,0,0,0
82.07,0.19536,1.745,0.016019,0,0,0,0
82.57,0.19772,1.7486,0.015957,0,0,0,0
83.07,0.20046,1.7527,0.016174,0,0,0,0
83.57,0.20294,1.7567,0.016369,0,0,0,0
84.07,0.20534,1.76,0.016627,0,0,0,0
84.57,0.20797,1.7633,0.016799,0,0,0,0
85.07,0.21055,1.7667,0.017072,0,0,0,0
85.57,0.2132,1.7703,0.017449,0,0,0,0
86.07,0.2158,1.7737,0.017627,0,0,0,0
86.57,0.21879,1.777,0.017825,0,0,0,0
87.07,0.22143,1.7803,0.018217,0,0,0,0
87.57,0.22423,1.784,0.018409,0,0,0,0
88.07,0.22696,1.7877,0.018488,0,0,0,0
88.57,0.22938,1.791,0.018715,0,0,0,0
89.07,0.23201,1.7943,0.018729,0,0,0,0
89.57,0.23441,1.7977,0.019084,0,0,0,0
90.07,0.23705,1.8013,0.019084,0,0,0,0
90.57,0.23951,1.8047,0.019202,0,0,0,0
91.07,0.24221,1.808,0.019205,0,0,0,0
91.57,0.24491,1.8113,0.01937,0,0,0,0
92.07,0.24799,1.8147,0.019341,0,0,0,0
92.57,0.25066,1.818,0.019585,0,0,0,0
93.07,0.25353,1.821,0.019693,0,0,0,0
93.57,0.25628,1.8243,0.019753,0,0,0,0
94.07,0.25883,1.8277,0.01995,0,0,0,0
94.57,0.26146,1.8313,0.02017,0,0,0,0
95.07,0.26391,1.8344,0.020486,0,0,0,0
95.57,0.26659,1.8373,0.020604,0,0,0,0
96.07,0.2691,1.84,0.02096,0,0,0,0
96.57,0.27189,1.8433,0.021025,0,0,0,0
97.07,0.27446,1.8467,0.021406,0,0,0,0
97.57,0.27732,1.85,0.0214,0,0,0,0
98.08,0.28038,1.853,0.021791,0,0,0,0
98.57,0.28314,1.856,0.022086,0,0,0,0
99.07,0.28592,1.8593,0.022172,0,0,0,0
99.57,0.28865,1.8627,0.022425,0,0,0,0
100.07,0.29135,1.8657,0.022241,0,0,0,0
100.57,0.29388,1.8683,0.022586,0,0,0,0
101.07,0.29654,1.8713,0.022618,0,0,0,0
101.57,0.29893,1.8747,0.022661,0,0,0,0
102.07,0.3017,1.878,0.02275,0,0,0,0
102.57,0.30456,1.8807,0.022956,0,0,0,0
103.07,0.30722,1.8836,0.023196,0,0,0,0
103.57,0.3102,1.8867,0.023275,0,0,0,0
104.07,0.31298,1.89,0.023357,0,0,0,0
104.57,0.31573,1.8927,0.023675,0,0,0,0
105.07,0.31852,1.8953,0.023759,0,0,0,0
105.57,0.32112,1.898,0.024082,0,0,0,0
106.07,0.32375,1.9013,0.02417,0,0,0,0
106.57,0.32625,1.9044,0.024357,0,0,0,0
107.07,0.32884,1.9073,0.024546,0,0,0,0
107.57,0.33151,1.91,0.024939,0,0,0,0
108.07,0.33425,1.913,0.024973,0,0,0,0
108.57,0.33713,1.916,0.025208,0,0,0,0
109.07,0.34021,1.9187,0.025359,0,0,0,0
109.57,0.34305,1.9213,0.025398,0,0,0,0
110.07,0.34605,1.924,0.025836,0,0,0,0
110.57,0.34888,1.927,0.025764,0,0,0,0
111.07,0.35135,1.93,0.025954,0,0,0,0
111.57,0.3539,1.9327,0.026212,0,0,0,0
112.07,0.35656,1.9353,0.026157,0,0,0,0
112.57,0.35895,1.938,0.026412,0,0,0,0
113.07,0.36162,1.941,0.026504,0,0,0,0
113.57,0.3644,1.944,0.026699,0,0,0,0
114.07,0.36741,1.947,0.026831,0,0,0,0
114.57,0.37029,1.95,0.027092,0,0,0,0
115.07,0.37324,1.9527,0.027222,0,0,0,0
115.57,0.37593,1.955,0.027419,0,0,0,0
116.07,0.37897,1.9573,0.027517,0,0,0,0
116.57,0.38154,1.96,0.027647,0,0,0,0
117.07,0.38409,1.963,0.027778,0,0,0,0
117.57,0.38647,1.9657,0.027941,0,0,0,0
118.07,0.38908,1.9683,0.028169,0,0,0,0
118.57,0.39181,1.971,0.028365,0,0,0,0
119.07,0.3945,1.974,0.028561,0,0,0,0
119.57,0.39743,1.9767,0.028626,0,0,0,0
120.07,0.4004,1.979,0.028823,0,0,0,0
120.57,0.40358,1.9813,0.02892,0,0,0,0
121.07,0.40614,1.9837,0.029278,0,0,0,0
121.57,0.40896,1.9866,0.029213,0,0,0,0
122.07,0.41155,1.9894,0.029441,0,0,0,0
122.57,0.41433,1.992,0.029539,0,0,0,0
123.07,0.41698,1.9943,0.029669,0,0,0,0
123.57,0.41965,1.997,0.029866,0,0,0,0
124.07,0.42218,1.9997,0.030029,0,0,0,0
124.57,0.425,2.0023,0.030192,0,0,0,0
125.07,0.42773,2.005,0.03042,0,0,0,0
125.57,0.43093,2.0077,0.030517,0,0,0,0
126.07,0.4339,2.0103,0.03055,0,0,0,0
126.57,0.43685,2.0127,0.030842,0,0,0,0
127.07,0.43952,2.015,0.030875,0,0,0,0
127.57,0.44225,2.0173,0.031265,0,0,0,0
128.07,0.44508,2.02,0.031331,0,0,0,0
128.57,0.44746,2.0227,0.031428,0,0,0,0
129.07,0.44996,2.025,0.031493,0,0,0,0
129.57,0.45313,2.0273,0.031851,0,0,0,0
130.07,0.45586,2.0297,0.032046,0,0,0,0
130.57,0.45852,2.0323,0.032242,0,0,0,0
131.07,0.46177,2.0347,0.032371,0,0,0,0
131.57,0.46456,2.037,0.032534,0,0,0,0
132.07,0.46745,2.0393,0.032631,0,0,0,0
132.57,0.47038,2.042,0.032793,0,0,0,0
133.07,0.47294,2.0444,0.032826,0,0,0,0
133.57,0.47577,2.0466,0.033118,0,0,0,0
134.07,0.47835,2.049,0.033281,0,0,0,0
134.57,0.48121,2.0517,0.033281,0,0,0,0
135.07,0.48383,2.0543,0.033508,0,0,0,0
135.57,0.48685,2.0567,0.033606,0,0,0,0
136.07,0.48967,2.059,0.033833,0,0,0,0
136.57,0.49258,2.061,0.03393,0,0,0,0
137.07,0.49535,2.0633,0.034255,0,0,0,0
137.57,0.49857,2.0657,0.034319,0,0,0,0
138.07,0.50126,2.068,0.034546,0,0,0,0
138.57,0.50404,2.0703,0.034579,0,0,0,0
139.07,0.50653,2.0727,0.034806,0,0,0,0
139.57,0.50931,2.0753,0.034838,0,0,0,0
140.07,0.51177,2.0777,0.035162,0,0,0,0
140.57,0.51453,2.08,0.035292,0,0,0,0
141.07,0.51751,2.082,0.035389,0,0,0,0
141.57,0.52032,2.0843,0.035584,0,0,0,0
142.07,0.52336,2.0867,0.035714,0,0,0,0
142.57,0.52638,2.089,0.035778,0,0,0,0
143.07,0.52931,2.0913,0.035843,0,0,0,0
143.57,0.53221,2.0937,0.036199,0,0,0,0
144.07,0.53497,2.096,0.036394,0,0,0,0
144.57,0.53753,2.098,0.036361,0,0,0,0
145.07,0.54017,2.1,0.036556,0,0,0,0
145.57,0.54296,2.1023,0.036749,0,0,0,0
146.07,0.54545,2.1047,0.036944,0,0,0,0
146.57,0.54873,2.107,0.03704,0,0,0,0
147.07,0.55133,2.109,0.037202,0,0,0,0
147.57,0.55448,2.111,0.037558,0,0,0,0
148.07,0.55733,2.113,0.037591,0,0,0,0
148.57,0.56036,2.1153,0.03785,0,0,0,0
149.07,0.56317,2.1177,0.03801,0,0,0,0
149.57,0.56582,2.12,0.037881,0,0,0,0
150.07,0.56854,2.122,0.038334,0,0,0,0
150.57,0.57139,2.1243,0.038367,0,0,0,0
151.07,0.57387,2.1267,0.038495,0,0,0,0
151.57,0.57695,2.129,0.038657,0,0,0,0
152.07,0.57955,2.131,0.038722,0,0,0,0
152.57,0.58264,2.133,0.038883,0,0,0,0
153.07,0.5854,2.135,0.039205,0,0,0,0
153.57,0.58863,2.137,0.039206,0,0,0,0
154.07,0.59142,2.139,0.039367,0,0,0,0
154.57,0.59457,2.141,0.039593,0,0,0,0
155.07,0.59728,2.1433,0.039819,0,0,0,0
155.57,0.59971,2.1457,0.039916,0,0,0,0
156.07,0.60243,2.148,0.040141,0,0,0,0
156.57,0.60517,2.15,0.04027,0,0,0,0
157.07,0.60797,2.152,0.040561,0,0,0,0
157.57,0.61075,2.154,0.040787,0,0,0,0
158.07,0.61362,2.156,0.040818,0,0,0,0
158.57,0.61659,2.158,0.04098,0,0,0,0
159.07,0.61959,2.16,0.041302,0,0,0,0
159.57,0.62263,2.1623,0.041302,0,0,0,0
160.07,0.62534,2.1644,0.041431,0,0,0,0
160.57,0.62805,2.1663,0.04172,0,0,0,0
161.07,0.63073,2.168,0.041978,0,0,0,0
161.57,0.63353,2.17,0.041946,0,0,0,0
162.07,0.63655,2.1723,0.042107,0,0,0,0
162.57,0.63888,2.1747,0.04214,0,0,0,0
163.07,0.64166,2.1767,0.042268,0,0,0,0
163.57,0.64486,2.1786,0.042461,0,0,0,0
164.07,0.64795,2.1807,0.042718,0,0,0,0
164.57,0.65069,2.183,0.042944,0,0,0,0
165.07,0.65352,2.1847,0.04304,0,0,0,0
165.57,0.65655,2.1866,0.043136,0,0,0,0
166.07,0.65912,2.1884,0.043394,0,0,0,0
166.57,0.66194,2.1906,0.043812,0,0,0,0
167.07,0.66477,2.1927,0.04378,0,0,0,0
167.57,0.66747,2.195,0.043973,0,0,0,0
168.07,0.67029,2.1967,0.044293,0,0,0,0
168.57,0.67314,2.1986,0.044518,0,0,0,0
169.07,0.67597,2.2004,0.044582,0,0,0,0
169.57,0.67908,2.2023,0.044807,0,0,0,0
170.07,0.68201,2.204,0.044904,0,0,0,0
170.57,0.68524,2.206,0.045032,0,0,0,0
171.07,0.68799,2.208,0.045256,0,0,0,0
171.57,0.69064,2.21,0.045289,0,0,0,0
172.07,0.69329,2.2117,0.045449,0,0,0,0
172.57,0.69592,2.2136,0.045545,0,0,0,0
173.07,0.6987,2.2157,0.045674,0,0,0,0
173.57,0.70136,2.2177,0.045866,0,0,0,0
174.07,0.70439,2.2193,0.04593,0,0,0,0
174.57,0.70715,2.221,0.046187,0,0,0,0
175.07,0.71008,2.223,0.046411,0,0,0,0
175.57,0.7131,2.225,0.046572,0,0,0,0
176.07,0.71543,2.227,0.046924,0,0,0,0
176.57,0.71858,2.229,0.046955,0,0,0,0
177.07,0.72136,2.231,0.047244,0,0,0,0
177.57,0.72424,2.233,0.047404,0,0,0,0
178.07,0.72691,2.235,0.047404,0,0,0,0
178.57,0.72971,2.2367,0.04766,0,0,0,0
179.07,0.73228,2.2383,0.047853,0,0,0,0
179.57,0.73521,2.2397,0.048077,0,0,0,0
180.07,0.73819,2.2416,0.048172,0,0,0,0
180.57,0.74088,2.2434,0.048301,0,0,0,0
181.07,0.74409,2.2453,0.048396,0,0,0,0
181.57,0.74696,2.247,0.048524,0,0,0,0
182.07,0.74976,2.249,0.048843,0,0,0,0
182.57,0.75269,2.2507,0.048907,0,0,0,0
183.07,0.75507,2.2523,0.049067,0,0,0,0
183.57,0.75786,2.254,0.049323,0,0,0,0
184.07,0.76049,2.256,0.04926,0,0,0,0
184.57,0.76305,2.258,0.049547,0,0,0,0
185.07,0.76596,2.2597,0.049675,0,0,0,0
185.57,0.76889,2.2613,0.049803,0,0,0,0
186.07,0.77202,2.263,0.050058,0,0,0,0
186.57,0.77481,2.265,0.05025,0,0,0,0
187.07,0.77778,2.2667,0.050345,0,0,0,0
187.57,0.78068,2.268,0.050537,0,0,0,0
188.07,0.7831,2.2696,0.050792,0,0,0,0
188.57,0.78577,2.2714,0.050824,0,0,0,0
189.07,0.78844,2.2733,0.051271,0,0,0,0
189.57,0.79144,2.275,0.051207,0,0,0,0
190.07,0.79404,2.2767,0.051271,0,0,0,0
190.57,0.7966,2.2783,0.051621,0,0,0,0
191.07,0.7993,2.28,0.051749,0,0,0,0
191.57,0.80254,2.282,0.051845,0,0,0,0
192.07,0.80564,2.2837,0.051972,0,0,0,0
192.57,0.80838,2.2853,0.052131,0,0,0,0
193.07,0.81108,2.2867,0.05245,0,0,0,0
193.57,0.81402,2.2886,0.052546,0,0,0,0
194.07,0.81654,2.2904,0.05261,0,0,0,0
194.57,0.81936,2.2923,0.052832,0,0,0,0
195.07,0.82199,2.2937,0.0528,0,0,0,0
195.57,0.82459,2.2953,0.053119,0,0,0,0
196.07,0.82768,2.297,0.053374,0,0,0,0
196.57,0.8302,2.2987,0.053437,0,0,0,0
197.07,0.83341,2.3003,0.053564,0,0,0,0
197.57,0.83624,2.302,0.053755,0,0,0,0
198.07,0.83914,2.3037,0.053914,0,0,0,0
198.57,0.84198,2.3053,0.0542,0,0,0,0
199.07,0.84457,2.307,0.054328,0,0,0,0
199.57,0.8474,2.3087,0.054392,0,0,0,0
200.07,0.85,2.3103,0.054551,0,0,0,0
200.57,0.85277,2.3117,0.0549,0,0,0,0
201.07,0.85526,2.3133,0.054963,0,0,0,0
201.57,0.85814,2.315,0.055027,0,0,0,0
202.07,0.86088,2.3167,0.055345,0,0,0,0
202.57,0.8641,2.3183,0.055472,0,0,0,0
203.07,0.86713,2.32,0.055567,0,0,0,0
203.57,0.86999,2.3217,0.055885,0,0,0,0
204.07,0.87278,2.3233,0.055822,0,0,0,0
204.57,0.87549,2.325,0.05617,0,0,0,0
205.07,0.87832,2.3267,0.05617,0,0,0,0
205.57,0.88112,2.328,0.056393,0,0,0,0
206.07,0.88386,2.3293,0.056615,0,0,0,0
206.57,0.88628,2.3307,0.056805,0,0,0,0
207.07,0.8892,2.3323,0.056773,0,0,0,0
207.57,0.89207,2.3337,0.057059,0,0,0,0
208.07,0.89512,2.3353,0.057217,0,0,0,0
208.57,0.89807,2.3367,0.05747,0,0,0,0
209.07,0.90098,2.3383,0.057598,0,0,0,0
209.57,0.90391,2.34,0.057757,0,0,0,0
210.07,0.90664,2.3417,0.057978,0,0,0,0
210.57,0.9092,2.3433,0.058136,0,0,0,0
211.07,0.91202,2.3447,0.0582,0,0,0,0
211.57,0.91469,2.3463,0.058485,0,0,0,0
212.07,0.91741,2.348,0.058611,0,0,0,0
212.57,0.92025,2.3497,0.058896,0,0,0,0
213.07,0.92313,2.3513,0.059086,0,0,0,0
213.57,0.92618,2.3527,0.059181,0,0,0,0
214.07,0.92907,2.354,0.059371,0,0,0,0
214.57,0.93216,2.3553,0.059465,0,0,0,0
215.07,0.93509,2.3567,0.059624,0,0,0,0
215.57,0.93762,2.3583,0.059909,0,0,0,0
216.07,0.94057,2.3597,0.059972,0,0,0,0
216.57,0.943,2.3613,0.060225,0,0,0,0
217.07,0.94584,2.3627,0.060572,0,0,0,0
217.57,0.94859,2.3643,0.060604,0,0,0,0
218.07,0.95133,2.3657,0.060888,0,0,0,0
218.57,0.95432,2.3673,0.060951,0,0,0,0
219.07,0.95736,2.3687,0.061172,0,0,0,0
219.57,0.96021,2.3703,0.06133,0,0,0,0
220.07,0.96297,2.3717,0.061457,0,0,0,0
220.57,0.9659,2.373,0.061741,0,0,0,0
221.07,0.96856,2.3743,0.061835,0,0,0,0
221.57,0.9713,2.376,0.061962,0,0,0,0
222.07,0.97396,2.3777,0.062246,0,0,0,0
222.57,0.97662,2.379,0.062183,0,0,0,0
223.07,0.9793,2.3803,0.062467,0,0,0,0
223.57,0.98209,2.3817,0.062687,0,0,0,0
224.07,0.98515,2.383,0.062845,0,0,0,0
224.57,0.98811,2.3843,0.062845,0,0,0,0
225.07,0.99108,2.3857,0.063129,0,0,0,0
225.57,0.99395,2.3873,0.063286,0,0,0,0
226.07,0.99674,2.389,0.063507,0,0,0,0
226.57,0.99948,2.3907,0.063759,0,0,0,0
227.07,1.0022,2.392,0.063885,0,0,0,0
227.57,1.0048,2.3933,0.064042,0,0,0,0
228.07,1.0078,2.3947,0.064231,0,0,0,0
228.57,1.0104,2.3963,0.064326,0,0,0,0
229.07,1.0132,2.3977,0.064577,0,0,0,0
229.57,1.0162,2.399,0.064798,0,0,0,0
230.07,1.0191,2.4,0.065018,0,0,0,0
230.57,1.022,2.401,0.065112,0,0,0,0
231.07,1.0249,2.4023,0.065207,0,0,0,0
231.57,1.0277,2.4037,0.065521,0,0,0,0
232.07,1.0304,2.4053,0.065647,0,0,0,0
232.57,1.0331,2.4067,0.065773,0,0,0,0
233.07,1.0358,2.4083,0.065993,0,0,0,0
233.57,1.0387,2.4097,0.066182,0,0,0,0
234.07,1.0411,2.411,0.066338,0,0,0,0
234.57,1.0439,2.4123,0.066527,0,0,0,0
235.07,1.0468,2.4137,0.066683,0,0,0,0
235.57,1.0497,2.415,0.066935,0,0,0,0
236.07,1.0528,2.4163,0.066998,0,0,0,0
236.57,1.0558,2.4177,0.067344,0,0,0,0
237.07,1.0586,2.419,0.067374,0,0,0,0
237.57,1.0614,2.4203,0.067657,0,0,0,0
238.07,1.0643,2.4217,0.067846,0,0,0,0
238.57,1.0666,2.423,0.067971,0,0,0,0
239.07,1.0694,2.4243,0.068253,0,0,0,0
239.57,1.0722,2.4257,0.068442,0,0,0,0
240.07,1.0749,2.427,0.068629,0,0,0,0
240.57,1.0781,2.428,0.068692,0,0,0,0
241.07,1.081,2.4293,0.069005,0,0,0,0
241.57,1.0839,2.4307,0.0691,0,0,0,0
242.07,1.087,2.432,0.069256,0,0,0,0
242.57,1.0897,2.433,0.069475,0,0,0,0
243.07,1.0925,2.4343,0.069663,0,0,0,0
243.57,1.0952,2.4357,0.069882,0,0,0,0
244.07,1.0976,2.4373,0.070101,0,0,0,0
244.57,1.1008,2.4387,0.070321,0,0,0,0
245.07,1.1032,2.4403,0.070289,0,0,0,0
245.57,1.1061,2.4417,0.070664,0,0,0,0
246.07,1.109,2.443,0.070696,0,0,0,0
246.57,1.1119,2.444,0.070883,0,0,0,0
247.07,1.1149,2.4453,0.071134,0,0,0,0
247.57,1.1179,2.4467,0.071384,0,0,0,0
248.07,1.1207,2.448,0.071634,0,0,0,0
248.57,1.1234,2.4493,0.071696,0,0,0,0
249.07,1.1262,2.4507,0.072041,0,0,0,0
249.57,1.129,2.452,0.072258,0,0,0,0
250.07,1.1314,2.4527,0.072322,0,0,0,0
250.57,1.1341,2.4536,0.07254,0,0,0,0
251.07,1.1371,2.455,0.072759,0,0,0,0
251.57,1.14,2.4567,0.072789,0,0,0,0
252.07,1.1427,2.458,0.073039,0,0,0,0
252.57,1.146,2.459,0.073164,0,0,0,0
253.07,1.149,2.46,0.073382,0,0,0,0
253.57,1.1516,2.4613,0.073663,0,0,0,0
254.07,1.1541,2.4627,0.073695,0,0,0,0
254.57,1.1572,2.464,0.073913,0,0,0,0
255.07,1.1596,2.465,0.074068,0,0,0,0
255.57,1.1621,2.466,0.074224,0,0,0,0
256.07,1.1651,2.4673,0.074567,0,0,0,0
256.57,1.1678,2.4687,0.07466,0,0,0,0
257.07,1.1706,2.47,0.07491,0,0,0,0
257.57,1.1737,2.471,0.075096,0,0,0,0
258.07,1.1765,2.472,0.075408,0,0,0,0
258.57,1.1793,2.4733,0.075502,0,0,0,0
259.07,1.182,2.4747,0.075688,0,0,0,0
259.57,1.1847,2.476,0.075844,0,0,0,0
260.07,1.1874,2.477,0.076031,0,0,0,0
260.57,1.1901,2.478,0.076279,0,0,0,0
261.07,1.1929,2.4793,0.076435,0,0,0,0
261.57,1.1955,2.4807,0.076622,0,0,0,0
262.07,1.1982,2.482,0.076777,0,0,0,0
262.57,1.2011,2.483,0.076964,0,0,0,0
263.07,1.2041,2.4843,0.077088,0,0,0,0
263.57,1.2072,2.4857,0.077212,0,0,0,0
264.07,1.2101,2.487,0.077523,0,0,0,0
264.57,1.2129,2.488,0.077616,0,0,0,0
265.07,1.2154,2.489,0.077772,0,0,0,0
265.57,1.2183,2.49,0.078082,0,0,0,0
266.07,1.2211,2.491,0.078207,0,0,0,0
266.57,1.2236,2.4923,0.078516,0,0,0,0
267.07,1.2263,2.4937,0.078641,0,0,0,0
267.57,1.2292,2.495,0.078951,0,0,0,0
268.07,1.2317,2.4957,0.079106,0,0,0,0
268.57,1.2347,2.4966,0.079261,0,0,0,0
269.07,1.2377,2.4977,0.079572,0,0,0,0
269.57,1.2406,2.499,0.079757,0,0,0,0
270.07,1.2437,2.5003,0.079944,0,0,0,0
270.57,1.2462,2.5017,0.080099,0,0,0,0
271.07,1.2488,2.503,0.080346,0,0,0,0
271.57,1.2515,2.504,0.080563,0,0,0,0
272.07,1.2543,2.5053,0.080563,0,0,0,0
272.57,1.2571,2.5064,0.080903,0,0,0,0
273.07,1.26,2.5073,0.081058,0,0,0,0
273.57,1.2628,2.508,0.081213,0,0,0,0
274.07,1.266,2.509,0.081337,0,0,0,0
274.57,1.2688,2.5103,0.081678,0,0,0,0
275.07,1.2716,2.5117,0.081739,0,0,0,0
275.57,1.2745,2.513,0.081894,0,0,0,0
276.07,1.277,2.514,0.082111,0,0,0,0
276.57,1.2799,2.515,0.082544,0,0,0,0
277.07,1.2825,2.516,0.082698,0,0,0,0
277.57,1.285,2.517,0.08276,0,0,0,0
278.07,1.2879,2.518,0.083038,0,0,0,0
278.57,1.2908,2.519,0.083285,0,0,0,0
279.07,1.2938,2.52,0.083562,0,0,0,0
279.57,1.2964,2.5213,0.083779,0,0,0,0
280.07,1.2999,2.5227,0.083996,0,0,0,0
280.57,1.3022,2.524,0.084149,0,0,0,0
281.07,1.3051,2.525,0.084428,0,0,0,0
281.57,1.3083,2.526,0.084581,0,0,0,0
282.07,1.3113,2.527,0.084767,0,0,0,0
282.57,1.3134,2.528,0.084828,0,0,0,0
283.07,1.3163,2.529,0.085167,0,0,0,0
283.57,1.3191,2.53,0.085353,0,0,0,0
284.07,1.322,2.531,0.085568,0,0,0,0
284.57,1.3247,2.532,0.085723,0,0,0,0
285.07,1.3278,2.533,0.085907,0,0,0,0
285.57,1.331,2.534,0.086153,0,0,0,0
286.07,1.3343,2.535,0.086184,0,0,0,0
286.57,1.3375,2.536,0.086492,0,0,0,0
287.07,1.3394,2.5373,0.0868,0,0,0,0
287.57,1.3428,2.5387,0.086985,0,0,0,0
288.07,1.3456,2.5397,0.087231,0,0,0,0
288.57,1.348,2.5406,0.087323,0,0,0,0
289.07,1.3504,2.5414,0.087601,0,0,0,0
289.57,1.3535,2.5423,0.087754,0,0,0,0
290.07,1.3565,2.5433,0.087907,0,0,0,0
290.57,1.3594,2.5447,0.088246,0,0,0,0
291.07,1.3626,2.546,0.088553,0,0,0,0
291.57,1.3653,2.547,0.088645,0,0,0,0
292.07,1.3682,2.548,0.088953,0,0,0,0
292.57,1.3708,2.5487,0.089044,0,0,0,0
293.07,1.3733,2.5493,0.089198,0,0,0,0
293.57,1.3761,2.5503,0.089474,0,0,0,0
294.07,1.379,2.5514,0.089628,0,0,0,0
294.57,1.3817,2.5523,0.089935,0,0,0,0
295.07,1.3845,2.553,0.090057,0,0,0,0
295.57,1.3877,2.5543,0.090242,0,0,0,0
296.07,1.3906,2.5557,0.090579,0,0,0,0
296.57,1.3938,2.557,0.090671,0,0,0,0
297.07,1.3966,2.558,0.090794,0,0,0,0
297.57,1.3995,2.559,0.0911,0,0,0,0
298.07,1.4023,2.56,0.091376,0,0,0,0
298.57,1.4051,2.561,0.091529,0,0,0,0
299.07,1.4079,2.562,0.091835,0,0,0,0
299.57,1.4106,2.563,0.092049,0,0,0,0
300.07,1.4134,2.5637,0.092265,0,0,0,0
300.57,1.4164,2.5643,0.092387,0,0,0,0
301.07,1.4192,2.565,0.092692,0,0,0,0
301.57,1.4224,2.566,0.092968,0,0,0,0
302.07,1.425,2.5673,0.093151,0,0,0,0
302.57,1.4281,2.5684,0.093366,0,0,0,0
303.07,1.4309,2.5693,0.093519,0,0,0,0
303.57,1.4338,2.57,0.093764,0,0,0,0
304.07,1.4364,2.571,0.094069,0,0,0,0
304.57,1.4391,2.572,0.09416,0,0,0,0
305.07,1.442,2.573,0.094405,0,0,0,0
305.57,1.4447,2.574,0.094557,0,0,0,0
306.07,1.4478,2.575,0.094802,0,0,0,0
306.57,1.4509,2.576,0.095077,0,0,0,0
307.07,1.4538,2.577,0.095351,0,0,0,0
307.57,1.4567,2.578,0.095656,0,0,0,0
308.07,1.4594,2.579,0.095931,0,0,0,0
308.57,1.4624,2.5797,0.096084,0,0,0,0
309.07,1.4652,2.5803,0.096236,0,0,0,0
309.57,1.4677,2.5813,0.09645,0,0,0,0
310.07,1.4706,2.5824,0.096724,0,0,0,0
310.57,1.4733,2.5833,0.096967,0,0,0,0
311.07,1.4762,2.584,0.09712,0,0,0,0
311.57,1.4791,2.585,0.097334,0,0,0,0
312.07,1.482,2.586,0.097516,0,0,0,0
312.57,1.4851,2.587,0.097942,0,0,0,0
313.07,1.4879,2.588,0.097972,0,0,0,0
313.57,1.491,2.589,0.098277,0,0,0,0
314.07,1.4936,2.5897,0.098611,0,0,0,0
314.57,1.4963,2.5903,0.098733,0,0,0,0
315.07,1.4991,2.5913,0.099007,0,0,0,0
315.57,1.5021,2.5924,0.099311,0,0,0,0
316.07,1.5051,2.5933,0.099493,0,0,0,0
316.57,1.5075,2.594,0.099706,0,0,0,0
317.07,1.5106,2.595,0.099919,0,0,0,0
317.57,1.5136,2.596,0.10016,0,0,0,0
318.07,1.5167,2.597,0.10031,0,0,0,0
318.57,1.5198,2.598,0.10083,0,0,0,0
319.07,1.5236,2.599,0.1011,0,0,0,0
319.57,1.5253,2.5997,0.10119,0,0,0,0
320.07,1.529,2.6003,0.1015,0,0,0,0
320.57,1.5313,2.601,0.10159,0,0,0,0
321.07,1.5341,2.602,0.10204,0,0,0,0
321.57,1.5368,2.603,0.1021,0,0,0,0
322.07,1.5391,2.604,0.10223,0,0,0,0
322.57,1.5425,2.605,0.10241,0,0,0,0
323.07,1.5458,2.606,0.10274,0,0,0,0
323.57,1.5486,2.6067,0.10295,0,0,0,0
324.07,1.551,2.6073,0.10322,0,0,0,0
324.57,1.5541,2.608,0.10362,0,0,0,0
325.07,1.5567,2.609,0.10392,0,0,0,0
325.57,1.5596,2.61,0.10407,0,0,0,0
326.07,1.5625,2.6107,0.10441,0,0,0,0
326.57,1.5651,2.6113,0.10459,0,0,0,0
327.07,1.5682,2.612,0.10495,0,0,0,0
327.57,1.5711,2.613,0.10522,0,0,0,0
328.07,1.574,2.614,0.10552,0,0,0,0
328.57,1.5771,2.615,0.10561,0,0,0,0
329.07,1.5801,2.616,0.10589,0,0,0,0
329.57,1.5831,2.6167,0.10622,0,0,0,0
330.07,1.5858,2.6173,0.10634,0,0,0,0
330.57,1.5888,2.618,0.10643,0,0,0,0
331.07,1.5917,2.619,0.10697,0,0,0,0
331.57,1.5942,2.62,0.10706,0,0,0,0
332.07,1.5971,2.621,0.10727,0,0,0,0
332.57,1.6001,2.6217,0.10746,0,0,0,0
333.07,1.6031,2.6223,0.10782,0,0,0,0
333.57,1.6059,2.623,0.108,0,0,0,0
334.07,1.6091,2.6237,0.10839,0,0,0,0
334.57,1.6121,2.6243,0.10857,0,0,0,0
335.07,1.615,2.625,0.10887,0,0,0,0
335.57,1.6177,2.626,0.10923,0,0,0,0
336.07,1.6205,2.627,0.10938,0,0,0,0
336.57,1.6232,2.628,0.10974,0,0,0,0
337.07,1.6262,2.6287,0.10992,0,0,0,0
337.57,1.6288,2.6293,0.11032,0,0,0,0
338.07,1.632,2.63,0.11056,0,0,0,0
338.57,1.6348,2.631,0.11062,0,0,0,0
339.07,1.6377,2.6317,0.11086,0,0,0,0
339.57,1.6408,2.6323,0.11119,0,0,0,0
340.07,1.6438,2.633,0.11143,0,0,0,0
340.57,1.6466,2.634,0.1117,0,0,0,0
341.07,1.6495,2.635,0.11179,0,0,0,0
341.57,1.6523,2.636,0.11209,0,0,0,0
342.07,1.6553,2.6367,0.11239,0,0,0,0
342.57,1.6579,2.6373,0.11275,0,0,0,0
343.07,1.6608,2.6377,0.11314,0,0,0,0
343.57,1.6637,2.6383,0.11323,0,0,0,0
344.07,1.6668,2.639,0.11362,0,0,0,0
344.57,1.6696,2.64,0.11386,0,0,0,0
345.07,1.6726,2.641,0.11416,0,0,0,0
345.57,1.6756,2.6417,0.11437,0,0,0,0
346.07,1.6786,2.6423,0.11476,0,0,0,0
346.57,1.6816,2.6427,0.11493,0,0,0,0
347.07,1.6843,2.6433,0.11532,0,0,0,0
347.57,1.687,2.644,0.11538,0,0,0,0
348.07,1.6899,2.645,0.1158,0,0,0,0
348.57,1.693,2.646,0.11607,0,0,0,0
349.07,1.6961,2.647,0.11631,0,0,0,0
349.57,1.699,2.6477,0.11655,0,0,0,0
350.07,1.7021,2.6483,0.11685,0,0,0,0
350.57,1.705,2.6487,0.11718,0,0,0,0
351.07,1.7081,2.6493,0.11756,0,0,0,0
351.57,1.711,2.6497,0.11768,0,0,0,0
352.07,1.7137,2.6506,0.11801,0,0,0,0
352.57,1.7167,2.6514,0.11846,0,0,0,0
353.07,1.7194,2.6523,0.1187,0,0,0,0
353.57,1.7223,2.653,0.11897,0,0,0,0
354.07,1.7254,2.6537,0.11921,0,0,0,0
354.57,1.7283,2.6543,0.1195,0,0,0,0
355.07,1.7314,2.655,0.1198,0,0,0,0
355.57,1.7345,2.6557,0.12004,0,0,0,0
356.07,1.7374,2.6563,0.12049,0,0,0,0
356.57,1.7405,2.657,0.12072,0,0,0,0
357.07,1.7433,2.658,0.12099,0,0,0,0
357.57,1.7463,2.6587,0.12141,0,0,0,0
358.07,1.7492,2.6593,0.12147,0,0,0,0
358.57,1.7521,2.66,0.122,0,0,0,0
359.07,1.755,2.6607,0.12227,0,0,0,0
359.57,1.7581,2.661,0.12263,0,0,0,0
360.07,1.7611,2.6613,0.12295,0,0,0,0
360.57,1.7643,2.662,0.12313,0,0,0,0
361.07,1.7675,2.663,0.1234,0,0,0,0
361.57,1.7703,2.6637,0.12384,0,0,0,0
362.07,1.773,2.6643,0.12408,0,0,0,0
362.57,1.7761,2.665,0.12423,0,0,0,0
363.07,1.7788,2.666,0.1247,0,0,0,0
363.57,1.782,2.6667,0.12485,0,0,0,0
364.07,1.785,2.6673,0.12535,0,0,0,0
364.57,1.7879,2.6677,0.12559,0,0,0,0
365.07,1.7911,2.6683,0.12586,0,0,0,0
365.57,1.794,2.669,0.12615,0,0,0,0
366.07,1.7972,2.6697,0.1266,0,0,0,0
366.57,1.8001,2.6703,0.12701,0,0,0,0
367.07,1.8029,2.671,0.12698,0,0,0,0
367.57,1.8058,2.6717,0.1274,0,0,0,0
368.07,1.8089,2.6723,0.12763,0,0,0,0
368.57,1.8118,2.673,0.12805,0,0,0,0
369.07,1.8149,2.6737,0.12843,0,0,0,0
369.57,1.818,2.6743,0.12875,0,0,0,0
370.07,1.821,2.6747,0.12893,0,0,0,0
370.57,1.8239,2.6753,0.12917,0,0,0,0
371.07,1.8269,2.676,0.12967,0,0,0,0
371.57,1.8298,2.6767,0.12988,0,0,0,0
372.07,1.8329,2.6773,0.13029,0,0,0,0
372.57,1.8359,2.6777,0.13055,0,0,0,0
373.07,1.8387,2.6783,0.13088,0,0,0,0
373.57,1.8416,2.679,0.13111,0,0,0,0
374.07,1.8447,2.6797,0.13153,0,0,0,0
374.57,1.8477,2.6803,0.13188,0,0,0,0
375.07,1.8508,2.6807,0.13226,0,0,0,0
375.57,1.8537,2.6813,0.1325,0,0,0,0
376.07,1.8568,2.682,0.13291,0,0,0,0
376.57,1.8599,2.6827,0.13332,0,0,0,0
377.07,1.8628,2.6833,0.13344,0,0,0,0
377.57,1.866,2.6837,0.13379,0,0,0,0
378.07,1.869,2.684,0.13411,0,0,0,0
378.57,1.8719,2.6843,0.13441,0,0,0,0
379.07,1.8749,2.685,0.13482,0,0,0,0
379.57,1.8778,2.6857,0.13514,0,0,0,0
380.07,1.8805,2.6863,0.13546,0,0,0,0
380.57,1.8835,2.6867,0.13581,0,0,0,0
381.07,1.8866,2.6873,0.13622,0,0,0,0
381.57,1.8897,2.688,0.13646,0,0,0,0
382.07,1.8927,2.6887,0.13681,0,0,0,0
382.57,1.8958,2.6893,0.13722,0,0,0,0
383.07,1.8987,2.6897,0.13751,0,0,0,0
383.57,1.9016,2.6903,0.13783,0,0,0,0
384.07,1.9044,2.6907,0.13816,0,0,0,0
384.57,1.9074,2.6913,0.13862,0,0,0,0
385.07,1.9106,2.6917,0.139,0,0,0,0
385.57,1.9135,2.6923,0.13924,0,0,0,0
386.07,1.9168,2.6927,0.13967,0,0,0,0
386.57,1.9196,2.6933,0.14003,0,0,0,0
387.07,1.9226,2.6937,0.14061,0,0,0,0
387.57,1.9258,2.6943,0.14075,0,0,0,0
388.07,1.9287,2.6947,0.14105,0,0,0,0
388.57,1.9316,2.6953,0.1414,0,0,0,0
389.07,1.9344,2.6957,0.14177,0,0,0,0
389.57,1.9375,2.6963,0.14227,0,0,0,0
390.07,1.9404,2.697,0.14265,0,0,0,0
390.57,1.9434,2.6977,0.14285,0,0,0,0
391.07,1.9465,2.698,0.14343,0,0,0,0
391.57,1.9494,2.6983,0.14384,0,0,0,0
392.07,1.9528,2.699,0.14422,0,0,0,0
392.57,1.9559,2.6997,0.14466,0,0,0,0
393.07,1.9589,2.7,0.14506,0,0,0,0
393.57,1.9622,2.7003,0.14527,0,0,0,0
394.07,1.9651,2.7007,0.14579,0,0,0,0
394.57,1.968,2.701,0.14608,0,0,0,0
395.07,1.9708,2.7013,0.1466,0,0,0,0
395.57,1.9736,2.7017,0.14701,0,0,0,0
396.07,1.9767,2.7023,0.14732,0,0,0,0
396.57,1.9799,2.7027,0.14776,0,0,0,0
397.07,1.983,2.7033,0.14828,0,0,0,0
397.57,1.9861,2.7037,0.14857,0,0,0,0
398.07,1.9893,2.7043,0.14892,0,0,0,0
398.57,1.9924,2.7047,0.14926,0,0,0,0
399.07,1.9951,2.7053,0.14973,0,0,0,0
399.57,1.9981,2.7057,0.15019,0,0,0,0
400.07,2.0012,2.7063,0.15056,0,0,0,0
400.57,2.0041,2.7067,0.15111,0,0,0,0
401.07,2.0071,2.7073,0.15143,0,0,0,0
401.57,2.0102,2.7077,0.15192,0,0,0,0
402.07,2.0132,2.708,0.15221,0,0,0,0
402.57,2.0166,2.7083,0.1527,0,0,0,0
403.07,2.0197,2.7087,0.15316,0,0,0,0
403.57,2.0228,2.7093,0.15351,0,0,0,0
404.07,2.0258,2.7097,0.15405,0,0,0,0
404.57,2.0289,2.7103,0.15437,0,0,0,0
405.07,2.032,2.7107,0.15497,0,0,0,0
405.57,2.0349,2.711,0.15535,0,0,0,0
406.07,2.0378,2.7113,0.15581,0,0,0,0
406.57,2.041,2.7117,0.15618,0,0,0,0
407.07,2.0441,2.712,0.1565,0,0,0,0
407.57,2.0473,2.7123,0.1571,0,0,0,0
408.07,2.0506,2.7127,0.15747,0,0,0,0
408.57,2.0536,2.7133,0.15784,0,0,0,0
409.07,2.0567,2.7137,0.1581,0,0,0,0
409.57,2.0599,2.714,0.15888,0,0,0,0
410.07,2.0627,2.7143,0.15928,0,0,0,0
410.57,2.0657,2.7147,0.15959,0,0,0,0
411.07,2.0692,2.7153,0.16016,0,0,0,0
411.57,2.072,2.7157,0.16048,0,0,0,0
412.07,2.0749,2.716,0.16108,0,0,0,0
412.57,2.0782,2.7163,0.16148,0,0,0,0
413.07,2.0814,2.7167,0.16205,0,0,0,0
413.57,2.0847,2.717,0.16251,0,0,0,0
414.07,2.0879,2.7173,0.1631,0,0,0,0
414.57,2.0909,2.7177,0.16353,0,0,0,0
415.07,2.094,2.718,0.16402,0,0,0,0
415.57,2.0969,2.718,0.16456,0,0,0,0
416.07,2.0998,2.7183,0.16482,0,0,0,0
416.57,2.1028,2.7187,0.16553,0,0,0,0
417.07,2.1063,2.7193,0.16581,0,0,0,0
417.57,2.1093,2.7197,0.16641,0,0,0,0
418.07,2.1125,2.72,0.16672,0,0,0,0
418.57,2.1156,2.72,0.16729,0,0,0,0
419.07,2.119,2.7203,0.16771,0,0,0,0
419.57,2.122,2.7207,0.16828,0,0,0,0
420.07,2.1251,2.721,0.16885,0,0,0,0
420.57,2.1282,2.721,0.16939,0,0,0,0
421.07,2.1309,2.7213,0.16998,0,0,0,0
421.57,2.1342,2.7217,0.17046,0,0,0,0
422.07,2.1375,2.722,0.17106,0,0,0,0
422.57,2.1403,2.7223,0.1716,0,0,0,0
423.07,2.1435,2.7227,0.17196,0,0,0,0
423.57,2.1469,2.723,0.17259,0,0,0,0
424.07,2.1499,2.7233,0.17312,0,0,0,0
424.57,2.1529,2.7237,0.17391,0,0,0,0
425.07,2.1564,2.724,0.17417,0,0,0,0
425.57,2.1593,2.724,0.17482,0,0,0,0
426.07,2.1624,2.724,0.17535,0,0,0,0
426.57,2.1656,2.7243,0.17591,0,0,0,0
427.07,2.1686,2.7247,0.17659,0,0,0,0
427.57,2.1718,2.725,0.17698,0,0,0,0
428.07,2.1752,2.7253,0.1776,0,0,0,0
428.57,2.1783,2.7257,0.17825,0,0,0,0
429.07,2.1816,2.726,0.17887,0,0,0,0
429.57,2.1849,2.726,0.17945,0,0,0,0
430.07,2.188,2.726,0.1799,0,0,0,0
430.57,2.191,2.7263,0.18058,0,0,0,0
431.07,2.1941,2.7267,0.18131,0,0,0,0
431.57,2.1973,2.727,0.18181,0,0,0,0
432.07,2.2004,2.727,0.18242,0,0,0,0
432.57,2.2033,2.727,0.18304,0,0,0,0
433.07,2.2068,2.7273,0.18363,0,0,0,0
433.57,2.21,2.7277,0.1843,0,0,0,0
434.07,2.2133,2.728,0.18508,0,0,0,0
434.57,2.2164,2.728,0.18569,0,0,0,0
435.07,2.2197,2.728,0.18647,0,0,0,0
435.57,2.2228,2.728,0.18703,0,0,0,0
436.07,2.2261,2.728,0.18781,0,0,0,0
436.57,2.229,2.728,0.18842,0,0,0,0
437.07,2.2322,2.728,0.18923,0,0,0,0
437.57,2.2354,2.728,0.19,0,0,0,0
438.07,2.2388,2.7283,0.19039,0,0,0,0
438.57,2.242,2.7287,0.19109,0,0,0,0
439.07,2.2453,2.729,0.1917,0,0,0,0
439.57,2.2486,2.729,0.19247,0,0,0,0
440.07,2.2519,2.7287,0.19305,0,0,0,0
440.57,2.255,2.7286,0.19372,0,0,0,0
441.07,2.2582,2.7287,0.19452,0,0,0,0
441.57,2.2613,2.7293,0.19521,0,0,0,0
442.07,2.2646,2.7294,0.19582,0,0,0,0
442.57,2.2676,2.7293,0.19665,0,0,0,0
443.07,2.2708,2.729,0.19747,0,0,0,0
443.57,2.2741,2.7293,0.19816,0,0,0,0
444.07,2.2774,2.7297,0.19896,0,0,0,0
444.57,2.2807,2.7297,0.19989,0,0,0,0
445.07,2.2842,2.7293,0.20047,0,0,0,0
445.57,2.2873,2.7293,0.2013,0,0,0,0
446.07,2.2904,2.7297,0.20215,0,0,0,0
446.57,2.2935,2.73,0.20278,0,0,0,0
447.07,2.2967,2.73,0.20363,0,0,0,0
447.57,2.2999,2.73,0.20442,0,0,0,0
448.07,2.303,2.7297,0.20516,0,0,0,0
448.57,2.3063,2.7296,0.20598,0,0,0,0
449.07,2.3096,2.7297,0.20683,0,0,0,0
449.57,2.3129,2.73,0.20767,0,0,0,0
450.07,2.316,2.73,0.20857,0,0,0,0
450.57,2.3195,2.7297,0.2095,0,0,0,0
451.07,2.3228,2.7293,0.21026,0,0,0,0
451.57,2.326,2.729,0.21113,0,0,0,0
452.07,2.3289,2.729,0.212,0,0,0,0
452.57,2.3322,2.729,0.21287,0,0,0,0
453.07,2.3355,2.729,0.21384,0,0,0,0
453.57,2.3387,2.729,0.21482,0,0,0,0
454.07,2.3419,2.729,0.21577,0,0,0,0
454.57,2.3454,2.7287,0.21655,0,0,0,0
455.07,2.3486,2.7283,0.21755,0,0,0,0
455.57,2.3517,2.728,0.21852,0,0,0,0
456.07,2.3552,2.728,0.21936,0,0,0,0
456.57,2.3582,2.728,0.22036,0,0,0,0
457.07,2.3613,2.728,0.22124,0,0,0,0
457.57,2.3646,2.728,0.22213,0,0,0,0
458.07,2.3679,2.7277,0.22318,0,0,0,0
458.57,2.3709,2.7273,0.22425,0,0,0,0
459.07,2.3745,2.727,0.22535,0,0,0,0
459.57,2.3778,2.727,0.22624,0,0,0,0
460.07,2.3812,2.7267,0.22731,0,0,0,0
460.57,2.3844,2.7263,0.22846,0,0,0,0
461.07,2.3879,2.726,0.22966,0,0,0,0
461.57,2.391,2.7257,0.23051,0,0,0,0
462.07,2.3943,2.7253,0.23163,0,0,0,0
462.57,2.3973,2.725,0.23272,0,0,0,0
463.07,2.4006,2.7247,0.23379,0,0,0,0
463.57,2.404,2.7243,0.23495,0,0,0,0
464.07,2.4073,2.7237,0.23604,0,0,0,0
464.57,2.4107,2.7233,0.23715,0,0,0,0
465.07,2.414,2.723,0.23829,0,0,0,0
465.57,2.4175,2.7227,0.23948,0,0,0,0
466.07,2.4207,2.7223,0.24078,0,0,0,0
466.57,2.4238,2.722,0.2418,0,0,0,0
467.07,2.4272,2.7217,0.24302,0,0,0,0
467.57,2.4302,2.7213,0.24425,0,0,0,0
468.07,2.4336,2.7207,0.24544,0,0,0,0
468.57,2.4369,2.7203,0.24662,0,0,0,0
469.07,2.4403,2.7197,0.24772,0,0,0,0
469.57,2.4437,2.719,0.24908,0,0,0,0
470.07,2.4471,2.7183,0.25044,0,0,0,0
470.57,2.4503,2.7177,0.25164,0,0,0,0
471.07,2.4539,2.7173,0.25302,0,0,0,0
471.57,2.457,2.7164,0.2544,0,0,0,0
472.07,2.4604,2.7156,0.25571,0,0,0,0
472.57,2.4637,2.715,0.25708,0,0,0,0
473.07,2.4669,2.7147,0.25851,0,0,0,0
473.57,2.4703,2.714,0.26001,0,0,0,0
474.07,2.4735,2.713,0.26143,0,0,0,0
474.57,2.477,2.712,0.2628,0,0,0,0
475.07,2.4808,2.711,0.2642,0,0,0,0
475.57,2.4839,2.7103,0.26556,0,0,0,0
476.07,2.4875,2.7097,0.267,0,0,0,0
476.57,2.4906,2.709,0.26852,0,0,0,0
477.07,2.4941,2.708,0.2699,0,0,0,0
477.57,2.4972,2.707,0.27149,0,0,0,0
478.07,2.5007,2.706,0.27297,0,0,0,0
478.57,2.5041,2.705,0.27461,0,0,0,0
479.07,2.5076,2.704,0.27616,0,0,0,0
479.57,2.5111,2.703,0.27769,0,0,0,0
480.07,2.5147,2.702,0.27921,0,0,0,0
480.57,2.518,2.701,0.28046,0,0,0,0
481.07,2.5215,2.7,0.28216,0,0,0,0
481.57,2.5249,2.699,0.28377,0,0,0,0
482.07,2.5282,2.6977,0.28529,0,0,0,0
482.57,2.5314,2.6963,0.28703,0,0,0,0
483.07,2.535,2.695,0.28869,0,0,0,0
483.57,2.5383,2.6937,0.29033,0,0,0,0
484.07,2.5419,2.6923,0.29201,0,0,0,0
484.57,2.5454,2.6907,0.29376,0,0,0,0
485.07,2.549,2.6893,0.29541,0,0,0,0
485.57,2.5526,2.688,0.29718,0,0,0,0
486.07,2.5559,2.6867,0.29878,0,0,0,0
486.57,2.5593,2.685,0.30049,0,0,0,0
487.07,2.5628,2.683,0.30218,0,0,0,0
487.57,2.5661,2.6813,0.30392,0,0,0,0
488.07,2.5695,2.6797,0.30568,0,0,0,0
488.57,2.573,2.6783,0.30738,0,0,0,0
489.07,2.5764,2.6767,0.30921,0,0,0,0
489.57,2.5799,2.675,0.31098,0,0,0,0
490.07,2.5838,2.673,0.3128,0,0,0,0
490.57,2.5871,2.6713,0.31447,0,0,0,0
491.07,2.5905,2.6697,0.31635,0,0,0,0
491.57,2.5938,2.6677,0.31821,0,0,0,0
492.07,2.5972,2.6653,0.31997,0,0,0,0
492.57,2.6006,2.6633,0.32167,0,0,0,0
493.07,2.6041,2.6614,0.32349,0,0,0,0
493.57,2.6075,2.6593,0.32529,0,0,0,0
494.07,2.6112,2.657,0.32728,0,0,0,0
494.57,2.6149,2.655,0.32916,0,0,0,0
495.07,2.6185,2.6527,0.33102,0,0,0,0
495.57,2.6221,2.6503,0.33293,0,0,0,0
496.07,2.6255,2.6477,0.33504,0,0,0,0
496.57,2.6288,2.6453,0.33698,0,0,0,0
497.07,2.6325,2.643,0.33907,0,0,0,0
497.57,2.636,2.6407,0.34098,0,0,0,0
498.07,2.6394,2.638,0.34284,0,0,0,0
498.57,2.6431,2.635,0.34467,0,0,0,0
499.07,2.6466,2.6323,0.34676,0,0,0,0
499.57,2.6503,2.6297,0.34859,0,0,0,0
500.07,2.6539,2.627,0.35069,0,0,0,0
500.57,2.6578,2.624,0.35275,0,0,0,0
501.07,2.661,2.621,0.35473,0,0,0,0
501.57,2.6646,2.618,0.35682,0,0,0,0
502.07,2.6683,2.615,0.35891,0,0,0,0
502.57,2.6717,2.612,0.36111,0,0,0,0
503.07,2.6752,2.6087,0.36324,0,0,0,0
503.57,2.6791,2.6053,0.3652,0,0,0,0
504.07,2.6827,2.6017,0.36722,0,0,0,0
504.57,2.6863,2.5983,0.36925,0,0,0,0
505.07,2.69,2.5947,0.37129,0,0,0,0
505.57,2.6939,2.5913,0.37321,0,0,0,0
506.07,2.6973,2.5877,0.37528,0,0,0,0
506.57,2.7009,2.584,0.37747,0,0,0,0
507.07,2.7044,2.5803,0.37963,0,0,0,0
507.57,2.7079,2.5767,0.38195,0,0,0,0
508.07,2.7113,2.573,0.3839,0,0,0,0
508.57,2.7152,2.569,0.38602,0,0,0,0
509.07,2.7194,2.565,0.38803,0,0,0,0
509.57,2.7226,2.5607,0.39021,0,0,0,0
510.07,2.7264,2.5563,0.39241,0,0,0,0
510.57,2.7302,2.552,0.39447,0,0,0,0
511.07,2.7336,2.5477,0.39694,0,0,0,0
511.57,2.7373,2.5433,0.39908,0,0,0,0
512.07,2.741,2.5387,0.40158,0,0,0,0
512.57,2.7448,2.534,0.40393,0,0,0,0
513.07,2.7485,2.529,0.40615,0,0,0,0
513.57,2.7521,2.524,0.40854,0,0,0,0
514.07,2.756,2.5193,0.4109,0,0,0,0
514.57,2.7599,2.5144,0.41328,0,0,0,0
515.07,2.7639,2.5093,0.41579,0,0,0,0
515.57,2.7673,2.5037,0.41824,0,0,0,0
516.07,2.771,2.4983,0.42087,0,0,0,0
516.57,2.7746,2.4924,0.42336,0,0,0,0
517.07,2.7784,2.4863,0.42588,0,0,0,0
517.57,2.7823,2.48,0.42855,0,0,0,0
518.07,2.7861,2.474,0.43096,0,0,0,0
518.57,2.7902,2.4674,0.43372,0,0,0,0
519.07,2.7944,2.4606,0.43635,0,0,0,0
519.57,2.7983,2.4534,0.43939,0,0,0,0
520.07,2.8025,2.4446,0.44278,0,0,0,0
520.57,2.807,2.4304,0.44717,0,0,0,0