File: lab_data/AA6014-T4_results/DATA/NT20_90_1.csv
Time[s],Displacement[mm],Force[kN],AxStrain_1,AxStrain_2,Thickness[mm],OuterWidth[mm],InnerWidth[mm]
0.61,0,-0.0057948,0,0,1.1118,20,10.053
1.11,0.000292,0.002599,-4.3001e-05,0,0,0,0
1.61,0.000778,0.012726,7.8997e-05,0,0,0,0
2.11,0.001561,0.034568,-2e-06,0,0,0,0
2.61,0.001707,0.061145,7.1997e-05,0,0,0,0
3.11,0.00232,0.085423,2.2e-05,0,0,0,0
3.61,0.002587,0.10442,0.00018698,0,0,0,0
4.11,0.002876,0.11958,9.9995e-05,0,0,0,0
4.61,0.003195,0.13657,3.4999e-05,0,0,0,0
5.11,0.003649,0.15442,0.00014499,0,0,0,0
5.61,0.003937,0.17158,0.00021598,0,0,0,0
6.11,0.004293,0.18857,0.00021198,0,0,0,0
6.61,0.004344,0.20371,0.00023397,0,0,0,0
7.11,0.004668,0.21457,0.00022997,0,0,0,0
7.61,0.004738,0.22457,0.00019398,0,0,0,0
8.11,0.005276,0.23629,0.00027296,0,0,0,0
8.61,0.005416,0.24986,0.00030295,0,0,0,0
9.11,0.005789,0.265,0.00024997,0,0,0,0
9.61,0.005987,0.28014,0.00029496,0,0,0,0
10.11,0.006415,0.294,0.0004429,0,0,0,0
10.61,0.006772,0.30786,0.00029196,0,0,0,0
11.11,0.007078,0.32214,0.00041591,0,0,0,0
11.61,0.007973,0.33686,0.00046689,0,0,0,0
12.11,0.008176,0.35085,0.00032795,0,0,0,0
12.61,0.008617,0.36429,0.00042791,0,0,0,0
13.11,0.009043,0.37815,0.00050387,0,0,0,0
13.61,0.009592,0.39371,0.0004499,0,0,0,0
14.11,0.009873,0.40828,0.00022198,0,0,0,0
14.61,0.010288,0.422,0.0004429,0,0,0,0
15.11,0.010632,0.437,0.00049388,0,0,0,0
15.61,0.010679,0.45285,0.00050387,0,0,0,0
16.11,0.010988,0.46815,0.00048288,0,0,0,0
16.61,0.011079,0.48314,0.00041291,0,0,0,0
17.11,0.01122,0.498,0.00047988,0,0,0,0
17.61,0.011868,0.51286,0.00041591,0,0,0,0
18.11,0.012109,0.529,0.00060082,0,0,0,0
18.61,0.012308,0.54514,0.00047289,0,0,0,0
19.11,0.012643,0.56,0.00046689,0,0,0,0
19.61,0.012556,0.57486,0.00033894,0,0,0,0
20.11,0.013426,0.59014,0.00053386,0,0,0,0
20.61,0.013916,0.60586,0.00058383,0,0,0,0
21.11,0.014194,0.62114,0.00050387,0,0,0,0
21.61,0.015047,0.63629,0.00058383,0,0,0,0
22.11,0.015695,0.65157,0.00070475,0,0,0,0
22.61,0.016205,0.668,0.00062081,0,0,0,0
23.11,0.016484,0.68443,0.00055385,0,0,0,0
23.62,0.017773,0.69943,0.00057384,0,0,0,0
24.11,0.017676,0.71443,0.00074172,0,0,0,0
24.61,0.017917,0.72985,0.00073873,0,0,0,0
25.11,0.018562,0.74586,0.00059782,0,0,0,0
25.61,0.018579,0.76143,0.00062081,0,0,0,0
26.11,0.019089,0.77643,0.00062381,0,0,0,0
26.61,0.019512,0.79143,0.00061781,0,0,0,0
27.11,0.019915,0.80771,0.00079868,0,0,0,0
27.61,0.019841,0.82414,0.00064779,0,0,0,0
28.11,0.020268,0.839,0.00074872,0,0,0,0
28.61,0.020959,0.85415,0.00060382,0,0,0,0
29.11,0.02107,0.86957,0.00075472,0,0,0,0
29.61,0.021221,0.88543,0.00095954,0,0,0,0
30.11,0.021594,0.90085,0.00087562,0,0,0,0
30.61,0.022225,0.916,0.00080867,0,0,0,0
31.11,0.022769,0.93086,0.00081167,0,0,0,0
31.61,0.023336,0.947,0.00098651,0,0,0,0
32.11,0.02345,0.96314,0.00093956,0,0,0,0
32.62,0.024484,0.978,0.0010465,0,0,0,0
33.11,0.024666,0.99286,0.00080568,0,0,0,0
33.61,0.025347,1.0079,0.00087961,0,0,0,0
34.11,0.025945,1.0231,0.0010504,0,0,0,0
34.61,0.026646,1.0381,0.00095654,0,0,0,0
35.11,0.026871,1.0527,0.00096953,0,0,0,0
35.61,0.027459,1.0671,0.00098951,0,0,0,0
36.11,0.027808,1.0827,0.0010065,0,0,0,0
36.61,0.028348,1.0984,0.00094256,0,0,0,0
37.12,0.028704,1.1127,0.00093956,0,0,0,0
37.61,0.029107,1.1271,0.0010235,0,0,0,0
38.11,0.029329,1.1419,0.0010774,0,0,0,0
38.61,0.030064,1.1569,0.0010734,0,0,0,0
39.11,0.030635,1.1711,0.0011443,0,0,0,0
39.61,0.030893,1.185,0.0011673,0,0,0,0
40.11,0.031283,1.1989,0.0011403,0,0,0,0
40.61,0.032028,1.214,0.0010774,0,0,0,0
41.11,0.032364,1.2291,0.0012312,0,0,0,0
41.61,0.033257,1.243,0.0011304,0,0,0,0
42.11,0.033955,1.2563,0.001402,0,0,0,0
42.61,0.03469,1.2694,0.0012782,0,0,0,0
43.11,0.035419,1.2829,0.0013621,0,0,0,0
43.61,0.036043,1.2959,0.0015897,0,0,0,0
44.11,0.036775,1.308,0.0016307,0,0,0,0
44.61,0.037698,1.3196,0.0018213,0,0,0,0
45.11,0.038732,1.3311,0.0020389,0,0,0,0
45.61,0.039998,1.3411,0.0022505,0,0,0,0
46.11,0.041277,1.349,0.0025847,0,0,0,0
46.61,0.043026,1.356,0.0032746,0,0,0,0
47.11,0.044648,1.363,0.0037201,0,0,0,0
47.61,0.046545,1.37,0.0039572,0,0,0,0
48.11,0.048358,1.377,0.0041145,0,0,0,0
48.61,0.050412,1.3837,0.0045257,0,0,0,0
49.11,0.052665,1.3906,0.0045048,0,0,0,0
49.61,0.054706,1.3977,0.0049099,0,0,0,0
50.11,0.056586,1.4047,0.0049597,0,0,0,0
50.62,0.059007,1.4107,0.0050562,0,0,0,0
51.11,0.061098,1.4169,0.0054611,0,0,0,0
51.61,0.063153,1.4231,0.0055207,0,0,0,0
52.11,0.065208,1.4296,0.0058678,0,0,0,0
52.61,0.067299,1.4354,0.0061053,0,0,0,0
53.11,0.069136,1.441,0.0063955,0,0,0,0
53.61,0.07112,1.4466,0.0065356,0,0,0,0
54.11,0.073131,1.4524,0.0069418,0,0,0,0
54.61,0.075444,1.4583,0.0071921,0,0,0,0
55.11,0.077767,1.4634,0.0075256,0,0,0,0
55.61,0.080366,1.4686,0.0079682,0,0,0,0
56.11,0.082766,1.4737,0.0081418,0,0,0,0
56.61,0.085277,1.4793,0.0084909,0,0,0,0
57.11,0.087523,1.4844,0.0088012,0,0,0,0
57.61,0.089652,1.4893,0.0089806,0,0,0,0
58.11,0.091807,1.494,0.0091669,0,0,0,0
58.61,0.094214,1.4993,0.0093502,0,0,0,0
59.11,0.096685,1.5044,0.0094997,0,0,0,0
59.61,0.098672,1.509,0.0095126,0,0,0,0
60.11,0.10095,1.5136,0.0096453,0,0,0,0
60.61,0.10312,1.5184,0.0095562,0,0,0,0
61.11,0.10567,1.5233,0.009882,0,0,0,0
61.61,0.10829,1.5277,0.0097889,0,0,0,0
62.11,0.11084,1.532,0.010061,0,0,0,0
62.61,0.11367,1.5363,0.010394,0,0,0,0
63.11,0.11613,1.541,0.01057,0,0,0,0
63.61,0.1183,1.5457,0.010898,0,0,0,0
64.11,0.12076,1.55,0.011087,0,0,0,0
64.61,0.12325,1.554,0.011433,0,0,0,0
65.11,0.12554,1.558,0.011831,0,0,0,0
65.61,0.12792,1.5623,0.012116,0,0,0,0
66.11,0.12999,1.5664,0.012358,0,0,0,0
66.61,0.13257,1.5703,0.012666,0,0,0,0
67.11,0.13527,1.5743,0.012972,0,0,0,0
67.61,0.13768,1.5787,0.013286,0,0,0,0
68.11,0.14012,1.583,0.013399,0,0,0,0
68.61,0.14313,1.587,0.013486,0,0,0,0
69.11,0.14569,1.5913,0.013601,0,0,0,0
69.61,0.14791,1.5954,0.013767,0,0,0,0
70.11,0.15025,1.5993,0.013654,0,0,0,0
70.61,0.15287,1.6027,0.01376,0,0,0,0
71.11,0.15453,1.6063,0.013906,0,0,0,0
71.61,0.15734,1.61,0.014002,0,0,0,0
72.11,0.1597,1.614,0.014135,0,0,0,0
72.61,0.16253,1.6177,0.01425,0,0,0,0
73.11,0.165,1.6213,0.014353,0,0,0,0
73.61,0.16785,1.6253,0.014654,0,0,0,0
74.11,0.17034,1.6294,0.01473,0,0,0,0
74.61,0.17323,1.6333,0.0151,0,0,0,0
75.11,0.17572,1.6367,0.015454,0,0,0,0
75.61,0.17824,1.6403,0.015765,0,0,0,0
76.11,0.18067,1.644,0.015987,0,0,0,0
76.61,0.1832,1.648,0.016432,0,0,0,0
77.11,0.18555,1.6517,0.01661,0,0,0,0
77.61,0.18816,1.655,0.016924,0,0,0,0
78.11,0.1906,1.6583,0.016951,0,0,0,0
78.61,0.19323,1.6617,0.017238,0,0,0,0
79.11,0.19616,1.6653,0.017225,0,0,0,0
79.61,0.19879,1.6687,0.017419,0,0,0,0
80.11,0.20157,1.672,0.0173,0,0,0,0
80.61,0.20422,1.6753,0.017471,0,0,0,0
81.11,0.20684,1.679,0.017466,0,0,0,0
81.61,0.20917,1.6824,0.017666,0,0,0,0
82.11,0.21159,1.6856,0.017729,0,0,0,0
82.61,0.2142,1.689,0.017881,0,0,0,0
83.11,0.21669,1.6927,0.017993,0,0,0,0
83.61,0.21935,1.6963,0.018138,0,0,0,0
84.11,0.22212,1.6997,0.018389,0,0,0,0
84.61,0.22491,1.703,0.018623,0,0,0,0
85.11,0.22774,1.706,0.018926,0,0,0,0
85.61,0.23046,1.7093,0.019202,0,0,0,0
86.11,0.23343,1.7127,0.019363,0,0,0,0
86.61,0.2362,1.716,0.019654,0,0,0,0
87.11,0.23879,1.7193,0.019923,0,0,0,0
87.61,0.24123,1.7224,0.0202,0,0,0,0
88.11,0.24377,1.7256,0.020226,0,0,0,0
88.61,0.24627,1.7287,0.020371,0,0,0,0
89.11,0.24892,1.732,0.020736,0,0,0,0
89.61,0.25159,1.735,0.020776,0,0,0,0
90.11,0.25444,1.7383,0.020834,0,0,0,0
90.61,0.25741,1.7417,0.020893,0,0,0,0
91.11,0.26035,1.7447,0.02116,0,0,0,0
91.61,0.26332,1.7476,0.021147,0,0,0,0
92.11,0.26599,1.7507,0.021278,0,0,0,0
92.61,0.26862,1.754,0.021357,0,0,0,0
93.11,0.27109,1.757,0.021486,0,0,0,0
93.61,0.2737,1.7597,0.021742,0,0,0,0
94.11,0.27638,1.7626,0.02181,0,0,0,0
94.61,0.27894,1.7657,0.0221,0,0,0,0
95.11,0.28184,1.769,0.022565,0,0,0,0
95.62,0.28457,1.772,0.022677,0,0,0,0
96.11,0.28737,1.775,0.022868,0,0,0,0
96.61,0.29044,1.778,0.022969,0,0,0,0
97.11,0.29336,1.781,0.023346,0,0,0,0
97.61,0.29604,1.784,0.023399,0,0,0,0
98.11,0.29879,1.7867,0.023602,0,0,0,0
98.61,0.30157,1.7896,0.023829,0,0,0,0
99.11,0.30401,1.7927,0.024049,0,0,0,0
99.61,0.30675,1.796,0.024264,0,0,0,0
100.11,0.30937,1.7987,0.024239,0,0,0,0
100.61,0.31225,1.8013,0.024514,0,0,0,0
101.11,0.3152,1.804,0.024628,0,0,0,0
101.61,0.31818,1.807,0.024677,0,0,0,0
102.11,0.32081,1.81,0.024857,0,0,0,0
102.61,0.32377,1.8127,0.025175,0,0,0,0
103.11,0.32646,1.8153,0.025342,0,0,0,0
103.61,0.3292,1.8183,0.025359,0,0,0,0
104.11,0.33194,1.8214,0.025519,0,0,0,0
104.61,0.33463,1.824,0.025745,0,0,0,0
105.11,0.33731,1.8266,0.025902,0,0,0,0
105.61,0.33999,1.8294,0.02616,0,0,0,0
106.11,0.34306,1.8323,0.02635,0,0,0,0
106.61,0.34609,1.8347,0.026425,0,0,0,0
107.11,0.34864,1.8373,0.026716,0,0,0,0
107.61,0.35176,1.84,0.02686,0,0,0,0
108.11,0.35467,1.843,0.027007,0,0,0,0
108.61,0.35771,1.8457,0.027281,0,0,0,0
109.11,0.36019,1.8483,0.027477,0,0,0,0
109.61,0.36287,1.851,0.027356,0,0,0,0
110.11,0.36538,1.8537,0.027663,0,0,0,0
110.61,0.36828,1.8563,0.027908,0,0,0,0
111.11,0.37092,1.8587,0.027938,0,0,0,0
111.61,0.37355,1.8613,0.028228,0,0,0,0
112.11,0.37651,1.864,0.028319,0,0,0,0
112.61,0.37939,1.8667,0.028587,0,0,0,0
113.11,0.38255,1.8693,0.028704,0,0,0,0
113.61,0.38552,1.8717,0.02892,0,0,0,0
114.11,0.38823,1.8743,0.029083,0,0,0,0
114.61,0.39098,1.8767,0.029278,0,0,0,0
115.11,0.39343,1.8793,0.029376,0,0,0,0
115.61,0.39615,1.8817,0.029506,0,0,0,0
116.11,0.3989,1.8843,0.029637,0,0,0,0
116.61,0.4017,1.887,0.029833,0,0,0,0
117.11,0.40447,1.8897,0.030028,0,0,0,0
117.61,0.40712,1.8923,0.030289,0,0,0,0
118.11,0.41008,1.8947,0.030289,0,0,0,0
118.61,0.4139,1.8973,0.030647,0,0,0,0
119.11,0.41718,1.8997,0.030745,0,0,0,0
119.61,0.4195,1.9023,0.030777,0,0,0,0
120.11,0.42219,1.9047,0.03094,0,0,0,0
120.61,0.42463,1.907,0.031265,0,0,0,0
121.11,0.42731,1.9093,0.031461,0,0,0,0
121.61,0.43006,1.9117,0.031558,0,0,0,0
122.11,0.43271,1.9143,0.031721,0,0,0,0
122.61,0.43553,1.9167,0.031689,0,0,0,0
123.11,0.43847,1.9193,0.031981,0,0,0,0
123.61,0.44157,1.9217,0.032209,0,0,0,0
124.11,0.44464,1.9243,0.032533,0,0,0,0
124.61,0.44737,1.9267,0.032468,0,0,0,0
125.11,0.45031,1.929,0.032858,0,0,0,0
125.61,0.45304,1.931,0.032956,0,0,0,0
126.11,0.45568,1.9333,0.033021,0,0,0,0
126.61,0.45858,1.9357,0.033248,0,0,0,0
127.11,0.46103,1.938,0.033346,0,0,0,0
127.61,0.46354,1.9403,0.033411,0,0,0,0
128.11,0.46657,1.9427,0.033573,0,0,0,0
128.61,0.46941,1.945,0.033832,0,0,0,0
129.11,0.4724,1.9473,0.03393,0,0,0,0
129.61,0.47548,1.9497,0.034157,0,0,0,0
130.11,0.4784,1.9523,0.034222,0,0,0,0
130.61,0.48138,1.9547,0.034384,0,0,0,0
131.11,0.4839,1.957,0.034546,0,0,0,0
131.61,0.48664,1.959,0.034903,0,0,0,0
132.11,0.48962,1.9613,0.035162,0,0,0,0
132.61,0.4922,1.9637,0.035162,0,0,0,0
133.11,0.49503,1.966,0.035454,0,0,0,0
133.61,0.49778,1.9683,0.035551,0,0,0,0
134.11,0.50061,1.9704,0.035681,0,0,0,0
134.61,0.50387,1.9726,0.035875,0,0,0,0
135.11,0.50699,1.9747,0.035972,0,0,0,0
135.61,0.5099,1.977,0.036199,0,0,0,0
136.11,0.51272,1.979,0.036328,0,0,0,0
136.61,0.51558,1.9813,0.036328,0,0,0,0
137.11,0.51825,1.9837,0.036652,0,0,0,0
137.61,0.52112,1.986,0.036814,0,0,0,0
138.11,0.52385,1.988,0.036847,0,0,0,0
138.61,0.52521,1.9903,0.037073,0,0,0,0
139.11,0.52824,1.9927,0.037331,0,0,0,0
139.61,0.53182,1.995,0.037526,0,0,0,0
140.11,0.53501,1.997,0.03772,0,0,0,0
140.61,0.53842,1.999,0.037817,0,0,0,0
141.11,0.54107,2.001,0.03801,0,0,0,0
141.61,0.54393,2.003,0.038108,0,0,0,0
142.11,0.54671,2.0053,0.038431,0,0,0,0
142.61,0.54975,2.0077,0.038495,0,0,0,0
143.11,0.55268,2.01,0.038786,0,0,0,0
143.61,0.55534,2.012,0.038818,0,0,0,0
144.11,0.55805,2.014,0.038818,0,0,0,0
144.61,0.56042,2.016,0.039141,0,0,0,0
145.11,0.56291,2.018,0.039302,0,0,0,0
145.61,0.56593,2.02,0.039593,0,0,0,0
146.11,0.5702,2.022,0.039464,0,0,0,0
146.61,0.57312,2.024,0.039561,0,0,0,0
147.11,0.57504,2.026,0.039883,0,0,0,0
147.61,0.57835,2.028,0.040077,0,0,0,0
148.11,0.58038,2.0303,0.040335,0,0,0,0
148.61,0.58335,2.0327,0.040335,0,0,0,0
149.11,0.58603,2.035,0.04056,0,0,0,0
149.61,0.58895,2.037,0.040915,0,0,0,0
150.11,0.59188,2.039,0.041141,0,0,0,0
150.61,0.59436,2.041,0.04098,0,0,0,0
151.11,0.59754,2.043,0.041302,0,0,0,0
151.61,0.60113,2.045,0.041495,0,0,0,0
152.11,0.60322,2.047,0.041656,0,0,0,0
152.61,0.60652,2.049,0.041849,0,0,0,0
153.11,0.60921,2.051,0.041849,0,0,0,0
153.61,0.61199,2.053,0.041913,0,0,0,0
154.11,0.61465,2.055,0.042235,0,0,0,0
154.61,0.61765,2.057,0.042332,0,0,0,0
155.11,0.62019,2.059,0.042461,0,0,0,0
155.61,0.623,2.061,0.042654,0,0,0,0
156.11,0.62593,2.063,0.042686,0,0,0,0
156.61,0.62929,2.065,0.04304,0,0,0,0
157.11,0.63229,2.067,0.043072,0,0,0,0
157.61,0.63516,2.069,0.043361,0,0,0,0
158.11,0.63788,2.071,0.043555,0,0,0,0
158.61,0.64061,2.073,0.043683,0,0,0,0
159.11,0.64371,2.075,0.044069,0,0,0,0
159.61,0.64614,2.0767,0.044164,0,0,0,0
160.11,0.64918,2.0783,0.044293,0,0,0,0
160.61,0.6519,2.08,0.044582,0,0,0,0
161.11,0.65468,2.082,0.044518,0,0,0,0
161.61,0.65812,2.084,0.044743,0,0,0,0
162.11,0.66093,2.086,0.044904,0,0,0,0
162.61,0.66429,2.088,0.045064,0,0,0,0
163.11,0.66701,2.09,0.045224,0,0,0,0
163.61,0.66981,2.092,0.045353,0,0,0,0
164.11,0.67277,2.0937,0.045384,0,0,0,0
164.61,0.67546,2.0953,0.045417,0,0,0,0
165.11,0.67815,2.097,0.045833,0,0,0,0
165.61,0.68089,2.099,0.045866,0,0,0,0
166.11,0.68349,2.1013,0.045962,0,0,0,0
166.61,0.68644,2.1034,0.04609,0,0,0,0
167.11,0.68973,2.1053,0.046315,0,0,0,0
167.61,0.69298,2.107,0.046731,0,0,0,0
168.11,0.69612,2.109,0.046795,0,0,0,0
168.61,0.69912,2.111,0.046924,0,0,0,0
169.11,0.70192,2.1127,0.047243,0,0,0,0
169.61,0.70424,2.1143,0.04734,0,0,0,0
170.11,0.70724,2.116,0.047692,0,0,0,0
170.61,0.71023,2.1177,0.04766,0,0,0,0
171.11,0.7124,2.1193,0.04798,0,0,0,0
171.61,0.71542,2.121,0.048172,0,0,0,0
172.11,0.71838,2.123,0.048396,0,0,0,0
172.61,0.72134,2.125,0.048364,0,0,0,0
173.11,0.72386,2.1267,0.048523,0,0,0,0
173.61,0.72803,2.1283,0.048588,0,0,0,0
174.11,0.73055,2.13,0.04878,0,0,0,0
174.61,0.73298,2.132,0.048971,0,0,0,0
175.11,0.73652,2.134,0.0491,0,0,0,0
175.61,0.73873,2.136,0.04926,0,0,0,0
176.11,0.74088,2.1377,0.04926,0,0,0,0
176.61,0.74411,2.1393,0.049611,0,0,0,0
177.11,0.74761,2.141,0.049642,0,0,0,0
177.61,0.74898,2.143,0.049771,0,0,0,0
178.11,0.75225,2.1447,0.050122,0,0,0,0
178.61,0.7557,2.1463,0.050377,0,0,0,0
179.11,0.75933,2.148,0.050569,0,0,0,0
179.61,0.76213,2.1497,0.050824,0,0,0,0
180.11,0.76494,2.1513,0.051015,0,0,0,0
180.61,0.7675,2.153,0.051302,0,0,0,0
181.11,0.77086,2.1547,0.051271,0,0,0,0
181.61,0.7726,2.1563,0.051621,0,0,0,0
182.11,0.77685,2.1577,0.051717,0,0,0,0
182.61,0.77868,2.1593,0.051876,0,0,0,0
183.11,0.78185,2.161,0.052068,0,0,0,0
183.61,0.78451,2.163,0.05194,0,0,0,0
184.11,0.78756,2.165,0.052418,0,0,0,0
184.61,0.79082,2.1667,0.052354,0,0,0,0
185.11,0.79333,2.1683,0.052577,0,0,0,0
185.61,0.79627,2.1697,0.052546,0,0,0,0
186.11,0.79988,2.1713,0.052992,0,0,0,0
186.61,0.80168,2.1727,0.053087,0,0,0,0
187.11,0.80493,2.1743,0.053215,0,0,0,0
187.61,0.8069,2.176,0.053309,0,0,0,0
188.11,0.81046,2.178,0.053342,0,0,0,0
188.61,0.8132,2.1797,0.053691,0,0,0,0
189.11,0.8163,2.1813,0.053978,0,0,0,0
189.61,0.81934,2.1827,0.054073,0,0,0,0
190.11,0.82242,2.1843,0.054296,0,0,0,0
190.61,0.82493,2.186,0.054551,0,0,0,0
191.11,0.82708,2.1877,0.054741,0,0,0,0
191.61,0.83127,2.1893,0.054868,0,0,0,0
192.11,0.83358,2.1907,0.055059,0,0,0,0
192.61,0.83632,2.1923,0.055249,0,0,0,0
193.11,0.83887,2.1937,0.055567,0,0,0,0
193.61,0.84124,2.1953,0.055472,0,0,0,0
194.11,0.84431,2.197,0.055726,0,0,0,0
194.61,0.84713,2.1987,0.055821,0,0,0,0
195.11,0.85126,2.2003,0.056138,0,0,0,0
195.61,0.85284,2.2017,0.056138,0,0,0,0
196.11,0.85736,2.2033,0.05617,0,0,0,0
196.61,0.85906,2.2047,0.056456,0,0,0,0
197.11,0.86067,2.2063,0.056456,0,0,0,0
197.61,0.86507,2.208,0.056741,0,0,0,0
198.11,0.86745,2.2097,0.056963,0,0,0,0
198.61,0.86996,2.211,0.05709,0,0,0,0
199.11,0.87338,2.2123,0.057217,0,0,0,0
199.61,0.87585,2.214,0.057534,0,0,0,0
200.11,0.8793,2.2157,0.057692,0,0,0,0
200.61,0.88236,2.2173,0.057914,0,0,0,0
201.11,0.88509,2.2187,0.058041,0,0,0,0
201.61,0.88794,2.22,0.058294,0,0,0,0
202.11,0.89086,2.2213,0.058548,0,0,0,0
202.61,0.89339,2.223,0.058642,0,0,0,0
203.11,0.89607,2.2247,0.058864,0,0,0,0
203.61,0.89871,2.226,0.05915,0,0,0,0
204.11,0.90165,2.2273,0.059307,0,0,0,0
204.61,0.90452,2.2287,0.059497,0,0,0,0
205.11,0.90737,2.2303,0.059497,0,0,0,0
205.61,0.91046,2.2317,0.059624,0,0,0,0
206.11,0.9137,2.2333,0.059719,0,0,0,0
206.61,0.91672,2.2347,0.059877,0,0,0,0
207.11,0.91921,2.2363,0.060129,0,0,0,0
207.61,0.92212,2.2377,0.060288,0,0,0,0
208.11,0.92467,2.239,0.060415,0,0,0,0
208.61,0.92749,2.2403,0.060604,0,0,0,0
209.11,0.93005,2.2417,0.060667,0,0,0,0
209.61,0.93278,2.2433,0.061014,0,0,0,0
210.11,0.93579,2.2447,0.061204,0,0,0,0
210.61,0.93889,2.2463,0.061456,0,0,0,0
211.11,0.94171,2.2477,0.061772,0,0,0,0
211.61,0.94502,2.2493,0.061835,0,0,0,0
212.11,0.94797,2.2507,0.061835,0,0,0,0
212.61,0.9507,2.252,0.062119,0,0,0,0
213.11,0.9533,2.2533,0.062403,0,0,0,0
213.61,0.95627,2.2547,0.062561,0,0,0,0
214.11,0.9588,2.256,0.062781,0,0,0,0
214.61,0.96139,2.2573,0.062939,0,0,0,0
215.11,0.96421,2.259,0.063002,0,0,0,0
215.61,0.96733,2.2607,0.063192,0,0,0,0
216.11,0.97037,2.262,0.063412,0,0,0,0
216.61,0.97365,2.2633,0.063475,0,0,0,0
217.11,0.97627,2.2647,0.06379,0,0,0,0
217.61,0.97931,2.2663,0.063884,0,0,0,0
218.11,0.98216,2.2677,0.063853,0,0,0,0
218.61,0.98494,2.269,0.064074,0,0,0,0
219.11,0.98764,2.27,0.06442,0,0,0,0
219.61,0.99025,2.2713,0.064577,0,0,0,0
220.11,0.99285,2.2727,0.064672,0,0,0,0
220.61,0.99602,2.2743,0.064798,0,0,0,0
221.11,0.9986,2.2757,0.06505,0,0,0,0
221.61,1.0017,2.277,0.065206,0,0,0,0
222.11,1.0045,2.2783,0.065395,0,0,0,0
222.61,1.0075,2.2797,0.065553,0,0,0,0
223.11,1.0106,2.281,0.065741,0,0,0,0
223.61,1.0134,2.282,0.06593,0,0,0,0
224.11,1.0162,2.2833,0.06637,0,0,0,0
224.61,1.0188,2.2847,0.066275,0,0,0,0
225.11,1.0211,2.2863,0.066401,0,0,0,0
225.61,1.024,2.2877,0.06681,0,0,0,0
226.11,1.027,2.289,0.066935,0,0,0,0
226.61,1.0299,2.2903,0.067187,0,0,0,0
227.11,1.0326,2.2917,0.06728,0,0,0,0
227.61,1.0356,2.293,0.067249,0,0,0,0
228.11,1.0388,2.294,0.067532,0,0,0,0
228.61,1.0419,2.2953,0.06772,0,0,0,0
229.11,1.0446,2.2967,0.067814,0,0,0,0
229.61,1.0475,2.2983,0.068033,0,0,0,0
230.11,1.0503,2.2997,0.068221,0,0,0,0
230.61,1.053,2.301,0.068378,0,0,0,0
231.11,1.0557,2.302,0.068535,0,0,0,0
231.61,1.0581,2.303,0.068692,0,0,0,0
232.11,1.061,2.3043,0.068911,0,0,0,0
232.61,1.0641,2.3057,0.069068,0,0,0,0
233.11,1.0669,2.3073,0.069381,0,0,0,0
233.61,1.0704,2.3087,0.069569,0,0,0,0
234.11,1.0726,2.31,0.069788,0,0,0,0
234.61,1.0757,2.311,0.069851,0,0,0,0
235.11,1.0785,2.312,0.069977,0,0,0,0
235.61,1.0813,2.3133,0.070226,0,0,0,0
236.11,1.084,2.3147,0.070383,0,0,0,0
236.61,1.086,2.316,0.070508,0,0,0,0
237.11,1.0901,2.317,0.070915,0,0,0,0
237.61,1.0917,2.3183,0.070977,0,0,0,0
238.11,1.0949,2.3197,0.07104,0,0,0,0
238.61,1.0959,2.3213,0.07104,0,0,0,0
239.11,1.1019,2.3224,0.071478,0,0,0,0
239.61,1.1045,2.3236,0.071572,0,0,0,0
240.11,1.1076,2.3247,0.07179,0,0,0,0
240.61,1.1098,2.326,0.07204,0,0,0,0
241.11,1.1124,2.327,0.072165,0,0,0,0
241.61,1.1163,2.328,0.072322,0,0,0,0
242.11,1.118,2.3293,0.072539,0,0,0,0
242.61,1.1209,2.3307,0.072758,0,0,0,0
243.11,1.124,2.332,0.072852,0,0,0,0
243.61,1.1267,2.333,0.072976,0,0,0,0
244.11,1.1294,2.334,0.073258,0,0,0,0
244.61,1.1331,2.3353,0.073507,0,0,0,0
245.11,1.1361,2.3367,0.073663,0,0,0,0
245.61,1.1378,2.338,0.073881,0,0,0,0
246.11,1.1415,2.3393,0.073944,0,0,0,0
246.61,1.1444,2.3407,0.074225,0,0,0,0
247.11,1.1471,2.342,0.074411,0,0,0,0
247.61,1.1498,2.343,0.07463,0,0,0,0
248.11,1.1525,2.3443,0.074878,0,0,0,0
248.61,1.1553,2.3454,0.074878,0,0,0,0
249.11,1.1585,2.3463,0.075097,0,0,0,0
249.61,1.1613,2.347,0.075346,0,0,0,0
250.11,1.1641,2.3483,0.075564,0,0,0,0
250.61,1.1673,2.3497,0.075751,0,0,0,0
251.11,1.1703,2.351,0.075999,0,0,0,0
251.61,1.1729,2.352,0.076062,0,0,0,0
252.11,1.1757,2.353,0.076373,0,0,0,0
252.61,1.1783,2.3543,0.076497,0,0,0,0
253.11,1.181,2.3557,0.076591,0,0,0,0
253.61,1.1841,2.357,0.076902,0,0,0,0
254.11,1.187,2.358,0.077088,0,0,0,0
254.61,1.19,2.359,0.077212,0,0,0,0
255.11,1.1928,2.36,0.077305,0,0,0,0
255.61,1.1959,2.3613,0.077429,0,0,0,0
256.11,1.1986,2.3627,0.077834,0,0,0,0
256.61,1.2014,2.364,0.077927,0,0,0,0
257.11,1.2042,2.365,0.078145,0,0,0,0
257.61,1.2066,2.366,0.078299,0,0,0,0
258.11,1.2096,2.367,0.078579,0,0,0,0
258.61,1.2125,2.3683,0.078765,0,0,0,0
259.11,1.2151,2.3694,0.07892,0,0,0,0
259.61,1.218,2.3703,0.079324,0,0,0,0
260.11,1.2212,2.3713,0.079478,0,0,0,0
260.61,1.2241,2.3727,0.079572,0,0,0,0
261.11,1.2269,2.374,0.079757,0,0,0,0
261.61,1.2298,2.375,0.079912,0,0,0,0
262.11,1.2326,2.376,0.080192,0,0,0,0
262.61,1.2353,2.377,0.080408,0,0,0,0
263.11,1.238,2.3783,0.080439,0,0,0,0
263.61,1.2409,2.3797,0.080718,0,0,0,0
264.11,1.2432,2.381,0.080811,0,0,0,0
264.61,1.2461,2.382,0.080935,0,0,0,0
265.11,1.2492,2.383,0.081058,0,0,0,0
265.61,1.2522,2.384,0.081368,0,0,0,0
266.11,1.255,2.385,0.081709,0,0,0,0
266.61,1.2579,2.386,0.081863,0,0,0,0
267.11,1.2607,2.387,0.081956,0,0,0,0
267.61,1.2636,2.388,0.082204,0,0,0,0
268.11,1.2663,2.389,0.082389,0,0,0,0
268.61,1.269,2.39,0.082544,0,0,0,0
269.11,1.2715,2.391,0.082853,0,0,0,0
269.61,1.2745,2.3923,0.0831,0,0,0,0
270.11,1.2774,2.3937,0.083193,0,0,0,0
270.61,1.2803,2.395,0.083502,0,0,0,0
271.11,1.2833,2.3957,0.083748,0,0,0,0
271.61,1.2865,2.3966,0.083748,0,0,0,0
272.11,1.2894,2.3977,0.083903,0,0,0,0
272.61,1.2924,2.399,0.084119,0,0,0,0
273.11,1.2948,2.3997,0.084428,0,0,0,0
273.61,1.2974,2.4006,0.084675,0,0,0,0
274.11,1.3003,2.4017,0.084921,0,0,0,0
274.61,1.3028,2.403,0.085137,0,0,0,0
275.11,1.3056,2.404,0.08523,0,0,0,0
275.61,1.3085,2.405,0.085414,0,0,0,0
276.11,1.3113,2.406,0.08563,0,0,0,0
276.61,1.3146,2.407,0.085784,0,0,0,0
277.11,1.3173,2.408,0.086031,0,0,0,0
277.61,1.3204,2.409,0.086092,0,0,0,0
278.11,1.3234,2.41,0.086462,0,0,0,0
278.61,1.3261,2.411,0.086739,0,0,0,0
279.11,1.3288,2.412,0.087047,0,0,0,0
279.61,1.3313,2.413,0.087047,0,0,0,0
280.11,1.3342,2.414,0.087447,0,0,0,0
280.61,1.3366,2.415,0.087508,0,0,0,0
281.11,1.3398,2.416,0.087723,0,0,0,0
281.61,1.3429,2.417,0.08797,0,0,0,0
282.11,1.3459,2.418,0.088185,0,0,0,0
282.61,1.3486,2.419,0.088492,0,0,0,0
283.11,1.3517,2.42,0.088646,0,0,0,0
283.61,1.3544,2.421,0.088769,0,0,0,0
284.11,1.3572,2.422,0.089014,0,0,0,0
284.61,1.3601,2.423,0.088953,0,0,0,0
285.11,1.3629,2.424,0.089475,0,0,0,0
285.61,1.3656,2.425,0.089751,0,0,0,0
286.11,1.3684,2.426,0.089751,0,0,0,0
286.61,1.3714,2.427,0.090027,0,0,0,0
287.11,1.3743,2.4283,0.090273,0,0,0,0
287.61,1.3773,2.4294,0.090395,0,0,0,0
288.11,1.3802,2.4303,0.090763,0,0,0,0
288.61,1.3833,2.431,0.090917,0,0,0,0
289.11,1.3861,2.432,0.091315,0,0,0,0
289.61,1.3889,2.433,0.091407,0,0,0,0
290.11,1.3916,2.434,0.091775,0,0,0,0
290.61,1.3944,2.435,0.091836,0,0,0,0
291.11,1.3971,2.436,0.092081,0,0,0,0
291.61,1.4,2.437,0.092387,0,0,0,0
292.11,1.403,2.438,0.092357,0,0,0,0
292.61,1.4059,2.439,0.092571,0,0,0,0
293.11,1.4088,2.44,0.092785,0,0,0,0
293.61,1.4118,2.4407,0.092968,0,0,0,0
294.11,1.4148,2.4416,0.09309,0,0,0,0
294.61,1.4183,2.4424,0.093244,0,0,0,0
295.11,1.42,2.4433,0.093519,0,0,0,0
295.61,1.4225,2.4443,0.093794,0,0,0,0
296.11,1.4264,2.4457,0.094099,0,0,0,0
296.61,1.429,2.447,0.094314,0,0,0,0
297.11,1.4319,2.448,0.094466,0,0,0,0
297.61,1.4345,2.4487,0.094803,0,0,0,0
298.11,1.4378,2.4493,0.094864,0,0,0,0
298.61,1.4405,2.4503,0.095199,0,0,0,0
299.11,1.4435,2.4514,0.095596,0,0,0,0
299.61,1.4464,2.4523,0.095779,0,0,0,0
300.11,1.4493,2.4527,0.095779,0,0,0,0
300.61,1.452,2.4536,0.096145,0,0,0,0
301.11,1.455,2.4544,0.096298,0,0,0,0
301.61,1.4576,2.4556,0.096572,0,0,0,0
302.11,1.4601,2.4567,0.096541,0,0,0,0
302.61,1.4633,2.4577,0.096938,0,0,0,0
303.11,1.4661,2.4586,0.09712,0,0,0,0
303.61,1.4691,2.4594,0.097304,0,0,0,0
304.11,1.4719,2.4603,0.097455,0,0,0,0
304.61,1.475,2.461,0.097638,0,0,0,0
305.11,1.4779,2.462,0.097943,0,0,0,0
305.61,1.4808,2.463,0.098247,0,0,0,0
306.11,1.4837,2.464,0.098308,0,0,0,0
306.61,1.4865,2.465,0.098795,0,0,0,0
307.11,1.4893,2.466,0.098946,0,0,0,0
307.61,1.492,2.4667,0.09916,0,0,0,0
308.11,1.4949,2.4673,0.099403,0,0,0,0
308.61,1.4979,2.468,0.099768,0,0,0,0
309.11,1.5009,2.469,0.099889,0,0,0,0
309.61,1.5038,2.47,0.10004,0,0,0,0
310.11,1.507,2.471,0.10041,0,0,0,0
310.61,1.5097,2.472,0.10059,0,0,0,0
311.11,1.5126,2.4727,0.10077,0,0,0,0
311.61,1.5153,2.4733,0.10113,0,0,0,0
312.11,1.5181,2.474,0.10107,0,0,0,0
312.61,1.5209,2.475,0.10153,0,0,0,0
313.11,1.5237,2.476,0.10147,0,0,0,0
313.61,1.5268,2.477,0.10183,0,0,0,0
314.11,1.5295,2.478,0.10201,0,0,0,0
314.61,1.5325,2.479,0.10229,0,0,0,0
315.11,1.5355,2.48,0.10259,0,0,0,0
315.61,1.5387,2.4807,0.10268,0,0,0,0
316.11,1.5415,2.4813,0.10298,0,0,0,0
316.61,1.5444,2.482,0.10329,0,0,0,0
317.11,1.5471,2.483,0.10341,0,0,0,0
317.61,1.5499,2.484,0.10374,0,0,0,0
318.11,1.5527,2.485,0.10395,0,0,0,0
318.61,1.5555,2.4857,0.10434,0,0,0,0
319.11,1.5584,2.4863,0.10447,0,0,0,0
319.61,1.5616,2.487,0.10477,0,0,0,0
320.11,1.5645,2.488,0.10492,0,0,0,0
320.61,1.5675,2.489,0.10519,0,0,0,0
321.11,1.5704,2.49,0.10537,0,0,0,0
321.61,1.5735,2.491,0.10568,0,0,0,0
322.11,1.5763,2.4917,0.10592,0,0,0,0
322.61,1.5791,2.4923,0.10613,0,0,0,0
323.11,1.5819,2.493,0.1064,0,0,0,0
323.61,1.5847,2.4937,0.10661,0,0,0,0
324.11,1.5876,2.4943,0.10697,0,0,0,0
324.61,1.5906,2.495,0.10715,0,0,0,0
325.11,1.5938,2.496,0.10721,0,0,0,0
325.61,1.5967,2.497,0.10749,0,0,0,0
326.11,1.5996,2.4977,0.10791,0,0,0,0
326.61,1.6026,2.4983,0.10809,0,0,0,0
327.11,1.6057,2.499,0.10803,0,0,0,0
327.61,1.6083,2.5,0.10845,0,0,0,0
328.11,1.6112,2.501,0.10857,0,0,0,0
328.61,1.6141,2.502,0.10896,0,0,0,0
329.11,1.6169,2.5027,0.10926,0,0,0,0
329.61,1.6202,2.5033,0.10956,0,0,0,0
330.11,1.6229,2.504,0.10968,0,0,0,0
330.61,1.6259,2.505,0.10996,0,0,0,0
331.11,1.6291,2.5057,0.11026,0,0,0,0
331.61,1.6318,2.5066,0.11032,0,0,0,0
332.11,1.6349,2.5074,0.11059,0,0,0,0
332.61,1.6372,2.5083,0.11095,0,0,0,0
333.11,1.6407,2.5087,0.11107,0,0,0,0
333.61,1.6433,2.5093,0.11137,0,0,0,0
334.11,1.6463,2.51,0.11167,0,0,0,0
334.61,1.6493,2.511,0.11197,0,0,0,0
335.11,1.6523,2.512,0.11209,0,0,0,0
335.61,1.655,2.5127,0.11242,0,0,0,0
336.11,1.658,2.5133,0.1126,0,0,0,0
336.61,1.6611,2.514,0.11281,0,0,0,0
337.11,1.6638,2.515,0.11308,0,0,0,0
337.61,1.6667,2.5157,0.11332,0,0,0,0
338.11,1.6698,2.5163,0.1135,0,0,0,0
338.61,1.6725,2.517,0.11368,0,0,0,0
339.11,1.6755,2.518,0.1141,0,0,0,0
339.61,1.6782,2.5187,0.11419,0,0,0,0
340.11,1.6812,2.5193,0.11461,0,0,0,0
340.61,1.6841,2.52,0.11473,0,0,0,0
341.11,1.6871,2.521,0.115,0,0,0,0
341.61,1.69,2.5217,0.11523,0,0,0,0
342.11,1.6933,2.5223,0.11556,0,0,0,0
342.61,1.6963,2.523,0.11574,0,0,0,0
343.11,1.6992,2.5237,0.11607,0,0,0,0
343.61,1.7013,2.5243,0.11646,0,0,0,0
344.11,1.704,2.525,0.11652,0,0,0,0
344.61,1.7077,2.526,0.11691,0,0,0,0
345.11,1.7105,2.5267,0.11718,0,0,0,0
345.61,1.7133,2.5273,0.11739,0,0,0,0
346.11,1.7163,2.528,0.11748,0,0,0,0
346.61,1.7194,2.5287,0.11774,0,0,0,0
347.11,1.7223,2.5293,0.11801,0,0,0,0
347.61,1.7256,2.53,0.11837,0,0,0,0
348.11,1.7286,2.531,0.11837,0,0,0,0
348.61,1.7314,2.5317,0.11879,0,0,0,0
349.11,1.7343,2.5323,0.11906,0,0,0,0
349.61,1.7371,2.533,0.11941,0,0,0,0
350.11,1.7393,2.5337,0.11959,0,0,0,0
350.61,1.7434,2.5343,0.12001,0,0,0,0
351.11,1.7461,2.535,0.12019,0,0,0,0
351.61,1.7486,2.536,0.1204,0,0,0,0
352.11,1.7519,2.5367,0.12067,0,0,0,0
352.61,1.7552,2.5373,0.12099,0,0,0,0
353.11,1.7581,2.538,0.12135,0,0,0,0
353.61,1.7619,2.5387,0.12165,0,0,0,0
354.11,1.765,2.539,0.12194,0,0,0,0
354.61,1.7657,2.5396,0.12215,0,0,0,0
355.11,1.7683,2.5404,0.12239,0,0,0,0
355.61,1.7729,2.5413,0.12269,0,0,0,0
356.11,1.777,2.542,0.1231,0,0,0,0
356.61,1.7801,2.543,0.12325,0,0,0,0
357.11,1.7816,2.5437,0.12358,0,0,0,0
357.61,1.7848,2.5443,0.12387,0,0,0,0
358.11,1.7873,2.5447,0.12402,0,0,0,0
358.61,1.79,2.5453,0.12441,0,0,0,0
359.11,1.793,2.5457,0.12467,0,0,0,0
359.61,1.7963,2.5463,0.12494,0,0,0,0
360.11,1.7994,2.547,0.12527,0,0,0,0
360.61,1.8021,2.5477,0.12562,0,0,0,0
361.11,1.8047,2.5483,0.12586,0,0,0,0
361.61,1.8078,2.549,0.12618,0,0,0,0
362.11,1.8109,2.5497,0.12645,0,0,0,0
362.61,1.8138,2.5503,0.12681,0,0,0,0
363.11,1.8169,2.551,0.12707,0,0,0,0
363.61,1.8198,2.552,0.12725,0,0,0,0
364.11,1.8229,2.5527,0.12763,0,0,0,0
364.61,1.8257,2.5533,0.12781,0,0,0,0
365.11,1.8289,2.5537,0.12828,0,0,0,0
365.61,1.8316,2.5543,0.1284,0,0,0,0
366.11,1.8346,2.555,0.12861,0,0,0,0
366.61,1.8375,2.5557,0.12902,0,0,0,0
367.11,1.8407,2.5563,0.1292,0,0,0,0
367.61,1.8436,2.5567,0.12958,0,0,0,0
368.11,1.8466,2.5573,0.12985,0,0,0,0
368.61,1.8496,2.5577,0.13014,0,0,0,0
369.11,1.8528,2.5583,0.13053,0,0,0,0
369.61,1.8557,2.559,0.13076,0,0,0,0
370.11,1.8586,2.5597,0.13094,0,0,0,0
370.61,1.8615,2.5603,0.13126,0,0,0,0
371.11,1.8644,2.561,0.13153,0,0,0,0
371.61,1.867,2.5617,0.13182,0,0,0,0
372.11,1.8701,2.5623,0.13235,0,0,0,0
372.61,1.8732,2.5627,0.13253,0,0,0,0
373.11,1.8764,2.5633,0.13285,0,0,0,0
373.61,1.8794,2.564,0.13317,0,0,0,0
374.11,1.8824,2.5647,0.1335,0,0,0,0
374.61,1.8857,2.5653,0.13373,0,0,0,0
375.11,1.8884,2.5657,0.13403,0,0,0,0
375.61,1.8914,2.5663,0.13417,0,0,0,0
376.11,1.8942,2.567,0.13461,0,0,0,0
376.61,1.8973,2.5677,0.13473,0,0,0,0
377.11,1.9,2.5683,0.13499,0,0,0,0
377.61,1.9031,2.5687,0.13546,0,0,0,0
378.11,1.9063,2.5693,0.1357,0,0,0,0
378.61,1.9093,2.5697,0.13584,0,0,0,0
379.11,1.9124,2.5703,0.13649,0,0,0,0
379.61,1.9154,2.5707,0.13684,0,0,0,0
380.11,1.9182,2.5713,0.1369,0,0,0,0
380.61,1.9213,2.572,0.13725,0,0,0,0
381.11,1.9241,2.5727,0.13754,0,0,0,0
381.61,1.927,2.5733,0.13784,0,0,0,0
382.11,1.93,2.5737,0.13854,0,0,0,0
382.61,1.933,2.5743,0.13862,0,0,0,0
383.11,1.936,2.5747,0.13912,0,0,0,0
383.61,1.9391,2.5753,0.13938,0,0,0,0
384.11,1.9422,2.576,0.13968,0,0,0,0
384.61,1.9453,2.5767,0.14011,0,0,0,0
385.11,1.9483,2.577,0.14038,0,0,0,0
385.61,1.9514,2.5773,0.14084,0,0,0,0
386.11,1.9541,2.5777,0.14093,0,0,0,0
386.61,1.9571,2.5783,0.14131,0,0,0,0
387.11,1.96,2.579,0.14149,0,0,0,0
387.61,1.9631,2.5797,0.14178,0,0,0,0
388.11,1.9658,2.5803,0.14201,0,0,0,0
388.61,1.9689,2.5807,0.14236,0,0,0,0
389.11,1.9723,2.5813,0.14285,0,0,0,0
389.61,1.9751,2.5817,0.14317,0,0,0,0
390.11,1.9783,2.5823,0.14341,0,0,0,0
390.61,1.9811,2.5827,0.14381,0,0,0,0
391.11,1.9841,2.5833,0.14413,0,0,0,0
391.61,1.9871,2.5837,0.1446,0,0,0,0
392.11,1.9901,2.5843,0.14486,0,0,0,0
392.61,1.9931,2.5847,0.14535,0,0,0,0
393.11,1.9963,2.5853,0.1457,0,0,0,0
393.61,1.9989,2.5857,0.14611,0,0,0,0
394.11,2.0023,2.586,0.14643,0,0,0,0
394.61,2.0053,2.5863,0.14649,0,0,0,0
395.11,2.0085,2.587,0.14689,0,0,0,0
395.61,2.0115,2.5877,0.14733,0,0,0,0
396.11,2.0144,2.5883,0.14782,0,0,0,0
396.61,2.0175,2.5887,0.14805,0,0,0,0
397.11,2.0202,2.5893,0.1484,0,0,0,0
397.61,2.0235,2.5897,0.1488,0,0,0,0
398.11,2.0264,2.5903,0.14924,0,0,0,0
398.61,2.0294,2.5907,0.14944,0,0,0,0
399.11,2.0326,2.5913,0.14982,0,0,0,0
399.61,2.0357,2.5917,0.15016,0,0,0,0
400.11,2.0389,2.5923,0.15045,0,0,0,0
400.61,2.0419,2.5927,0.15085,0,0,0,0
401.11,2.0451,2.5933,0.15111,0,0,0,0
401.61,2.048,2.5937,0.15146,0,0,0,0
402.11,2.0511,2.5943,0.15198,0,0,0,0
402.61,2.0541,2.5947,0.15244,0,0,0,0
403.11,2.0569,2.595,0.15256,0,0,0,0
403.61,2.06,2.5953,0.15302,0,0,0,0
404.11,2.0631,2.5957,0.15345,0,0,0,0
404.61,2.0664,2.5963,0.1538,0,0,0,0
405.11,2.0696,2.5967,0.15411,0,0,0,0
405.61,2.0728,2.597,0.15443,0,0,0,0
406.11,2.0758,2.5973,0.15495,0,0,0,0
406.61,2.0789,2.5977,0.15535,0,0,0,0
407.11,2.0819,2.5983,0.15566,0,0,0,0
407.61,2.085,2.599,0.15601,0,0,0,0
408.11,2.0879,2.5997,0.15653,0,0,0,0
408.61,2.0909,2.6,0.1569,0,0,0,0
409.11,2.094,2.6003,0.15724,0,0,0,0
409.61,2.097,2.6007,0.15765,0,0,0,0
410.11,2.1002,2.6013,0.15796,0,0,0,0
410.61,2.1035,2.6017,0.15833,0,0,0,0
411.11,2.1065,2.602,0.15871,0,0,0,0
411.61,2.1097,2.6023,0.15905,0,0,0,0
412.11,2.1128,2.6027,0.15936,0,0,0,0
412.61,2.1159,2.6033,0.15985,0,0,0,0
413.11,2.1187,2.6037,0.16019,0,0,0,0
413.61,2.1216,2.6043,0.16059,0,0,0,0
414.11,2.1248,2.6047,0.16102,0,0,0,0
414.61,2.1279,2.605,0.16137,0,0,0,0
415.11,2.1311,2.6053,0.16179,0,0,0,0
415.61,2.1342,2.6057,0.16217,0,0,0,0
416.11,2.1373,2.6063,0.16251,0,0,0,0
416.61,2.1404,2.6067,0.16302,0,0,0,0
417.11,2.1435,2.607,0.16342,0,0,0,0
417.61,2.1467,2.6073,0.16399,0,0,0,0
418.11,2.1498,2.6077,0.16425,0,0,0,0
418.61,2.1529,2.608,0.16462,0,0,0,0
419.11,2.1557,2.6083,0.16524,0,0,0,0
419.61,2.1589,2.6087,0.16553,0,0,0,0
420.11,2.1621,2.6093,0.16601,0,0,0,0
420.61,2.1651,2.6097,0.16641,0,0,0,0
421.11,2.1684,2.61,0.16684,0,0,0,0
421.61,2.1717,2.6103,0.16732,0,0,0,0
422.11,2.1745,2.6107,0.16758,0,0,0,0
422.61,2.1775,2.611,0.16806,0,0,0,0
423.11,2.1807,2.6113,0.16834,0,0,0,0
423.61,2.1837,2.6117,0.16891,0,0,0,0
424.11,2.187,2.6123,0.16939,0,0,0,0
424.61,2.1905,2.6127,0.16976,0,0,0,0
425.11,2.1929,2.613,0.17027,0,0,0,0
425.61,2.1957,2.613,0.17047,0,0,0,0
426.11,2.1987,2.6133,0.17106,0,0,0,0
426.61,2.2024,2.6137,0.1716,0,0,0,0
427.11,2.2055,2.6143,0.17211,0,0,0,0
427.61,2.2086,2.6147,0.17259,0,0,0,0
428.11,2.2118,2.615,0.17304,0,0,0,0
428.61,2.2152,2.615,0.17343,0,0,0,0
429.11,2.2182,2.615,0.17397,0,0,0,0
429.61,2.2213,2.6153,0.17439,0,0,0,0
430.11,2.2241,2.616,0.17501,0,0,0,0
430.61,2.2273,2.6167,0.1753,0,0,0,0
431.11,2.2304,2.617,0.1758,0,0,0,0
431.61,2.2338,2.617,0.17637,0,0,0,0
432.11,2.237,2.617,0.17676,0,0,0,0
432.61,2.2404,2.6173,0.17727,0,0,0,0
433.11,2.2433,2.618,0.17769,0,0,0,0
433.61,2.2464,2.6187,0.17808,0,0,0,0
434.11,2.2494,2.619,0.17859,0,0,0,0
434.61,2.2525,2.619,0.17904,0,0,0,0
435.11,2.2557,2.6193,0.17954,0,0,0,0
435.61,2.2589,2.6197,0.17999,0,0,0,0
436.11,2.2623,2.62,0.18049,0,0,0,0
436.61,2.2654,2.62,0.18108,0,0,0,0
437.11,2.2685,2.62,0.18153,0,0,0,0
437.61,2.2718,2.6203,0.18209,0,0,0,0
438.11,2.2748,2.6207,0.18251,0,0,0,0
438.61,2.2781,2.621,0.18315,0,0,0,0
439.11,2.2811,2.621,0.18357,0,0,0,0
439.61,2.2841,2.621,0.18424,0,0,0,0
440.11,2.2871,2.6213,0.18455,0,0,0,0
440.61,2.2905,2.6217,0.18517,0,0,0,0
441.11,2.2938,2.6223,0.1855,0,0,0,0
441.61,2.2967,2.6227,0.186,0,0,0,0
442.11,2.3001,2.623,0.18645,0,0,0,0
442.61,2.303,2.6233,0.18698,0,0,0,0
443.11,2.3064,2.6237,0.18748,0,0,0,0
443.61,2.3096,2.624,0.18815,0,0,0,0
444.11,2.3128,2.624,0.18867,0,0,0,0
444.61,2.3159,2.624,0.18912,0,0,0,0
445.11,2.3191,2.624,0.1897,0,0,0,0
445.61,2.3222,2.624,0.19037,0,0,0,0
446.11,2.3253,2.6243,0.19084,0,0,0,0
446.61,2.3286,2.6247,0.19131,0,0,0,0
447.11,2.3318,2.6253,0.19181,0,0,0,0
447.61,2.3348,2.6254,0.19242,0,0,0,0
448.11,2.3383,2.6256,0.19306,0,0,0,0
448.61,2.3413,2.6257,0.19361,0,0,0,0
449.11,2.3444,2.6263,0.19419,0,0,0,0
449.61,2.3476,2.6267,0.19474,0,0,0,0
450.11,2.3506,2.627,0.1953,0,0,0,0
450.61,2.3539,2.627,0.19579,0,0,0,0
451.11,2.3569,2.627,0.19648,0,0,0,0
451.61,2.3601,2.627,0.19701,0,0,0,0
452.11,2.3635,2.6273,0.19767,0,0,0,0
452.61,2.3667,2.6274,0.1983,0,0,0,0
453.11,2.3699,2.6276,0.19896,0,0,0,0
453.61,2.3732,2.6277,0.19943,0,0,0,0
454.11,2.3761,2.628,0.19998,0,0,0,0
454.61,2.3793,2.628,0.20056,0,0,0,0
455.11,2.3823,2.628,0.20111,0,0,0,0
455.61,2.3854,2.628,0.20185,0,0,0,0
456.11,2.3887,2.6283,0.20223,0,0,0,0
456.61,2.3919,2.6287,0.20283,0,0,0,0
457.11,2.395,2.629,0.20349,0,0,0,0
457.61,2.3983,2.629,0.20407,0,0,0,0
458.11,2.4015,2.629,0.20486,0,0,0,0
458.61,2.4047,2.629,0.20538,0,0,0,0
459.11,2.4078,2.6293,0.20595,0,0,0,0
459.61,2.4109,2.6297,0.20675,0,0,0,0
460.11,2.414,2.63,0.20732,0,0,0,0
460.61,2.4173,2.63,0.20816,0,0,0,0
461.11,2.4205,2.63,0.20879,0,0,0,0
461.61,2.4236,2.63,0.2092,0,0,0,0
462.11,2.4267,2.63,0.21013,0,0,0,0
462.61,2.4301,2.63,0.21061,0,0,0,0
463.11,2.4334,2.63,0.21151,0,0,0,0
463.61,2.4368,2.63,0.21216,0,0,0,0
464.11,2.4397,2.63,0.21282,0,0,0,0
464.61,2.443,2.63,0.2136,0,0,0,0
465.11,2.4462,2.63,0.2142,0,0,0,0
465.61,2.4492,2.6303,0.2149,0,0,0,0
466.11,2.4521,2.6307,0.2158,0,0,0,0
466.61,2.4555,2.631,0.21634,0,0,0,0
467.11,2.4589,2.631,0.21704,0,0,0,0
467.61,2.4621,2.631,0.21777,0,0,0,0
468.11,2.4655,2.631,0.21844,0,0,0,0
468.61,2.4684,2.631,0.21912,0,0,0,0
469.11,2.4721,2.631,0.21995,0,0,0,0
469.61,2.4751,2.631,0.22063,0,0,0,0
470.11,2.4783,2.631,0.22152,0,0,0,0
470.61,2.4818,2.631,0.22216,0,0,0,0
471.11,2.4849,2.6307,0.2231,0,0,0,0
471.61,2.488,2.6306,0.22391,0,0,0,0
472.11,2.4912,2.6307,0.22458,0,0,0,0
472.61,2.4949,2.631,0.22549,0,0,0,0
473.11,2.498,2.631,0.22632,0,0,0,0
473.61,2.5015,2.631,0.2271,0,0,0,0
474.11,2.5047,2.631,0.22795,0,0,0,0
474.61,2.5077,2.631,0.22873,0,0,0,0
475.11,2.5112,2.631,0.22966,0,0,0,0
475.61,2.5142,2.631,0.23054,0,0,0,0
476.11,2.5177,2.631,0.23137,0,0,0,0
476.61,2.5209,2.631,0.23219,0,0,0,0
477.11,2.5241,2.631,0.23305,0,0,0,0
477.61,2.5273,2.631,0.23403,0,0,0,0
478.11,2.5306,2.631,0.23488,0,0,0,0
478.61,2.5341,2.6307,0.23578,0,0,0,0
479.11,2.5376,2.6303,0.2366,0,0,0,0
479.61,2.5408,2.63,0.23758,0,0,0,0
480.11,2.5434,2.63,0.23838,0,0,0,0
480.61,2.547,2.63,0.23933,0,0,0,0
481.11,2.5504,2.63,0.24025,0,0,0,0
481.61,2.5535,2.6297,0.24104,0,0,0,0
482.11,2.557,2.6296,0.24192,0,0,0,0
482.61,2.5603,2.6294,0.24286,0,0,0,0
483.11,2.5634,2.6293,0.24381,0,0,0,0
483.61,2.567,2.629,0.2446,0,0,0,0
484.11,2.5702,2.6287,0.24568,0,0,0,0
484.61,2.5737,2.6283,0.24662,0,0,0,0
485.11,2.5767,2.628,0.24762,0,0,0,0
485.61,2.5798,2.628,0.24867,0,0,0,0
486.11,2.5833,2.628,0.24969,0,0,0,0
486.61,2.5866,2.628,0.25086,0,0,0,0
487.11,2.5902,2.6277,0.2518,0,0,0,0
487.61,2.5935,2.6273,0.25287,0,0,0,0
488.11,2.5968,2.627,0.25378,0,0,0,0
488.61,2.6001,2.627,0.25508,0,0,0,0
489.11,2.6036,2.6267,0.25605,0,0,0,0
489.61,2.6066,2.6263,0.25716,0,0,0,0
490.11,2.6101,2.626,0.2581,0,0,0,0
490.61,2.6132,2.626,0.25916,0,0,0,0
491.11,2.6163,2.6257,0.26025,0,0,0,0
491.61,2.6197,2.6253,0.26136,0,0,0,0
492.11,2.623,2.6247,0.2626,0,0,0,0
492.61,2.6264,2.6243,0.26361,0,0,0,0
493.11,2.6296,2.624,0.26484,0,0,0,0
493.61,2.6334,2.6237,0.2659,0,0,0,0
494.11,2.6364,2.6233,0.26713,0,0,0,0
494.61,2.6401,2.623,0.26824,0,0,0,0
495.11,2.643,2.6227,0.26952,0,0,0,0
495.61,2.6466,2.622,0.27065,0,0,0,0
496.11,2.6495,2.6213,0.27177,0,0,0,0
496.61,2.653,2.6207,0.273,0,0,0,0
497.11,2.6566,2.6203,0.2743,0,0,0,0
497.61,2.6598,2.6197,0.27553,0,0,0,0
498.11,2.6632,2.6193,0.27695,0,0,0,0
498.61,2.6667,2.619,0.2781,0,0,0,0
499.11,2.6699,2.6187,0.27947,0,0,0,0
499.61,2.6733,2.6183,0.28071,0,0,0,0
500.11,2.6766,2.6177,0.28203,0,0,0,0
500.61,2.6797,2.617,0.28327,0,0,0,0
501.11,2.683,2.6163,0.28459,0,0,0,0
501.61,2.6864,2.6157,0.28577,0,0,0,0
502.11,2.6897,2.6153,0.28718,0,0,0,0
502.61,2.6932,2.6147,0.28847,0,0,0,0
503.11,2.6966,2.614,0.28983,0,0,0,0
503.61,2.7,2.613,0.29111,0,0,0,0
504.11,2.7034,2.612,0.29256,0,0,0,0
504.61,2.7066,2.611,0.29389,0,0,0,0
505.11,2.7102,2.6103,0.29546,0,0,0,0
505.61,2.7132,2.6097,0.29686,0,0,0,0
506.11,2.7166,2.609,0.29831,0,0,0,0
506.61,2.7202,2.608,0.29995,0,0,0,0
507.11,2.7235,2.607,0.30137,0,0,0,0
507.61,2.7268,2.606,0.30295,0,0,0,0
508.11,2.7306,2.605,0.30439,0,0,0,0
508.61,2.7337,2.604,0.30612,0,0,0,0
509.11,2.7372,2.603,0.30755,0,0,0,0
509.61,2.7406,2.602,0.30901,0,0,0,0
510.11,2.7441,2.601,0.31068,0,0,0,0
510.61,2.7473,2.6,0.31221,0,0,0,0
511.11,2.751,2.599,0.31378,0,0,0,0
511.61,2.7544,2.5977,0.31547,0,0,0,0
512.11,2.7577,2.5963,0.31718,0,0,0,0
512.61,2.7611,2.595,0.31877,0,0,0,0
513.11,2.7647,2.594,0.3205,0,0,0,0
513.61,2.7683,2.593,0.32201,0,0,0,0
514.11,2.7717,2.5917,0.32376,0,0,0,0
514.61,2.7752,2.5903,0.32565,0,0,0,0
515.11,2.7782,2.589,0.32718,0,0,0,0
515.61,2.7816,2.5877,0.32909,0,0,0,0
516.11,2.785,2.5863,0.33071,0,0,0,0
516.61,2.7881,2.5847,0.33223,0,0,0,0
517.11,2.7921,2.583,0.33406,0,0,0,0
517.61,2.7954,2.5813,0.33574,0,0,0,0
518.11,2.7989,2.5797,0.33739,0,0,0,0
518.61,2.8025,2.5783,0.33904,0,0,0,0
519.11,2.8059,2.5767,0.34074,0,0,0,0
519.61,2.8095,2.575,0.3426,0,0,0,0
520.11,2.8128,2.573,0.3445,0,0,0,0
520.61,2.8164,2.5713,0.34655,0,0,0,0
521.11,2.8198,2.5697,0.34875,0,0,0,0
521.61,2.8235,2.568,0.35081,0,0,0,0
522.11,2.8267,2.566,0.3527,0,0,0,0
522.61,2.8304,2.5637,0.35449,0,0,0,0
523.11,2.8339,2.5616,0.35654,0,0,0,0
523.61,2.8375,2.5597,0.35837,0,0,0,0
524.11,2.8409,2.558,0.3602,0,0,0,0
524.61,2.8444,2.5557,0.36207,0,0,0,0
525.11,2.8477,2.5533,0.36396,0,0,0,0
525.61,2.8508,2.551,0.36599,0,0,0,0
526.11,2.8543,2.5487,0.36781,0,0,0,0
526.61,2.858,2.5463,0.37004,0,0,0,0
527.11,2.8618,2.544,0.37189,0,0,0,0
527.61,2.8653,2.5417,0.37392,0,0,0,0
528.11,2.8687,2.539,0.37584,0,0,0,0
528.61,2.8723,2.5363,0.3781,0,0,0,0
529.11,2.8759,2.5337,0.37977,0,0,0,0
529.61,2.8793,2.5313,0.38175,0,0,0,0
530.11,2.8826,2.5284,0.38356,0,0,0,0
530.61,2.8862,2.5256,0.3855,0,0,0,0
531.11,2.8899,2.523,0.38749,0,0,0,0
531.61,2.8935,2.5207,0.3896,0,0,0,0
532.11,2.897,2.518,0.39181,0,0,0,0
532.61,2.9005,2.5147,0.39407,0,0,0,0
533.11,2.9042,2.5116,0.39597,0,0,0,0
533.61,2.908,2.5084,0.39816,0,0,0,0
534.11,2.9116,2.5053,0.40008,0,0,0,0
534.61,2.915,2.502,0.40199,0,0,0,0
535.11,2.9186,2.499,0.40399,0,0,0,0
535.61,2.9222,2.4957,0.40629,0,0,0,0
536.11,2.9256,2.4923,0.4086,0,0,0,0
536.61,2.9294,2.4887,0.41089,0,0,0,0
537.11,2.9329,2.485,0.41351,0,0,0,0
537.61,2.9366,2.4813,0.41595,0,0,0,0
538.11,2.9401,2.4774,0.41823,0,0,0,0
538.61,2.9437,2.4736,0.42073,0,0,0,0
539.11,2.9473,2.4697,0.42306,0,0,0,0
539.61,2.9508,2.466,0.42544,0,0,0,0
540.11,2.9544,2.4623,0.428,0,0,0,0
540.61,2.9581,2.4584,0.43041,0,0,0,0
541.11,2.9617,2.4543,0.43296,0,0,0,0
541.61,2.9653,2.4497,0.43565,0,0,0,0
542.11,2.9692,2.4453,0.4383,0,0,0,0
542.61,2.9726,2.441,0.44098,0,0,0,0
543.11,2.9766,2.4367,0.44349,0,0,0,0
543.61,2.9802,2.4317,0.44598,0,0,0,0
544.11,2.9837,2.4266,0.44861,0,0,0,0
544.61,2.9876,2.4217,0.45096,0,0,0,0
545.11,2.991,2.4167,0.45361,0,0,0,0
545.61,2.9949,2.4116,0.45638,0,0,0,0
546.11,2.9985,2.4064,0.45891,0,0,0,0
546.61,3.0025,2.4013,0.46171,0,0,0,0
547.11,3.0064,2.3957,0.46416,0,0,0,0
547.61,3.0096,2.39,0.46679,0,0,0,0
548.11,3.0139,2.3837,0.46944,0,0,0,0
548.61,3.0177,2.3776,0.47198,0,0,0,0
549.11,3.0217,2.3717,0.47432,0,0,0,0
549.61,3.0254,2.3657,0.477,0,0,0,0
550.11,3.0292,2.359,0.47968,0,0,0,0
550.61,3.0333,2.3517,0.48271,0,0,0,0
551.11,3.0374,2.3443,0.48569,0,0,0,0
551.61,3.0412,2.3367,0.48858,0,0,0,0
552.11,3.0455,2.3276,0.49155,0,0,0,0