File: lab_data/AA6014-T4_results/DATA/NT20_45_2.csv
Time[s],Displacement[mm],Force[kN],AxStrain_1,AxStrain_2,Thickness[mm],OuterWidth[mm],InnerWidth[mm]
0.59,0,-0.0058493,0,0,1.1178,20,9.9524
1.09,0.000261,0.0034687,0.00012199,0,0,0,0
1.59,0.000645,0.014149,0.00021098,0,0,0,0
2.09,0.001096,0.036718,0.00018598,0,0,0,0
2.59,0.00156,0.062996,0.00025197,0,0,0,0
3.09,0.001816,0.086282,9.4995e-05,0,0,0,0
3.59,0.002153,0.10357,0.00020298,0,0,0,0
4.09,0.002319,0.11843,0.00021998,0,0,0,0
4.59,0.002875,0.13371,0.00029296,0,0,0,0
5.09,0.003006,0.15143,0.00028496,0,0,0,0
5.59,0.003234,0.17071,0.00026596,0,0,0,0
6.09,0.003429,0.18985,0.00030695,0,0,0,0
6.59,0.003649,0.20585,0.00016499,0,0,0,0
7.09,0.00378,0.217,0.00017998,0,0,0,0
7.59,0.003963,0.22515,0.00026197,0,0,0,0
8.09,0.004167,0.235,0.00023497,0,0,0,0
8.59,0.004372,0.24814,0.00021898,0,0,0,0
9.09,0.004847,0.262,0.00030395,0,0,0,0
9.59,0.005052,0.27586,0.00024697,0,0,0,0
10.09,0.005456,0.291,0.00036093,0,0,0,0
10.59,0.005999,0.30528,0.00024497,0,0,0,0
11.09,0.006354,0.31986,0.00018698,0,0,0,0
11.59,0.00638,0.335,0.00038093,0,0,0,0
12.09,0.007059,0.35,0.00035394,0,0,0,0
12.59,0.007266,0.36386,0.00036193,0,0,0,0
13.09,0.007694,0.37814,0.00039492,0,0,0,0
13.59,0.008007,0.39229,0.00031895,0,0,0,0
14.09,0.008546,0.40657,0.00037593,0,0,0,0
14.59,0.008701,0.42229,0.00039292,0,0,0,0
15.09,0.008816,0.43814,0.00043291,0,0,0,0
15.59,0.009017,0.45386,0.00035594,0,0,0,0
16.09,0.009081,0.46885,0.00036293,0,0,0,0
16.59,0.009397,0.48329,0.00042991,0,0,0,0
17.09,0.009746,0.49786,0.00039592,0,0,0,0
17.59,0.009904,0.51314,0.00041591,0,0,0,0
18.09,0.010357,0.528,0.00058083,0,0,0,0
18.59,0.010565,0.54286,0.00046689,0,0,0,0
19.09,0.010881,0.559,0.00049988,0,0,0,0
19.59,0.011109,0.57514,0.00048688,0,0,0,0
20.09,0.011525,0.59115,0.00040292,0,0,0,0
20.59,0.011888,0.60685,0.00057084,0,0,0,0
21.09,0.012546,0.622,0.00068477,0,0,0,0
21.59,0.013013,0.63686,0.00059382,0,0,0,0
22.09,0.013577,0.65214,0.00050987,0,0,0,0
22.59,0.0141,0.66729,0.00065479,0,0,0,0
23.09,0.014517,0.68257,0.0006348,0,0,0,0
23.59,0.015017,0.69929,0.00079169,0,0,0,0
24.09,0.015588,0.71585,0.00065479,0,0,0,0
24.59,0.016121,0.73215,0.00065479,0,0,0,0
25.09,0.016387,0.74785,0.0007687,0,0,0,0
25.59,0.016655,0.763,0.00071774,0,0,0,0
26.09,0.017021,0.77815,0.00071474,0,0,0,0
26.59,0.017588,0.79385,0.00074872,0,0,0,0
27.09,0.01776,0.809,0.00061781,0,0,0,0
27.59,0.018065,0.82386,0.00071774,0,0,0,0
28.09,0.018109,0.84029,0.00079169,0,0,0,0
28.59,0.018458,0.85685,0.00067777,0,0,0,0
29.09,0.018659,0.872,0.00067477,0,0,0,0
29.59,0.01925,0.88715,0.00087262,0,0,0,0
30.09,0.019176,0.90285,0.00076471,0,0,0,0
30.59,0.019855,0.91886,0.00069176,0,0,0,0
31.09,0.020241,0.93414,0.00097952,0,0,0,0
31.59,0.020586,0.94871,0.00098352,0,0,0,0
32.09,0.0211,0.96343,0.00083865,0,0,0,0
32.59,0.021735,0.97885,0.0010165,0,0,0,0
33.09,0.022362,0.99486,0.0010574,0,0,0,0
33.59,0.022879,1.011,0.00093656,0,0,0,0
34.09,0.023326,1.0271,0.00092257,0,0,0,0
34.59,0.02394,1.0417,0.0011144,0,0,0,0
35.09,0.024545,1.0561,0.0011104,0,0,0,0
35.59,0.025011,1.0709,0.0010734,0,0,0,0
36.09,0.024981,1.0853,0.0012083,0,0,0,0
36.59,0.025599,1.0996,0.0011443,0,0,0,0
37.09,0.025965,1.1153,0.0010534,0,0,0,0
37.59,0.026347,1.1309,0.0010035,0,0,0,0
38.09,0.026676,1.145,0.0012213,0,0,0,0
38.59,0.027496,1.1589,0.0010604,0,0,0,0
39.09,0.027808,1.1731,0.0011004,0,0,0,0
39.59,0.02814,1.1879,0.0012013,0,0,0,0
40.09,0.028483,1.2021,0.0011174,0,0,0,0
40.59,0.028969,1.2157,0.0011743,0,0,0,0
41.09,0.029705,1.2291,0.0013321,0,0,0,0
41.59,0.030285,1.2429,0.0013491,0,0,0,0
42.09,0.030974,1.2566,0.0015298,0,0,0,0
42.59,0.031746,1.2697,0.001416,0,0,0,0
43.09,0.032642,1.2827,0.0015528,0,0,0,0
43.59,0.033649,1.2941,0.0017375,0,0,0,0
44.09,0.034801,1.3046,0.0018114,0,0,0,0
44.59,0.036036,1.3141,0.0022804,0,0,0,0
45.09,0.037544,1.3227,0.0023073,0,0,0,0
45.59,0.038887,1.3309,0.0027193,0,0,0,0
46.09,0.040334,1.3394,0.0032308,0,0,0,0
46.59,0.041827,1.3477,0.0034152,0,0,0,0
47.09,0.043466,1.3553,0.0038396,0,0,0,0
47.59,0.045131,1.3627,0.0039173,0,0,0,0
48.09,0.046984,1.37,0.0041514,0,0,0,0
48.59,0.048834,1.3773,0.0043515,0,0,0,0
49.09,0.050925,1.3844,0.0043884,0,0,0,0
49.59,0.053171,1.391,0.004469,0,0,0,0
50.09,0.05538,1.3973,0.004689,0,0,0,0
50.59,0.057284,1.4037,0.0050433,0,0,0,0
51.09,0.059164,1.4103,0.0050831,0,0,0,0
51.59,0.06146,1.417,0.0053775,0,0,0,0
52.09,0.063481,1.4234,0.0055277,0,0,0,0
52.59,0.065281,1.429,0.0058449,0,0,0,0
53.09,0.067453,1.4346,0.0059383,0,0,0,0
53.59,0.069313,1.4404,0.006152,0,0,0,0
54.09,0.071549,1.446,0.0062683,0,0,0,0
54.59,0.073647,1.4513,0.0067283,0,0,0,0
55.09,0.075718,1.457,0.0070819,0,0,0,0
55.59,0.07832,1.4627,0.007205,0,0,0,0
56.09,0.080784,1.4677,0.0076616,0,0,0,0
56.59,0.083265,1.4726,0.0079186,0,0,0,0
57.09,0.08538,1.4777,0.0080287,0,0,0,0
57.59,0.087838,1.483,0.0082618,0,0,0,0
58.09,0.089896,1.488,0.0085047,0,0,0,0
58.59,0.092333,1.493,0.0085345,0,0,0,0
59.09,0.094381,1.498,0.0087645,0,0,0,0
59.59,0.096462,1.5027,0.0087109,0,0,0,0
60.09,0.098752,1.5073,0.0088705,0,0,0,0
60.59,0.101,1.512,0.0089736,0,0,0,0
61.09,0.10349,1.5167,0.0091272,0,0,0,0
61.59,0.10599,1.521,0.0093095,0,0,0,0
62.09,0.1087,1.5253,0.0094126,0,0,0,0
62.59,0.11122,1.5297,0.0097226,0,0,0,0
63.09,0.11375,1.5343,0.0098622,0,0,0,0
63.59,0.11602,1.5387,0.01025,0,0,0,0
64.09,0.11843,1.5433,0.01043,0,0,0,0
64.59,0.12068,1.5477,0.010822,0,0,0,0
65.09,0.12294,1.552,0.010998,0,0,0,0
65.59,0.12531,1.556,0.011324,0,0,0,0
66.09,0.12765,1.56,0.011569,0,0,0,0
66.59,0.13009,1.5643,0.011805,0,0,0,0
67.09,0.13263,1.5684,0.012143,0,0,0,0
67.59,0.13517,1.5726,0.012219,0,0,0,0
68.09,0.13795,1.5764,0.012389,0,0,0,0
68.59,0.14063,1.5806,0.012504,0,0,0,0
69.09,0.14283,1.5844,0.012644,0,0,0,0
69.59,0.14539,1.5883,0.01279,0,0,0,0
70.09,0.1476,1.5923,0.012919,0,0,0,0
70.59,0.1501,1.5964,0.012935,0,0,0,0
71.09,0.15251,1.6003,0.013045,0,0,0,0
71.59,0.15491,1.604,0.0132,0,0,0,0
72.09,0.15715,1.6077,0.013356,0,0,0,0
72.59,0.15985,1.6113,0.013502,0,0,0,0
73.09,0.16248,1.6153,0.013681,0,0,0,0
73.59,0.16517,1.6194,0.01385,0,0,0,0
74.09,0.16794,1.623,0.014052,0,0,0,0
74.59,0.17053,1.6263,0.014403,0,0,0,0
75.09,0.17322,1.6297,0.014627,0,0,0,0
75.59,0.17555,1.6333,0.014975,0,0,0,0
76.09,0.17791,1.637,0.0152,0,0,0,0
76.59,0.18038,1.641,0.015619,0,0,0,0
77.09,0.18275,1.6447,0.015726,0,0,0,0
77.59,0.18526,1.6483,0.01598,0,0,0,0
78.09,0.1881,1.6514,0.016139,0,0,0,0
78.59,0.19046,1.6546,0.016373,0,0,0,0
79.09,0.19304,1.658,0.016327,0,0,0,0
79.59,0.19593,1.6617,0.016426,0,0,0,0
80.09,0.19898,1.6653,0.016473,0,0,0,0
80.59,0.2016,1.6687,0.016512,0,0,0,0
81.09,0.20393,1.672,0.016799,0,0,0,0
81.59,0.2064,1.6753,0.016862,0,0,0,0
82.09,0.20895,1.6787,0.016938,0,0,0,0
82.59,0.21126,1.6823,0.017185,0,0,0,0
83.09,0.21393,1.6857,0.017443,0,0,0,0
83.59,0.21663,1.689,0.017492,0,0,0,0
84.09,0.21902,1.692,0.017822,0,0,0,0
84.59,0.22192,1.6953,0.017871,0,0,0,0
85.09,0.22503,1.6987,0.018267,0,0,0,0
85.59,0.22782,1.702,0.018534,0,0,0,0
86.09,0.23056,1.705,0.018801,0,0,0,0
86.59,0.2333,1.7083,0.019032,0,0,0,0
87.09,0.23588,1.7114,0.019203,0,0,0,0
87.59,0.2385,1.7143,0.019473,0,0,0,0
88.09,0.24091,1.7173,0.019611,0,0,0,0
88.59,0.24358,1.7207,0.019871,0,0,0,0
89.09,0.24613,1.724,0.020092,0,0,0,0
89.59,0.24898,1.727,0.020135,0,0,0,0
90.09,0.25171,1.7303,0.020171,0,0,0,0
90.59,0.25477,1.7334,0.020198,0,0,0,0
91.09,0.25751,1.7366,0.0205,0,0,0,0
91.59,0.26045,1.7397,0.02048,0,0,0,0
92.09,0.26306,1.7427,0.020651,0,0,0,0
92.59,0.26588,1.7456,0.020993,0,0,0,0
93.09,0.2681,1.7484,0.021006,0,0,0,0
93.59,0.27096,1.7516,0.021099,0,0,0,0
94.09,0.27331,1.7547,0.021414,0,0,0,0
94.59,0.27639,1.758,0.02169,0,0,0,0
95.09,0.27909,1.761,0.021894,0,0,0,0
95.59,0.2817,1.764,0.022157,0,0,0,0
96.09,0.28443,1.7667,0.022183,0,0,0,0
96.59,0.28748,1.7693,0.022498,0,0,0,0
97.09,0.29031,1.7723,0.022735,0,0,0,0
97.59,0.29308,1.7754,0.022832,0,0,0,0
98.09,0.29605,1.7783,0.023125,0,0,0,0
98.59,0.29857,1.781,0.02319,0,0,0,0
99.09,0.30123,1.784,0.023404,0,0,0,0
99.59,0.30394,1.787,0.023463,0,0,0,0
100.09,0.30636,1.79,0.023656,0,0,0,0
100.59,0.30935,1.7927,0.02383,0,0,0,0
101.09,0.31199,1.7953,0.023898,0,0,0,0
101.59,0.31494,1.798,0.024134,0,0,0,0
102.09,0.31792,1.801,0.024286,0,0,0,0
102.59,0.32046,1.804,0.024475,0,0,0,0
103.09,0.32357,1.8067,0.024639,0,0,0,0
103.59,0.3266,1.8093,0.02479,0,0,0,0
104.09,0.32919,1.812,0.024976,0,0,0,0
104.59,0.33137,1.815,0.025196,0,0,0,0
105.09,0.33405,1.8177,0.025324,0,0,0,0
105.59,0.33665,1.8203,0.02556,0,0,0,0
106.09,0.33946,1.823,0.025723,0,0,0,0
106.59,0.34232,1.8257,0.025916,0,0,0,0
107.09,0.34529,1.8283,0.026033,0,0,0,0
107.59,0.34846,1.831,0.026358,0,0,0,0
108.09,0.35109,1.834,0.026338,0,0,0,0
108.59,0.35422,1.8367,0.026573,0,0,0,0
109.09,0.35699,1.8393,0.026956,0,0,0,0
109.59,0.35978,1.8417,0.027015,0,0,0,0
110.09,0.362,1.844,0.02695,0,0,0,0
110.59,0.36478,1.8466,0.027195,0,0,0,0
111.09,0.36787,1.8494,0.027328,0,0,0,0
111.59,0.37037,1.8523,0.027547,0,0,0,0
112.09,0.373,1.8547,0.027812,0,0,0,0
112.59,0.37595,1.8573,0.027975,0,0,0,0
113.09,0.37918,1.8597,0.02804,0,0,0,0
113.59,0.38215,1.8623,0.028302,0,0,0,0
114.09,0.38467,1.8647,0.02853,0,0,0,0
114.59,0.3875,1.8673,0.028595,0,0,0,0
115.09,0.38997,1.8697,0.028857,0,0,0,0
115.59,0.39284,1.8723,0.029052,0,0,0,0
116.09,0.39523,1.8747,0.029052,0,0,0,0
116.59,0.39836,1.8773,0.02928,0,0,0,0
117.09,0.4009,1.88,0.029476,0,0,0,0
117.59,0.40373,1.8827,0.029508,0,0,0,0
118.09,0.40677,1.885,0.029834,0,0,0,0
118.59,0.40994,1.8873,0.0299,0,0,0,0
119.09,0.41283,1.8897,0.03003,0,0,0,0
119.59,0.41579,1.8923,0.030161,0,0,0,0
120.09,0.41839,1.8947,0.030291,0,0,0,0
120.59,0.42122,1.897,0.030713,0,0,0,0
121.09,0.42376,1.8993,0.030713,0,0,0,0
121.59,0.42653,1.902,0.030974,0,0,0,0
122.09,0.42897,1.9044,0.031202,0,0,0,0
122.59,0.43201,1.9066,0.031202,0,0,0,0
123.09,0.4346,1.9087,0.031463,0,0,0,0
123.59,0.43761,1.9113,0.031755,0,0,0,0
124.09,0.44092,1.914,0.031885,0,0,0,0
124.59,0.44355,1.9164,0.032081,0,0,0,0
125.09,0.44657,1.9186,0.032178,0,0,0,0
125.59,0.44912,1.9207,0.032405,0,0,0,0
126.09,0.45191,1.9233,0.032405,0,0,0,0
126.59,0.45485,1.9257,0.032698,0,0,0,0
127.09,0.45706,1.928,0.032893,0,0,0,0
127.59,0.46015,1.93,0.032893,0,0,0,0
128.09,0.46285,1.932,0.03312,0,0,0,0
128.59,0.46586,1.9343,0.033251,0,0,0,0
129.09,0.4688,1.9367,0.033348,0,0,0,0
129.59,0.47183,1.9393,0.03351,0,0,0,0
130.09,0.47492,1.9414,0.033802,0,0,0,0
130.59,0.47743,1.9436,0.033802,0,0,0,0
131.09,0.4805,1.946,0.034062,0,0,0,0
131.59,0.48311,1.9487,0.034225,0,0,0,0
132.09,0.48568,1.951,0.034451,0,0,0,0
132.59,0.48849,1.953,0.034581,0,0,0,0
133.09,0.49119,1.9553,0.034938,0,0,0,0
133.59,0.49405,1.9577,0.035035,0,0,0,0
134.09,0.49697,1.96,0.035165,0,0,0,0
134.59,0.50004,1.962,0.035456,0,0,0,0
135.09,0.50305,1.964,0.035522,0,0,0,0
135.59,0.50592,1.966,0.035813,0,0,0,0
136.09,0.50886,1.9683,0.035975,0,0,0,0
136.59,0.51182,1.9704,0.03604,0,0,0,0
137.09,0.51452,1.9726,0.036298,0,0,0,0
137.59,0.51706,1.9747,0.036234,0,0,0,0
138.09,0.51956,1.977,0.036589,0,0,0,0
138.59,0.52236,1.9793,0.03659,0,0,0,0
139.09,0.52525,1.9817,0.036817,0,0,0,0
139.59,0.52822,1.984,0.036946,0,0,0,0
140.09,0.53122,1.986,0.03714,0,0,0,0
140.59,0.53444,1.988,0.03714,0,0,0,0
141.09,0.5372,1.99,0.037399,0,0,0,0
141.59,0.54025,1.992,0.03769,0,0,0,0
142.09,0.54312,1.9943,0.037852,0,0,0,0
142.59,0.54579,1.9967,0.038078,0,0,0,0
143.09,0.54815,1.999,0.038304,0,0,0,0
143.59,0.55111,2.001,0.038239,0,0,0,0
144.09,0.55406,2.003,0.038466,0,0,0,0
144.59,0.55673,2.005,0.038821,0,0,0,0
145.09,0.55978,2.007,0.03895,0,0,0,0
145.59,0.56273,2.0087,0.039144,0,0,0,0
146.09,0.56608,2.0106,0.03937,0,0,0,0
146.59,0.56894,2.0127,0.03937,0,0,0,0
147.09,0.57177,2.015,0.039531,0,0,0,0
147.59,0.57471,2.017,0.039886,0,0,0,0
148.09,0.57714,2.019,0.039919,0,0,0,0
148.59,0.57992,2.021,0.040047,0,0,0,0
149.09,0.58286,2.023,0.040306,0,0,0,0
149.59,0.58553,2.0253,0.040499,0,0,0,0
150.09,0.58845,2.0274,0.040531,0,0,0,0
150.59,0.59128,2.0293,0.040789,0,0,0,0
151.09,0.59437,2.031,0.040983,0,0,0,0
151.59,0.59753,2.033,0.041176,0,0,0,0
152.09,0.60047,2.035,0.041241,0,0,0,0
152.59,0.60355,2.037,0.041434,0,0,0,0
153.09,0.60612,2.039,0.041659,0,0,0,0
153.59,0.60883,2.041,0.041949,0,0,0,0
154.09,0.61151,2.0433,0.042013,0,0,0,0
154.59,0.61435,2.0454,0.042207,0,0,0,0
155.09,0.61718,2.0473,0.042271,0,0,0,0
155.59,0.62036,2.049,0.042625,0,0,0,0
156.09,0.62338,2.051,0.042625,0,0,0,0
156.59,0.62633,2.053,0.042882,0,0,0,0
157.09,0.62932,2.055,0.043075,0,0,0,0
157.59,0.63233,2.057,0.043332,0,0,0,0
158.09,0.63513,2.059,0.043332,0,0,0,0
158.59,0.63793,2.061,0.043493,0,0,0,0
159.09,0.64074,2.063,0.043815,0,0,0,0
159.59,0.64332,2.0647,0.043878,0,0,0,0
160.09,0.64636,2.0666,0.044007,0,0,0,0
160.59,0.64925,2.0684,0.044265,0,0,0,0
161.09,0.6522,2.0703,0.04436,0,0,0,0
161.59,0.65515,2.072,0.04436,0,0,0,0
162.09,0.65812,2.074,0.044682,0,0,0,0
162.59,0.66145,2.076,0.044778,0,0,0,0
163.09,0.6642,2.078,0.045003,0,0,0,0
163.59,0.66703,2.08,0.045196,0,0,0,0
164.09,0.67003,2.0817,0.04542,0,0,0,0
164.59,0.67245,2.0836,0.04558,0,0,0,0
165.09,0.67534,2.0854,0.045806,0,0,0,0
165.59,0.67824,2.0873,0.046029,0,0,0,0
166.09,0.68112,2.089,0.04635,0,0,0,0
166.59,0.68416,2.091,0.04651,0,0,0,0
167.09,0.68723,2.093,0.04651,0,0,0,0
167.59,0.69027,2.095,0.046735,0,0,0,0
168.09,0.69323,2.0967,0.046863,0,0,0,0
168.59,0.69622,2.0983,0.047183,0,0,0,0
169.09,0.69922,2.1,0.047279,0,0,0,0
169.59,0.70182,2.102,0.047279,0,0,0,0
170.09,0.7045,2.104,0.047599,0,0,0,0
170.59,0.70735,2.1057,0.047664,0,0,0,0
171.09,0.70998,2.1073,0.047952,0,0,0,0
171.59,0.7131,2.109,0.048112,0,0,0,0
172.09,0.71587,2.111,0.048367,0,0,0,0
172.59,0.71911,2.113,0.048432,0,0,0,0
173.09,0.72212,2.1147,0.048655,0,0,0,0
173.59,0.72528,2.1163,0.048719,0,0,0,0
174.09,0.7282,2.1177,0.048847,0,0,0,0
174.59,0.73079,2.1196,0.049102,0,0,0,0
175.09,0.73364,2.1214,0.049423,0,0,0,0
175.59,0.73647,2.1233,0.049422,0,0,0,0
176.09,0.73915,2.125,0.049742,0,0,0,0
176.59,0.74196,2.127,0.04987,0,0,0,0
177.09,0.74499,2.1287,0.050125,0,0,0,0
177.59,0.74798,2.1303,0.050189,0,0,0,0
178.09,0.75117,2.132,0.050413,0,0,0,0
178.59,0.75425,2.134,0.050572,0,0,0,0
179.09,0.75729,2.1357,0.050923,0,0,0,0
179.59,0.76016,2.137,0.050923,0,0,0,0
180.09,0.763,2.1386,0.051275,0,0,0,0
180.59,0.76567,2.1404,0.051338,0,0,0,0
181.09,0.76846,2.1423,0.051594,0,0,0,0
181.59,0.7712,2.144,0.051657,0,0,0,0
182.09,0.77412,2.1457,0.05172,0,0,0,0
182.59,0.77696,2.1473,0.05188,0,0,0,0
183.09,0.7798,2.149,0.052167,0,0,0,0
183.59,0.78308,2.151,0.05239,0,0,0,0
184.09,0.78618,2.1527,0.052517,0,0,0,0
184.59,0.78909,2.1543,0.052581,0,0,0,0
185.09,0.79201,2.1557,0.052836,0,0,0,0
185.59,0.79484,2.1573,0.053058,0,0,0,0
186.09,0.79749,2.1587,0.053282,0,0,0,0
186.59,0.80012,2.1603,0.053505,0,0,0,0
187.09,0.80288,2.162,0.053632,0,0,0,0
187.59,0.80604,2.1637,0.053695,0,0,0,0
188.09,0.80867,2.1653,0.054078,0,0,0,0
188.59,0.81181,2.167,0.054236,0,0,0,0
189.09,0.81503,2.169,0.054428,0,0,0,0
189.59,0.81789,2.1707,0.054522,0,0,0,0
190.09,0.8209,2.1723,0.054713,0,0,0,0
190.59,0.8236,2.1737,0.054873,0,0,0,0
191.09,0.82649,2.1753,0.054999,0,0,0,0
191.59,0.82936,2.1767,0.055127,0,0,0,0
192.09,0.83195,2.1783,0.055381,0,0,0,0
192.59,0.8348,2.1797,0.055666,0,0,0,0
193.09,0.83772,2.1813,0.055666,0,0,0,0
193.59,0.84062,2.183,0.055952,0,0,0,0
194.09,0.84361,2.1847,0.05608,0,0,0,0
194.59,0.84685,2.1863,0.056206,0,0,0,0
195.09,0.84968,2.1877,0.056301,0,0,0,0
195.59,0.85263,2.1893,0.056651,0,0,0,0
196.09,0.85543,2.191,0.056904,0,0,0,0
196.59,0.85817,2.1927,0.056904,0,0,0,0
197.09,0.86104,2.194,0.057221,0,0,0,0
197.59,0.86376,2.1953,0.057412,0,0,0,0
198.09,0.86662,2.1967,0.057634,0,0,0,0
198.59,0.86946,2.1983,0.057729,0,0,0,0
199.09,0.8721,2.2,0.057887,0,0,0,0
199.59,0.87516,2.2017,0.058045,0,0,0,0
200.09,0.87843,2.2033,0.058204,0,0,0,0
200.59,0.88151,2.205,0.058521,0,0,0,0
201.09,0.88435,2.2067,0.058679,0,0,0,0
201.59,0.88717,2.208,0.058774,0,0,0,0
202.09,0.88987,2.2093,0.059027,0,0,0,0
202.59,0.89269,2.2107,0.05947,0,0,0,0
203.09,0.89561,2.2123,0.059312,0,0,0,0
203.59,0.89823,2.2137,0.059438,0,0,0,0
204.09,0.9013,2.2153,0.059755,0,0,0,0
204.59,0.90433,2.217,0.059913,0,0,0,0
205.09,0.90732,2.2187,0.059976,0,0,0,0
205.59,0.91051,2.22,0.060418,0,0,0,0
206.09,0.91342,2.221,0.060546,0,0,0,0
206.59,0.91641,2.2223,0.060829,0,0,0,0
207.09,0.91912,2.2237,0.060893,0,0,0,0
207.59,0.9218,2.2253,0.061177,0,0,0,0
208.09,0.92474,2.227,0.061334,0,0,0,0
208.59,0.92752,2.2287,0.061493,0,0,0,0
209.09,0.93034,2.23,0.061682,0,0,0,0
209.59,0.93336,2.2313,0.061967,0,0,0,0
210.09,0.93615,2.233,0.06203,0,0,0,0
210.59,0.93905,2.2347,0.062219,0,0,0,0
211.09,0.94242,2.2363,0.062251,0,0,0,0
211.59,0.9455,2.2377,0.062534,0,0,0,0
212.09,0.94826,2.239,0.062755,0,0,0,0
212.59,0.95121,2.2403,0.062818,0,0,0,0
213.09,0.95384,2.2417,0.063133,0,0,0,0
213.59,0.95669,2.243,0.063291,0,0,0,0
214.09,0.95925,2.2443,0.063322,0,0,0,0
214.59,0.96218,2.2457,0.063637,0,0,0,0
215.09,0.96544,2.2473,0.063952,0,0,0,0
215.59,0.96825,2.249,0.064078,0,0,0,0
216.09,0.97132,2.2504,0.064141,0,0,0,0
216.59,0.97445,2.2516,0.064424,0,0,0,0
217.09,0.97745,2.2527,0.064645,0,0,0,0
217.59,0.98025,2.2543,0.064834,0,0,0,0
218.09,0.98301,2.2557,0.064929,0,0,0,0
218.59,0.9858,2.257,0.065305,0,0,0,0
219.09,0.98847,2.2583,0.065526,0,0,0,0
219.59,0.99131,2.2597,0.06562,0,0,0,0
220.09,0.99422,2.2613,0.065683,0,0,0,0
220.59,0.99724,2.2627,0.06584,0,0,0,0
221.09,1.0004,2.264,0.066124,0,0,0,0
221.59,1.0035,2.2653,0.066249,0,0,0,0
222.09,1.0065,2.2667,0.0665,0,0,0,0
222.59,1.0092,2.268,0.066595,0,0,0,0
223.09,1.0122,2.2693,0.066689,0,0,0,0
223.59,1.0148,2.2707,0.066909,0,0,0,0
224.09,1.0175,2.272,0.067128,0,0,0,0
224.59,1.0205,2.2733,0.067536,0,0,0,0
225.09,1.0232,2.2747,0.067411,0,0,0,0
225.59,1.026,2.2763,0.067756,0,0,0,0
226.09,1.0291,2.2777,0.068195,0,0,0,0
226.59,1.0322,2.279,0.068258,0,0,0,0
227.09,1.0351,2.2803,0.068195,0,0,0,0
227.59,1.0382,2.2817,0.068635,0,0,0,0
228.09,1.0414,2.283,0.068885,0,0,0,0
228.59,1.044,2.284,0.069042,0,0,0,0
229.09,1.047,2.2853,0.069074,0,0,0,0
229.59,1.0496,2.2867,0.069449,0,0,0,0
230.09,1.0523,2.288,0.069355,0,0,0,0
230.59,1.0551,2.2893,0.069543,0,0,0,0
231.09,1.0581,2.2907,0.069763,0,0,0,0
231.59,1.0612,2.292,0.069981,0,0,0,0
232.09,1.0642,2.2933,0.070138,0,0,0,0
232.59,1.0674,2.2947,0.070389,0,0,0,0
233.09,1.0702,2.296,0.070607,0,0,0,0
233.59,1.0734,2.2973,0.070702,0,0,0,0
234.09,1.0759,2.2987,0.071077,0,0,0,0
234.59,1.0789,2.3,0.071296,0,0,0,0
235.09,1.0815,2.301,0.071327,0,0,0,0
235.59,1.0843,2.3023,0.07167,0,0,0,0
236.09,1.0872,2.3037,0.071889,0,0,0,0
236.59,1.0903,2.305,0.072077,0,0,0,0
237.09,1.0932,2.306,0.072327,0,0,0,0
237.59,1.0966,2.307,0.072514,0,0,0,0
238.09,1.0995,2.3083,0.07267,0,0,0,0
238.59,1.1025,2.3097,0.072733,0,0,0,0
239.09,1.1053,2.311,0.07292,0,0,0,0
239.59,1.1082,2.3123,0.073232,0,0,0,0
240.09,1.1111,2.3137,0.07345,0,0,0,0
240.59,1.1136,2.315,0.073513,0,0,0,0
241.09,1.1165,2.316,0.073637,0,0,0,0
241.59,1.1197,2.317,0.073794,0,0,0,0
242.09,1.1226,2.3183,0.074043,0,0,0,0
242.59,1.1258,2.3197,0.074261,0,0,0,0
243.09,1.1288,2.321,0.074511,0,0,0,0
243.59,1.1319,2.322,0.074697,0,0,0,0
244.09,1.1347,2.323,0.074885,0,0,0,0
244.59,1.1378,2.3243,0.07504,0,0,0,0
245.09,1.1406,2.3257,0.075227,0,0,0,0
245.59,1.1434,2.327,0.075601,0,0,0,0
246.09,1.146,2.328,0.075694,0,0,0,0
246.59,1.1488,2.329,0.075849,0,0,0,0
247.09,1.1519,2.3303,0.076099,0,0,0,0
247.59,1.155,2.3317,0.076378,0,0,0,0
248.09,1.1579,2.333,0.076441,0,0,0,0
248.59,1.1613,2.334,0.07672,0,0,0,0
249.09,1.1642,2.335,0.076907,0,0,0,0
249.59,1.1672,2.336,0.077031,0,0,0,0
250.09,1.1702,2.3373,0.077249,0,0,0,0
250.59,1.1729,2.3387,0.077404,0,0,0,0
251.09,1.1755,2.34,0.077746,0,0,0,0
251.59,1.1785,2.341,0.077746,0,0,0,0
252.09,1.1811,2.3423,0.077995,0,0,0,0
252.59,1.184,2.3437,0.078212,0,0,0,0
253.09,1.1871,2.345,0.078554,0,0,0,0
253.59,1.1902,2.346,0.078615,0,0,0,0
254.09,1.1934,2.347,0.07871,0,0,0,0
254.59,1.1965,2.348,0.078988,0,0,0,0
255.09,1.1994,2.349,0.079299,0,0,0,0
255.59,1.2019,2.35,0.079453,0,0,0,0
256.09,1.205,2.3513,0.07964,0,0,0,0
256.59,1.2075,2.3527,0.079918,0,0,0,0
257.09,1.2104,2.354,0.080073,0,0,0,0
257.59,1.2131,2.355,0.080197,0,0,0,0
258.09,1.2161,2.356,0.080414,0,0,0,0
258.59,1.2191,2.3573,0.080601,0,0,0,0
259.09,1.2223,2.3584,0.080848,0,0,0,0
259.59,1.2254,2.3593,0.081064,0,0,0,0
260.09,1.2283,2.3603,0.081219,0,0,0,0
260.59,1.231,2.3617,0.081435,0,0,0,0
261.09,1.2338,2.363,0.081653,0,0,0,0
261.59,1.2368,2.364,0.081808,0,0,0,0
262.09,1.2397,2.365,0.082055,0,0,0,0
262.59,1.2422,2.366,0.082302,0,0,0,0
263.09,1.245,2.367,0.082611,0,0,0,0
263.59,1.248,2.3683,0.082797,0,0,0,0
264.09,1.2511,2.3697,0.083043,0,0,0,0
264.59,1.2542,2.3707,0.083168,0,0,0,0
265.09,1.2573,2.3713,0.083384,0,0,0,0
265.59,1.2601,2.372,0.083662,0,0,0,0
266.09,1.2631,2.3733,0.083815,0,0,0,0
266.59,1.2657,2.3747,0.084001,0,0,0,0
267.09,1.2685,2.376,0.084218,0,0,0,0
267.59,1.2708,2.377,0.084341,0,0,0,0
268.09,1.2739,2.378,0.084619,0,0,0,0
268.59,1.2766,2.379,0.084773,0,0,0,0
269.09,1.2796,2.38,0.084896,0,0,0,0
269.59,1.2829,2.3813,0.085328,0,0,0,0
270.09,1.2859,2.3827,0.085544,0,0,0,0
270.59,1.2892,2.384,0.085821,0,0,0,0
271.09,1.292,2.385,0.085882,0,0,0,0
271.59,1.2949,2.386,0.086129,0,0,0,0
272.09,1.2976,2.3867,0.086499,0,0,0,0
272.59,1.3004,2.3873,0.086683,0,0,0,0
273.09,1.3032,2.388,0.086838,0,0,0,0
273.59,1.3061,2.389,0.087022,0,0,0,0
274.09,1.3091,2.3903,0.087299,0,0,0,0
274.59,1.3121,2.3914,0.087545,0,0,0,0
275.09,1.3151,2.3926,0.087607,0,0,0,0
275.59,1.3181,2.3937,0.087914,0,0,0,0
276.09,1.3212,2.395,0.088006,0,0,0,0
276.59,1.3242,2.3957,0.088221,0,0,0,0
277.09,1.3269,2.3966,0.088591,0,0,0,0
277.59,1.3298,2.3977,0.088683,0,0,0,0
278.09,1.3325,2.3987,0.089051,0,0,0,0
278.59,1.3351,2.3996,0.089204,0,0,0,0
279.09,1.338,2.4007,0.08945,0,0,0,0
279.59,1.341,2.402,0.089543,0,0,0,0
280.09,1.3437,2.403,0.089604,0,0,0,0
280.59,1.347,2.404,0.090034,0,0,0,0
281.09,1.35,2.4047,0.090278,0,0,0,0
281.59,1.3533,2.4056,0.090401,0,0,0,0
282.09,1.356,2.4067,0.0908,0,0,0,0
282.59,1.3589,2.408,0.091046,0,0,0,0
283.09,1.3617,2.409,0.091076,0,0,0,0
283.59,1.3644,2.41,0.091505,0,0,0,0
284.09,1.3672,2.411,0.091627,0,0,0,0
284.59,1.37,2.412,0.09178,0,0,0,0
285.09,1.373,2.413,0.091996,0,0,0,0
285.59,1.3764,2.414,0.092301,0,0,0,0
286.09,1.3793,2.415,0.092577,0,0,0,0
286.59,1.3825,2.416,0.092515,0,0,0,0
287.09,1.3853,2.417,0.092914,0,0,0,0
287.59,1.3884,2.418,0.093189,0,0,0,0
288.09,1.3911,2.419,0.093373,0,0,0,0
288.59,1.394,2.4197,0.093525,0,0,0,0
289.09,1.3968,2.4203,0.093831,0,0,0,0
289.59,1.3996,2.421,0.093953,0,0,0,0
290.09,1.4026,2.422,0.094168,0,0,0,0
290.59,1.4054,2.423,0.094351,0,0,0,0
291.09,1.4084,2.424,0.094534,0,0,0,0
291.59,1.4115,2.425,0.094931,0,0,0,0
292.09,1.4147,2.426,0.095114,0,0,0,0
292.59,1.4177,2.427,0.09542,0,0,0,0
293.09,1.4205,2.428,0.095633,0,0,0,0
293.59,1.4233,2.429,0.095786,0,0,0,0
294.09,1.4262,2.43,0.095876,0,0,0,0
294.59,1.429,2.431,0.096304,0,0,0,0
295.09,1.4316,2.432,0.096608,0,0,0,0
295.59,1.4345,2.433,0.096548,0,0,0,0
296.09,1.4377,2.434,0.096975,0,0,0,0
296.59,1.4409,2.435,0.097188,0,0,0,0
297.09,1.4441,2.436,0.097402,0,0,0,0
297.59,1.4471,2.437,0.097676,0,0,0,0
298.09,1.4499,2.4377,0.09801,0,0,0,0
298.59,1.4528,2.4383,0.098132,0,0,0,0
299.09,1.4558,2.439,0.098467,0,0,0,0
299.59,1.4585,2.44,0.098498,0,0,0,0
300.09,1.4613,2.441,0.098954,0,0,0,0
300.59,1.4641,2.442,0.099076,0,0,0,0
301.09,1.467,2.443,0.099288,0,0,0,0
301.59,1.4699,2.444,0.099318,0,0,0,0
302.09,1.4731,2.4447,0.099713,0,0,0,0
302.59,1.4763,2.4453,0.099744,0,0,0,0
303.09,1.4792,2.446,0.10011,0,0,0,0
303.59,1.482,2.447,0.10041,0,0,0,0
304.09,1.485,2.448,0.10053,0,0,0,0
304.59,1.4876,2.449,0.10065,0,0,0,0
305.09,1.4902,2.45,0.10114,0,0,0,0
305.59,1.4933,2.451,0.10123,0,0,0,0
306.09,1.496,2.452,0.10163,0,0,0,0
306.59,1.4992,2.453,0.10193,0,0,0,0
307.09,1.5021,2.454,0.10196,0,0,0,0
307.59,1.5054,2.4547,0.10244,0,0,0,0
308.09,1.5083,2.4553,0.10263,0,0,0,0
308.59,1.5114,2.456,0.10278,0,0,0,0
309.09,1.5142,2.457,0.10299,0,0,0,0
309.59,1.5172,2.458,0.10326,0,0,0,0
310.09,1.5199,2.459,0.10353,0,0,0,0
310.59,1.5227,2.46,0.10372,0,0,0,0
311.09,1.5255,2.4607,0.10399,0,0,0,0
311.59,1.5284,2.4613,0.10414,0,0,0,0
312.09,1.5314,2.462,0.10447,0,0,0,0
312.59,1.5345,2.463,0.1045,0,0,0,0
313.09,1.5375,2.464,0.10483,0,0,0,0
313.59,1.5406,2.4647,0.10505,0,0,0,0
314.09,1.5436,2.4653,0.10538,0,0,0,0
314.59,1.5464,2.466,0.10559,0,0,0,0
315.09,1.5494,2.4673,0.1058,0,0,0,0
315.59,1.552,2.4684,0.10595,0,0,0,0
316.09,1.555,2.4693,0.10631,0,0,0,0
316.59,1.5579,2.47,0.10656,0,0,0,0
317.09,1.5608,2.471,0.1068,0,0,0,0
317.59,1.5638,2.472,0.10692,0,0,0,0
318.09,1.5671,2.4727,0.10731,0,0,0,0
318.59,1.5701,2.4733,0.10761,0,0,0,0
319.09,1.5732,2.474,0.10794,0,0,0,0
319.59,1.5762,2.475,0.10815,0,0,0,0
320.09,1.5791,2.4757,0.1084,0,0,0,0
320.59,1.582,2.4763,0.10852,0,0,0,0
321.09,1.5848,2.477,0.10882,0,0,0,0
321.59,1.5876,2.478,0.10891,0,0,0,0
322.09,1.5907,2.479,0.1093,0,0,0,0
322.59,1.5937,2.4797,0.10942,0,0,0,0
323.09,1.5967,2.4803,0.10978,0,0,0,0
323.59,1.5999,2.481,0.10999,0,0,0,0
324.09,1.6031,2.482,0.11014,0,0,0,0
324.59,1.6061,2.483,0.11035,0,0,0,0
325.09,1.6091,2.4837,0.11071,0,0,0,0
325.59,1.6118,2.4843,0.11083,0,0,0,0
326.09,1.6144,2.485,0.1111,0,0,0,0
326.59,1.6175,2.486,0.11152,0,0,0,0
327.09,1.6205,2.4867,0.11176,0,0,0,0
327.59,1.6234,2.4873,0.11194,0,0,0,0
328.09,1.6264,2.488,0.11233,0,0,0,0
328.59,1.6296,2.489,0.11261,0,0,0,0
329.09,1.6327,2.49,0.11299,0,0,0,0
329.59,1.6357,2.4907,0.11299,0,0,0,0
330.09,1.6388,2.4913,0.1135,0,0,0,0
330.59,1.6417,2.492,0.11368,0,0,0,0
331.09,1.6448,2.493,0.11389,0,0,0,0
331.59,1.6475,2.494,0.11425,0,0,0,0
332.09,1.6503,2.4947,0.11452,0,0,0,0
332.59,1.6531,2.4953,0.1147,0,0,0,0
333.09,1.6561,2.496,0.115,0,0,0,0
333.59,1.6595,2.497,0.11524,0,0,0,0
334.09,1.6625,2.4977,0.11533,0,0,0,0
334.59,1.6659,2.4983,0.11557,0,0,0,0
335.09,1.6686,2.499,0.11587,0,0,0,0
335.59,1.6716,2.5,0.11614,0,0,0,0
336.09,1.6745,2.5007,0.11632,0,0,0,0
336.59,1.6774,2.5013,0.11647,0,0,0,0
337.09,1.6803,2.502,0.11694,0,0,0,0
337.59,1.6829,2.503,0.11718,0,0,0,0
338.09,1.6857,2.5037,0.1176,0,0,0,0
338.59,1.689,2.5043,0.11769,0,0,0,0
339.09,1.6921,2.505,0.11802,0,0,0,0
339.59,1.6951,2.506,0.11823,0,0,0,0
340.09,1.6982,2.5067,0.1185,0,0,0,0
340.59,1.7013,2.5073,0.11888,0,0,0,0
341.09,1.7043,2.508,0.11894,0,0,0,0
341.59,1.7071,2.509,0.11942,0,0,0,0
342.09,1.7099,2.5097,0.11963,0,0,0,0
342.59,1.7129,2.5103,0.1199,0,0,0,0
343.09,1.7156,2.5107,0.12005,0,0,0,0
343.59,1.7186,2.5113,0.12043,0,0,0,0
344.09,1.7217,2.512,0.12079,0,0,0,0
344.59,1.7248,2.513,0.12091,0,0,0,0
345.09,1.728,2.5137,0.12106,0,0,0,0
345.59,1.731,2.5143,0.12139,0,0,0,0
346.09,1.734,2.515,0.12162,0,0,0,0
346.59,1.7368,2.5157,0.12186,0,0,0,0
347.09,1.7397,2.5163,0.12219,0,0,0,0
347.59,1.7424,2.517,0.12243,0,0,0,0
348.09,1.7455,2.518,0.12257,0,0,0,0
348.59,1.7485,2.5187,0.12287,0,0,0,0
349.09,1.7515,2.5193,0.12317,0,0,0,0
349.59,1.7546,2.52,0.12352,0,0,0,0
350.09,1.7578,2.5207,0.12382,0,0,0,0
350.59,1.7608,2.5213,0.12409,0,0,0,0
351.09,1.7638,2.522,0.12435,0,0,0,0
351.59,1.7668,2.5227,0.12474,0,0,0,0
352.09,1.7696,2.5233,0.12498,0,0,0,0
352.59,1.7727,2.524,0.12527,0,0,0,0
353.09,1.7752,2.5247,0.12554,0,0,0,0
353.59,1.7784,2.5253,0.12584,0,0,0,0
354.09,1.7814,2.526,0.1261,0,0,0,0
354.59,1.7846,2.5267,0.12643,0,0,0,0
355.09,1.7878,2.5273,0.12675,0,0,0,0
355.59,1.7906,2.528,0.12699,0,0,0,0
356.09,1.7936,2.5287,0.12729,0,0,0,0
356.59,1.7967,2.5293,0.12749,0,0,0,0
357.09,1.7997,2.53,0.1277,0,0,0,0
357.59,1.8027,2.5307,0.12808,0,0,0,0
358.09,1.8055,2.5313,0.12829,0,0,0,0
358.59,1.8084,2.532,0.12847,0,0,0,0
359.09,1.8114,2.5327,0.12894,0,0,0,0
359.59,1.8144,2.5333,0.12923,0,0,0,0
360.09,1.8177,2.5337,0.12938,0,0,0,0
360.59,1.821,2.5343,0.12991,0,0,0,0
361.09,1.824,2.535,0.13012,0,0,0,0
361.59,1.8271,2.5357,0.13041,0,0,0,0
362.09,1.8299,2.5363,0.13053,0,0,0,0
362.59,1.8328,2.537,0.13094,0,0,0,0
363.09,1.8357,2.5377,0.13133,0,0,0,0
363.59,1.8387,2.5383,0.13168,0,0,0,0
364.09,1.8414,2.539,0.13203,0,0,0,0
364.59,1.8445,2.54,0.13224,0,0,0,0
365.09,1.8476,2.5407,0.13262,0,0,0,0
365.59,1.8508,2.541,0.13286,0,0,0,0
366.09,1.854,2.5413,0.13315,0,0,0,0
366.59,1.8569,2.542,0.13344,0,0,0,0
367.09,1.8602,2.5427,0.13374,0,0,0,0
367.59,1.863,2.5433,0.13403,0,0,0,0
368.09,1.8658,2.5437,0.13427,0,0,0,0
368.59,1.8689,2.5443,0.13456,0,0,0,0
369.09,1.8716,2.545,0.13482,0,0,0,0
369.59,1.8747,2.5457,0.13526,0,0,0,0
370.09,1.8777,2.5463,0.13553,0,0,0,0
370.59,1.8808,2.5467,0.13579,0,0,0,0
371.09,1.8842,2.5473,0.13606,0,0,0,0
371.59,1.8873,2.548,0.13626,0,0,0,0
372.09,1.8904,2.5487,0.13664,0,0,0,0
372.59,1.8932,2.5493,0.13693,0,0,0,0
373.09,1.8961,2.55,0.13731,0,0,0,0
373.59,1.8988,2.5507,0.13764,0,0,0,0
374.09,1.9019,2.5513,0.13793,0,0,0,0
374.59,1.9049,2.5517,0.13819,0,0,0,0
375.09,1.9077,2.5523,0.13851,0,0,0,0
375.59,1.9112,2.5527,0.13886,0,0,0,0
376.09,1.9142,2.5533,0.13921,0,0,0,0
376.59,1.9174,2.554,0.13954,0,0,0,0
377.09,1.9205,2.5547,0.13974,0,0,0,0
377.59,1.9235,2.5553,0.13989,0,0,0,0
378.09,1.9264,2.5557,0.14041,0,0,0,0
378.59,1.9294,2.5563,0.1407,0,0,0,0
379.09,1.9322,2.5567,0.14091,0,0,0,0
379.59,1.935,2.5573,0.14135,0,0,0,0
380.09,1.938,2.5577,0.14161,0,0,0,0
380.59,1.941,2.5583,0.1419,0,0,0,0
381.09,1.944,2.559,0.14219,0,0,0,0
381.59,1.9471,2.5597,0.14251,0,0,0,0
382.09,1.9505,2.5603,0.14286,0,0,0,0
382.59,1.9534,2.561,0.14327,0,0,0,0
383.09,1.9565,2.5617,0.14347,0,0,0,0
383.59,1.9593,2.562,0.1437,0,0,0,0
384.09,1.9622,2.5623,0.14408,0,0,0,0
384.59,1.9651,2.5627,0.14434,0,0,0,0
385.09,1.9681,2.5633,0.14469,0,0,0,0
385.59,1.9709,2.5637,0.14501,0,0,0,0
386.09,1.9741,2.5643,0.14539,0,0,0,0
386.59,1.9773,2.5647,0.14565,0,0,0,0
387.09,1.9805,2.5653,0.146,0,0,0,0
387.59,1.9837,2.566,0.1464,0,0,0,0
388.09,1.9865,2.5667,0.14664,0,0,0,0
388.59,1.9894,2.567,0.14698,0,0,0,0
389.09,1.9924,2.5673,0.14742,0,0,0,0
389.59,1.9951,2.568,0.14779,0,0,0,0
390.09,1.9981,2.5687,0.14826,0,0,0,0
390.59,2.0011,2.5693,0.1484,0,0,0,0
391.09,2.0042,2.5697,0.14866,0,0,0,0
391.59,2.0073,2.5703,0.1491,0,0,0,0
392.09,2.0106,2.5707,0.14953,0,0,0,0
392.59,2.0137,2.5713,0.14985,0,0,0,0
393.09,2.0169,2.5717,0.15017,0,0,0,0
393.59,2.0198,2.572,0.15054,0,0,0,0
394.09,2.0229,2.5723,0.1508,0,0,0,0
394.59,2.0259,2.5727,0.15124,0,0,0,0
395.09,2.0287,2.5733,0.15155,0,0,0,0
395.59,2.0318,2.5737,0.15193,0,0,0,0
396.09,2.0347,2.5743,0.15233,0,0,0,0
396.59,2.0379,2.5747,0.15273,0,0,0,0
397.09,2.0412,2.5753,0.15305,0,0,0,0
397.59,2.0442,2.5757,0.15345,0,0,0,0
398.09,2.0473,2.5763,0.15374,0,0,0,0
398.59,2.0503,2.577,0.15432,0,0,0,0
399.09,2.0535,2.5777,0.15452,0,0,0,0
399.59,2.0565,2.5783,0.15489,0,0,0,0
400.09,2.0593,2.5787,0.15509,0,0,0,0
400.59,2.0624,2.579,0.15558,0,0,0,0
401.09,2.0656,2.5793,0.15593,0,0,0,0
401.59,2.0685,2.58,0.15636,0,0,0,0
402.09,2.0719,2.5807,0.15673,0,0,0,0
402.59,2.075,2.581,0.15693,0,0,0,0
403.09,2.0782,2.5813,0.15745,0,0,0,0
403.59,2.0813,2.5817,0.15782,0,0,0,0
404.09,2.0845,2.582,0.15822,0,0,0,0
404.59,2.0874,2.5823,0.15854,0,0,0,0
405.09,2.0904,2.5827,0.15882,0,0,0,0
405.59,2.0935,2.5833,0.15931,0,0,0,0
406.09,2.0966,2.5837,0.15963,0,0,0,0
406.59,2.0996,2.5843,0.16005,0,0,0,0
407.09,2.1028,2.5847,0.16034,0,0,0,0
407.59,2.106,2.5853,0.16077,0,0,0,0
408.09,2.109,2.5857,0.16117,0,0,0,0
408.59,2.1123,2.5863,0.16137,0,0,0,0
409.09,2.1154,2.587,0.16186,0,0,0,0
409.59,2.1184,2.5877,0.16208,0,0,0,0
410.09,2.1215,2.588,0.16268,0,0,0,0
410.59,2.1246,2.5883,0.16305,0,0,0,0
411.09,2.1277,2.5887,0.16334,0,0,0,0
411.59,2.1306,2.589,0.16382,0,0,0,0
412.09,2.1339,2.589,0.16408,0,0,0,0
412.59,2.1371,2.5893,0.16456,0,0,0,0
413.09,2.1405,2.59,0.16491,0,0,0,0
413.59,2.1436,2.5907,0.16528,0,0,0,0
414.09,2.1466,2.591,0.1657,0,0,0,0
414.59,2.1498,2.5913,0.16596,0,0,0,0
415.09,2.1528,2.5917,0.16641,0,0,0,0
415.59,2.1557,2.592,0.16667,0,0,0,0
416.09,2.1587,2.5923,0.16712,0,0,0,0
416.59,2.1619,2.593,0.16747,0,0,0,0
417.09,2.1648,2.5937,0.16795,0,0,0,0
417.59,2.1682,2.594,0.16852,0,0,0,0
418.09,2.1716,2.5943,0.16874,0,0,0,0
418.59,2.1747,2.5947,0.1692,0,0,0,0
419.09,2.1779,2.5953,0.16968,0,0,0,0
419.59,2.1809,2.5957,0.17002,0,0,0,0
420.09,2.1841,2.596,0.1705,0,0,0,0
420.59,2.1871,2.596,0.17098,0,0,0,0
421.09,2.19,2.5963,0.17129,0,0,0,0
421.59,2.1931,2.5967,0.17163,0,0,0,0
422.09,2.1962,2.5973,0.17217,0,0,0,0
422.59,2.1993,2.5977,0.17251,0,0,0,0
423.09,2.2023,2.5983,0.17282,0,0,0,0
423.59,2.2057,2.5987,0.17318,0,0,0,0
424.09,2.209,2.5993,0.17369,0,0,0,0
424.59,2.2121,2.5997,0.17409,0,0,0,0
425.09,2.2151,2.6,0.17451,0,0,0,0
425.59,2.2181,2.6,0.17482,0,0,0,0
426.09,2.2211,2.6003,0.17536,0,0,0,0
426.59,2.2242,2.6007,0.17575,0,0,0,0
427.09,2.2273,2.601,0.17617,0,0,0,0
427.59,2.2306,2.6013,0.17659,0,0,0,0
428.09,2.2338,2.6017,0.17707,0,0,0,0
428.59,2.2371,2.602,0.17752,0,0,0,0
429.09,2.2402,2.602,0.1782,0,0,0,0
429.59,2.2435,2.6023,0.17845,0,0,0,0
430.09,2.2464,2.6027,0.17901,0,0,0,0
430.59,2.2496,2.6033,0.17957,0,0,0,0
431.09,2.2525,2.6037,0.18005,0,0,0,0
431.59,2.2556,2.604,0.18033,0,0,0,0
432.09,2.2586,2.6043,0.18086,0,0,0,0
432.59,2.2617,2.6047,0.18128,0,0,0,0
433.09,2.2649,2.6053,0.18184,0,0,0,0
433.59,2.2681,2.6057,0.18229,0,0,0,0
434.09,2.2714,2.606,0.18279,0,0,0,0
434.59,2.2748,2.6063,0.1831,0,0,0,0
435.09,2.2778,2.6067,0.18355,0,0,0,0
435.59,2.281,2.607,0.18397,0,0,0,0
436.09,2.2843,2.6073,0.18452,0,0,0,0
436.59,2.287,2.6077,0.18497,0,0,0,0
437.09,2.2902,2.608,0.18531,0,0,0,0
437.59,2.2934,2.608,0.18595,0,0,0,0
438.09,2.2965,2.6083,0.18628,0,0,0,0
438.59,2.2999,2.6087,0.18684,0,0,0,0
439.09,2.3031,2.609,0.18737,0,0,0,0
439.59,2.3064,2.609,0.18781,0,0,0,0
440.09,2.3096,2.609,0.1884,0,0,0,0
440.59,2.3128,2.6093,0.1889,0,0,0,0
441.09,2.3156,2.61,0.18929,0,0,0,0
441.59,2.3189,2.6107,0.18981,0,0,0,0
442.09,2.3219,2.611,0.19031,0,0,0,0
442.59,2.3251,2.611,0.19079,0,0,0,0
443.09,2.3282,2.6113,0.19137,0,0,0,0
443.59,2.3312,2.6117,0.19198,0,0,0,0
444.09,2.335,2.612,0.19242,0,0,0,0
444.59,2.3381,2.612,0.19306,0,0,0,0
445.09,2.3412,2.612,0.19356,0,0,0,0
445.59,2.3445,2.6123,0.19403,0,0,0,0
446.09,2.3475,2.6127,0.1945,0,0,0,0
446.59,2.3507,2.613,0.1951,0,0,0,0
447.09,2.3538,2.613,0.19552,0,0,0,0
447.59,2.3567,2.613,0.1961,0,0,0,0
448.09,2.3598,2.6133,0.19637,0,0,0,0
448.59,2.3632,2.6137,0.1969,0,0,0,0
449.09,2.3664,2.6143,0.19731,0,0,0,0
449.59,2.3697,2.6147,0.19775,0,0,0,0
450.09,2.3729,2.615,0.19825,0,0,0,0
450.59,2.376,2.615,0.19883,0,0,0,0
451.09,2.3792,2.6153,0.19938,0,0,0,0
451.59,2.3823,2.6157,0.19987,0,0,0,0
452.09,2.3853,2.616,0.20048,0,0,0,0
452.59,2.3884,2.616,0.201,0,0,0,0
453.09,2.3918,2.616,0.2016,0,0,0,0
453.59,2.395,2.616,0.20212,0,0,0,0
454.09,2.3983,2.6163,0.20273,0,0,0,0
454.59,2.4016,2.6167,0.2033,0,0,0,0
455.09,2.4048,2.617,0.20401,0,0,0,0
455.59,2.4081,2.617,0.20448,0,0,0,0
456.09,2.4111,2.617,0.20503,0,0,0,0
456.59,2.4142,2.6173,0.20555,0,0,0,0
457.09,2.4172,2.6177,0.20606,0,0,0,0
457.59,2.4202,2.618,0.20658,0,0,0,0
458.09,2.4234,2.618,0.20708,0,0,0,0
458.59,2.4267,2.618,0.20767,0,0,0,0
459.09,2.4299,2.6183,0.20822,0,0,0,0
459.59,2.4334,2.6187,0.20879,0,0,0,0
460.09,2.4367,2.619,0.20928,0,0,0,0
460.59,2.4399,2.619,0.21005,0,0,0,0
461.09,2.443,2.619,0.21059,0,0,0,0
461.59,2.4461,2.619,0.21127,0,0,0,0
462.09,2.4492,2.6193,0.21189,0,0,0,0
462.59,2.4522,2.6197,0.21241,0,0,0,0
463.09,2.4554,2.62,0.21306,0,0,0,0
463.59,2.4588,2.62,0.21374,0,0,0,0
464.09,2.4621,2.62,0.21439,0,0,0,0
464.59,2.4652,2.62,0.21488,0,0,0,0
465.09,2.4685,2.62,0.21553,0,0,0,0
465.59,2.4717,2.6203,0.21604,0,0,0,0
466.09,2.4749,2.6207,0.21661,0,0,0,0
466.59,2.478,2.621,0.21728,0,0,0,0
467.09,2.481,2.621,0.2179,0,0,0,0
467.59,2.4841,2.621,0.21861,0,0,0,0
468.09,2.4874,2.6213,0.2192,0,0,0,0
468.59,2.4905,2.6217,0.21982,0,0,0,0
469.09,2.4941,2.622,0.22052,0,0,0,0
469.59,2.4971,2.622,0.2213,0,0,0,0
470.09,2.5005,2.622,0.22192,0,0,0,0
470.59,2.504,2.622,0.22275,0,0,0,0
471.09,2.5074,2.622,0.22345,0,0,0,0
471.59,2.5105,2.622,0.22417,0,0,0,0
472.09,2.5135,2.622,0.22479,0,0,0,0
472.59,2.5165,2.622,0.22546,0,0,0,0
473.09,2.5196,2.622,0.22613,0,0,0,0
473.59,2.523,2.622,0.22683,0,0,0,0
474.09,2.5263,2.622,0.2275,0,0,0,0
474.59,2.5297,2.622,0.2283,0,0,0,0
475.09,2.5331,2.6223,0.22886,0,0,0,0
475.59,2.5364,2.6227,0.22985,0,0,0,0
476.09,2.5396,2.623,0.23041,0,0,0,0
476.59,2.5426,2.623,0.2311,0,0,0,0
477.09,2.5459,2.623,0.23185,0,0,0,0
477.59,2.5491,2.623,0.2327,0,0,0,0
478.09,2.5524,2.623,0.23334,0,0,0,0
478.59,2.5554,2.623,0.23416,0,0,0,0
479.09,2.5586,2.623,0.2349,0,0,0,0
479.59,2.5618,2.623,0.23565,0,0,0,0
480.09,2.5654,2.623,0.23649,0,0,0,0
480.59,2.5686,2.623,0.23729,0,0,0,0
481.09,2.5719,2.623,0.23806,0,0,0,0
481.58,2.5753,2.623,0.23885,0,0,0,0
482.09,2.5784,2.623,0.23954,0,0,0,0
482.59,2.5816,2.623,0.24041,0,0,0,0
483.09,2.5848,2.623,0.24115,0,0,0,0
483.59,2.5882,2.623,0.24191,0,0,0,0
484.09,2.5914,2.6227,0.24265,0,0,0,0
484.59,2.5947,2.6226,0.24355,0,0,0,0
485.09,2.5981,2.6227,0.24433,0,0,0,0
485.59,2.6017,2.623,0.24518,0,0,0,0
486.09,2.6049,2.623,0.24609,0,0,0,0
486.59,2.6081,2.6227,0.24683,0,0,0,0
487.09,2.6114,2.6223,0.24788,0,0,0,0
487.59,2.6146,2.622,0.24882,0,0,0,0
488.09,2.6175,2.622,0.24955,0,0,0,0
488.59,2.6208,2.622,0.25047,0,0,0,0
489.09,2.624,2.622,0.25133,0,0,0,0
489.59,2.6275,2.622,0.25222,0,0,0,0
490.09,2.6307,2.622,0.25305,0,0,0,0
490.59,2.6342,2.622,0.25373,0,0,0,0
491.08,2.6376,2.622,0.25459,0,0,0,0
491.59,2.6407,2.6217,0.2555,0,0,0,0
492.09,2.6441,2.6216,0.25625,0,0,0,0
492.59,2.6471,2.6214,0.25729,0,0,0,0
493.09,2.6506,2.6213,0.25822,0,0,0,0
493.59,2.6537,2.621,0.259,0,0,0,0
494.09,2.6569,2.621,0.25993,0,0,0,0
494.58,2.6605,2.621,0.26099,0,0,0,0
495.08,2.6638,2.621,0.26192,0,0,0,0
495.59,2.6672,2.6207,0.26291,0,0,0,0
496.09,2.6707,2.6206,0.26373,0,0,0,0
496.59,2.674,2.6204,0.26471,0,0,0,0
497.09,2.6773,2.6203,0.26574,0,0,0,0
497.58,2.6804,2.62,0.26659,0,0,0,0
498.09,2.6836,2.6197,0.26759,0,0,0,0
498.59,2.687,2.6193,0.26862,0,0,0,0
499.09,2.6899,2.619,0.26957,0,0,0,0
499.58,2.6935,2.619,0.2708,0,0,0,0
500.09,2.6971,2.6187,0.27177,0,0,0,0
500.58,2.7004,2.6183,0.273,0,0,0,0
501.08,2.7038,2.618,0.27407,0,0,0,0
501.59,2.7073,2.618,0.27509,0,0,0,0
502.09,2.7104,2.6177,0.27598,0,0,0,0
502.58,2.7137,2.6173,0.27726,0,0,0,0
503.08,2.7169,2.617,0.27827,0,0,0,0
503.59,2.7202,2.6167,0.27934,0,0,0,0
504.08,2.7233,2.6163,0.28051,0,0,0,0
504.59,2.7267,2.6157,0.2815,0,0,0,0
505.09,2.7303,2.6153,0.28261,0,0,0,0
505.58,2.7337,2.615,0.28372,0,0,0,0
506.09,2.7372,2.615,0.28496,0,0,0,0
506.58,2.7405,2.6147,0.28617,0,0,0,0
507.09,2.7438,2.6143,0.28733,0,0,0,0
507.59,2.7469,2.6137,0.28834,0,0,0,0
508.09,2.7503,2.6133,0.28942,0,0,0,0
508.59,2.7534,2.613,0.2907,0,0,0,0
509.08,2.7568,2.6127,0.29168,0,0,0,0
509.59,2.7599,2.612,0.29283,0,0,0,0
510.09,2.7634,2.6113,0.29403,0,0,0,0
510.59,2.767,2.611,0.29531,0,0,0,0
511.08,2.7707,2.6107,0.29648,0,0,0,0
511.59,2.774,2.61,0.29778,0,0,0,0
512.09,2.7772,2.6093,0.2991,0,0,0,0
512.59,2.7805,2.6087,0.30032,0,0,0,0
513.09,2.7837,2.6083,0.30169,0,0,0,0
513.59,2.787,2.6077,0.30278,0,0,0,0
514.09,2.7903,2.607,0.30392,0,0,0,0
514.59,2.7937,2.606,0.3053,0,0,0,0
515.09,2.797,2.6053,0.30652,0,0,0,0
515.59,2.8007,2.605,0.3077,0,0,0,0
516.09,2.8042,2.6047,0.30911,0,0,0,0
516.59,2.8076,2.604,0.31046,0,0,0,0
517.09,2.8107,2.603,0.31196,0,0,0,0
517.59,2.8141,2.602,0.31314,0,0,0,0
518.09,2.8172,2.6013,0.31457,0,0,0,0
518.59,2.8204,2.6007,0.31589,0,0,0,0
519.09,2.824,2.6,0.31716,0,0,0,0
519.59,2.8273,2.599,0.31858,0,0,0,0
520.09,2.8308,2.5983,0.31975,0,0,0,0
520.59,2.8343,2.5977,0.32104,0,0,0,0
521.09,2.8377,2.597,0.32238,0,0,0,0
521.59,2.8413,2.596,0.32379,0,0,0,0
522.09,2.8449,2.595,0.32527,0,0,0,0
522.59,2.8478,2.594,0.32671,0,0,0,0
523.09,2.8511,2.593,0.32799,0,0,0,0
523.59,2.8544,2.592,0.32949,0,0,0,0
524.09,2.858,2.591,0.33094,0,0,0,0
524.59,2.8611,2.5897,0.33229,0,0,0,0
525.09,2.865,2.5883,0.33373,0,0,0,0
525.59,2.8684,2.587,0.33523,0,0,0,0
526.09,2.8708,2.586,0.33662,0,0,0,0
526.59,2.8748,2.585,0.33813,0,0,0,0
527.09,2.878,2.584,0.33959,0,0,0,0
527.59,2.882,2.5827,0.34119,0,0,0,0
528.08,2.8851,2.5813,0.34263,0,0,0,0
528.59,2.8883,2.58,0.34415,0,0,0,0
529.09,2.8916,2.5787,0.34575,0,0,0,0
529.59,2.8951,2.5773,0.34732,0,0,0,0
530.09,2.8989,2.5757,0.34855,0,0,0,0
530.59,2.9024,2.574,0.35014,0,0,0,0
531.09,2.9059,2.5723,0.35175,0,0,0,0
531.59,2.9093,2.5707,0.35348,0,0,0,0
532.09,2.9128,2.5693,0.35506,0,0,0,0
532.59,2.9161,2.5677,0.35678,0,0,0,0
533.09,2.9195,2.566,0.35812,0,0,0,0
533.59,2.9228,2.564,0.36004,0,0,0,0
534.09,2.9262,2.562,0.3615,0,0,0,0
534.59,2.9297,2.5603,0.36286,0,0,0,0
535.09,2.933,2.5587,0.3644,0,0,0,0
535.59,2.9367,2.5567,0.36592,0,0,0,0
536.09,2.9403,2.5543,0.36737,0,0,0,0
536.59,2.9439,2.5523,0.36906,0,0,0,0
537.09,2.9473,2.5504,0.37072,0,0,0,0
537.59,2.9507,2.5483,0.37239,0,0,0,0
538.09,2.9541,2.5457,0.37403,0,0,0,0
538.59,2.9575,2.5433,0.37568,0,0,0,0
539.09,2.9611,2.541,0.37725,0,0,0,0
539.59,2.9644,2.5387,0.37875,0,0,0,0
540.09,2.9682,2.536,0.38034,0,0,0,0
540.59,2.9719,2.5333,0.38186,0,0,0,0
541.09,2.9755,2.5307,0.38363,0,0,0,0
541.59,2.979,2.528,0.38521,0,0,0,0
542.09,2.9825,2.5253,0.38702,0,0,0,0
542.59,2.9858,2.5227,0.38869,0,0,0,0
543.09,2.9892,2.5197,0.39027,0,0,0,0
543.59,2.9929,2.5163,0.39198,0,0,0,0
544.09,2.9966,2.513,0.39353,0,0,0,0
544.59,3.0003,2.51,0.39508,0,0,0,0
545.09,3.004,2.507,0.39666,0,0,0,0
545.59,3.0075,2.504,0.39848,0,0,0,0
546.08,3.0114,2.5007,0.39982,0,0,0,0
546.59,3.015,2.497,0.40181,0,0,0,0
547.09,3.0184,2.493,0.40354,0,0,0,0
547.59,3.0221,2.489,0.40542,0,0,0,0
548.09,3.0255,2.4856,0.40706,0,0,0,0
548.59,3.0292,2.4821,0.40863,0,0,0,0
549.09,3.033,2.478,0.41045,0,0,0,0
549.59,3.0366,2.4736,0.41262,0,0,0,0
550.08,3.0404,2.4697,0.41421,0,0,0,0
550.59,3.0442,2.4657,0.41626,0,0,0,0
551.09,3.0482,2.4613,0.41789,0,0,0,0
551.59,3.0518,2.4567,0.41971,0,0,0,0
552.09,3.0555,2.452,0.42171,0,0,0,0
552.59,3.059,2.4473,0.42355,0,0,0,0
553.09,3.0625,2.4427,0.42527,0,0,0,0
553.59,3.0663,2.4377,0.42713,0,0,0,0
554.09,3.0702,2.4323,0.42861,0,0,0,0
554.59,3.0739,2.4273,0.43025,0,0,0,0
555.09,3.0779,2.4224,0.43196,0,0,0,0
555.59,3.0817,2.4167,0.4338,0,0,0,0
556.09,3.0859,2.4106,0.43574,0,0,0,0
556.59,3.0892,2.4044,0.43759,0,0,0,0
557.09,3.0928,2.3986,0.43946,0,0,0,0
557.59,3.0967,2.393,0.44124,0,0,0,0
558.08,3.1004,2.3874,0.44333,0,0,0,0
558.59,3.1041,2.3813,0.44512,0,0,0,0
559.09,3.1082,2.375,0.44699,0,0,0,0
559.59,3.1126,2.3681,0.4491,0,0,0,0
560.09,3.1167,2.3603,0.45092,0,0,0,0
560.59,3.1203,2.3526,0.45289,0,0,0,0
561.09,3.1243,2.3449,0.45494,0,0,0,0
561.59,3.1281,2.3366,0.4567,0,0,0,0
562.08,3.1322,2.3274,0.45865,0,0,0,0