File: lab_data/AA6014-T4_results/DATA/NT6_00_2.csv
Time[s],Displacement[mm],Force[kN],AxStrain_1,AxStrain_2,Thickness[mm],OuterWidth[mm],InnerWidth[mm]
0.63,0,-0.0046852,0,0,1.1226,20,10
1.13,1e-06,0.0039354,0.00011099,0,0,0,0
1.63,0.000611,0.014008,9.2996e-05,0,0,0,0
2.13,0.001186,0.036432,9e-06,0,0,0,0
2.63,0.001731,0.063282,3.2999e-05,0,0,0,0
3.13,0.002138,0.088141,9.8995e-05,0,0,0,0
3.63,0.002077,0.10685,-4.5001e-05,0,0,0,0
4.13,0.002373,0.12172,9.4995e-05,0,0,0,0
4.63,0.002746,0.13743,0.00011899,0,0,0,0
5.13,0.002851,0.157,0.00012199,0,0,0,0
5.63,0.003163,0.17685,0.00014799,0,0,0,0
6.13,0.003495,0.19471,0.00019998,0,0,0,0
6.63,0.003861,0.21215,0.00016799,0,0,0,0
7.13,0.004002,0.22842,7.7997e-05,0,0,0,0
7.63,0.004207,0.23942,7.5997e-05,0,0,0,0
8.13,0.004296,0.24629,-4e-06,0,0,0,0
8.63,0.004607,0.25457,-4.0001e-05,0,0,0,0
9.13,0.005057,0.26743,3.5999e-05,0,0,0,0
9.63,0.005281,0.283,0.00020498,0,0,0,0
10.13,0.005556,0.29857,0.00024097,0,0,0,0
10.63,0.00613,0.31229,0.00011499,0,0,0,0
11.13,0.006399,0.32586,0.00033594,0,0,0,0
11.63,0.006651,0.34014,0.00021798,0,0,0,0
12.13,0.007249,0.35429,0.00027696,0,0,0,0
12.63,0.00764,0.36857,0.00030395,0,0,0,0
13.13,0.007781,0.38314,0.00023197,0,0,0,0
13.63,0.008386,0.39815,0.00024497,0,0,0,0
14.13,0.008315,0.41371,0.00032195,0,0,0,0
14.63,0.008648,0.42943,0.00014799,0,0,0,0
15.13,0.008819,0.44371,0.00016499,0,0,0,0
15.63,0.009148,0.45815,0.00031195,0,0,0,0
16.13,0.009054,0.47314,0.00022198,0,0,0,0
16.63,0.009514,0.48771,0.00013399,0,0,0,0
17.13,0.009877,0.50243,0.00040292,0,0,0,0
17.63,0.009994,0.51785,0.00019498,0,0,0,0
18.13,0.010186,0.53415,0.00030595,0,0,0,0
18.63,0.010488,0.55071,0.00017498,0,0,0,0
19.13,0.010881,0.56714,0.00032595,0,0,0,0
19.63,0.011059,0.582,0.00025497,0,0,0,0
20.13,0.011405,0.59715,0.00025197,0,0,0,0
20.63,0.011972,0.61285,0.00047289,0,0,0,0
21.13,0.012475,0.628,0.00018498,0,0,0,0
21.63,0.012657,0.64315,0.00036293,0,0,0,0
22.13,0.013315,0.65885,0.00036593,0,0,0,0
22.63,0.013839,0.67515,0.00030895,0,0,0,0
23.13,0.014352,0.692,0.0004499,0,0,0,0
23.63,0.014832,0.70885,0.00055385,0,0,0,0
24.13,0.015447,0.724,0.0004529,0,0,0,0
24.63,0.015833,0.73915,0.00045989,0,0,0,0
25.13,0.016111,0.75485,0.00042991,0,0,0,0
25.63,0.016447,0.77,0.00046989,0,0,0,0
26.13,0.016628,0.78515,0.00056684,0,0,0,0
26.63,0.016991,0.80085,0.00061381,0,0,0,0
27.13,0.017122,0.81715,0.00050687,0,0,0,0
27.63,0.017484,0.83371,0.00055385,0,0,0,0
28.13,0.017558,0.85043,0.00047988,0,0,0,0
28.63,0.01779,0.86571,0.00043291,0,0,0,0
29.13,0.018085,0.88086,0.0004499,0,0,0,0
29.63,0.01825,0.89614,0.0006278,0,0,0,0
30.13,0.01876,0.911,0.00055385,0,0,0,0
30.63,0.019166,0.92615,0.00053686,0,0,0,0
31.13,0.019549,0.94185,0.00058383,0,0,0,0
31.63,0.020016,0.95786,0.00059083,0,0,0,0
32.13,0.020355,0.974,0.00072474,0,0,0,0
32.63,0.020838,0.99014,0.00084864,0,0,0,0
33.13,0.02155,1.005,0.00069176,0,0,0,0
33.63,0.022178,1.0199,0.00065778,0,0,0,0
34.13,0.022705,1.0351,0.00076471,0,0,0,0
34.63,0.023135,1.05,0.00073873,0,0,0,0
35.13,0.023457,1.0649,0.00067077,0,0,0,0
35.63,0.024078,1.0801,0.00078869,0,0,0,0
36.13,0.024494,1.0959,0.00079568,0,0,0,0
36.63,0.024958,1.112,0.00069776,0,0,0,0
37.13,0.02529,1.1279,0.0010465,0,0,0,0
37.63,0.025659,1.1423,0.0009965,0,0,0,0
38.13,0.026046,1.1566,0.00090259,0,0,0,0
38.63,0.026566,1.1714,0.00079868,0,0,0,0
39.13,0.026992,1.1857,0.0007757,0,0,0,0
39.63,0.027211,1.2001,0.00084864,0,0,0,0
40.13,0.027634,1.2149,0.0010265,0,0,0,0
40.63,0.028036,1.2299,0.0010405,0,0,0,0
41.13,0.028298,1.2453,0.0010534,0,0,0,0
41.63,0.028987,1.2606,0.0010974,0,0,0,0
42.13,0.029534,1.2743,0.0011344,0,0,0,0
42.63,0.030101,1.2879,0.0010435,0,0,0,0
43.13,0.030749,1.3021,0.00096653,0,0,0,0
43.63,0.031283,1.3157,0.0011044,0,0,0,0
44.13,0.032032,1.3291,0.0013721,0,0,0,0
44.63,0.032774,1.3429,0.0013022,0,0,0,0
45.13,0.033448,1.3569,0.001412,0,0,0,0
45.63,0.034039,1.371,0.0014659,0,0,0,0
46.13,0.034815,1.3849,0.0014489,0,0,0,0
46.63,0.035557,1.397,0.0016776,0,0,0,0
47.13,0.036245,1.4089,0.0018583,0,0,0,0
47.63,0.036977,1.4211,0.0018243,0,0,0,0
48.13,0.037944,1.4327,0.0021128,0,0,0,0
48.63,0.03879,1.4436,0.0022604,0,0,0,0
49.13,0.039894,1.455,0.0021896,0,0,0,0
49.63,0.040989,1.4661,0.0024949,0,0,0,0
50.13,0.042553,1.4766,0.0027223,0,0,0,0
50.63,0.044054,1.4861,0.0027931,0,0,0,0
51.13,0.045518,1.4953,0.0027931,0,0,0,0
51.63,0.047126,1.5043,0.0030404,0,0,0,0
52.13,0.048657,1.5131,0.0031909,0,0,0,0
52.63,0.050184,1.5213,0.0034789,0,0,0,0
53.13,0.052051,1.5293,0.0035895,0,0,0,0
53.63,0.053662,1.5374,0.0038297,0,0,0,0
54.13,0.05521,1.5456,0.004245,0,0,0,0
54.63,0.056801,1.5537,0.0044849,0,0,0,0
55.13,0.058463,1.5614,0.0048094,0,0,0,0
55.63,0.060286,1.5683,0.0051298,0,0,0,0
56.13,0.062062,1.5753,0.0055913,0,0,0,0
56.63,0.063646,1.5824,0.0057047,0,0,0,0
57.13,0.065459,1.589,0.0063389,0,0,0,0
57.63,0.067705,1.5956,0.0066022,0,0,0,0
58.13,0.069894,1.6027,0.0067382,0,0,0,0
58.63,0.071979,1.6097,0.0069121,0,0,0,0
59.13,0.07401,1.6163,0.0070819,0,0,0,0
59.63,0.076118,1.6227,0.0072953,0,0,0,0
60.13,0.078079,1.6287,0.0072318,0,0,0,0
60.63,0.079872,1.6346,0.0075216,0,0,0,0
61.13,0.081842,1.6404,0.0075216,0,0,0,0
61.63,0.083853,1.6463,0.0074591,0,0,0,0
62.13,0.085888,1.6523,0.0076517,0,0,0,0
62.63,0.087751,1.6584,0.0080148,0,0,0,0
63.13,0.089913,1.6643,0.0080485,0,0,0,0
63.63,0.092028,1.6703,0.0083451,0,0,0,0
64.13,0.094519,1.6761,0.0086078,0,0,0,0
64.63,0.096765,1.6816,0.0087308,0,0,0,0
65.13,0.099102,1.687,0.0091401,0,0,0,0
65.63,0.10142,1.6927,0.0094165,0,0,0,0
66.13,0.10362,1.6977,0.010034,0,0,0,0
66.63,0.10567,1.7026,0.010214,0,0,0,0
67.13,0.10776,1.7077,0.010632,0,0,0,0
67.63,0.10989,1.7133,0.010948,0,0,0,0
68.13,0.11205,1.719,0.01117,0,0,0,0
68.63,0.11427,1.7247,0.0112,0,0,0,0
69.13,0.11645,1.7297,0.011463,0,0,0,0
69.63,0.11883,1.7346,0.011738,0,0,0,0
70.13,0.12131,1.7394,0.01151,0,0,0,0
70.63,0.12373,1.7443,0.011708,0,0,0,0
71.13,0.12618,1.749,0.011586,0,0,0,0
71.63,0.12871,1.754,0.011701,0,0,0,0
72.13,0.1312,1.759,0.011901,0,0,0,0
72.63,0.13332,1.764,0.012001,0,0,0,0
73.13,0.13556,1.769,0.01208,0,0,0,0
73.63,0.13768,1.7737,0.012388,0,0,0,0
74.13,0.13992,1.7783,0.012548,0,0,0,0
74.63,0.1424,1.7827,0.012866,0,0,0,0
75.13,0.14466,1.787,0.013296,0,0,0,0
75.63,0.14706,1.7916,0.013502,0,0,0,0
76.13,0.14963,1.7964,0.013916,0,0,0,0
76.63,0.1523,1.8013,0.014098,0,0,0,0
77.13,0.15494,1.806,0.014588,0,0,0,0
77.63,0.15748,1.8107,0.014766,0,0,0,0
78.13,0.1598,1.815,0.015057,0,0,0,0
78.63,0.16232,1.8193,0.015186,0,0,0,0
79.13,0.16451,1.8237,0.015339,0,0,0,0
79.63,0.16683,1.828,0.015427,0,0,0,0
80.13,0.16929,1.8323,0.015438,0,0,0,0
80.63,0.17171,1.8367,0.01561,0,0,0,0
81.13,0.17413,1.8413,0.015702,0,0,0,0
81.63,0.17649,1.846,0.015692,0,0,0,0
82.13,0.17909,1.8504,0.015864,0,0,0,0
82.63,0.18194,1.8543,0.015917,0,0,0,0
83.13,0.18483,1.8583,0.015933,0,0,0,0
83.63,0.18714,1.8624,0.016218,0,0,0,0
84.13,0.18978,1.8663,0.016419,0,0,0,0
84.63,0.19221,1.8703,0.016654,0,0,0,0
85.13,0.19462,1.8747,0.016997,0,0,0,0
85.63,0.1969,1.879,0.017211,0,0,0,0
86.13,0.19928,1.8833,0.017587,0,0,0,0
86.63,0.20178,1.8877,0.017842,0,0,0,0
87.13,0.20428,1.8917,0.018039,0,0,0,0
87.63,0.20681,1.8956,0.018474,0,0,0,0
88.13,0.2098,1.8994,0.018593,0,0,0,0
88.63,0.21248,1.9033,0.018656,0,0,0,0
89.13,0.21514,1.907,0.018989,0,0,0,0
89.63,0.21761,1.911,0.019084,0,0,0,0
90.13,0.22025,1.915,0.019022,0,0,0,0
90.63,0.22261,1.9193,0.019282,0,0,0,0
91.13,0.22515,1.9234,0.019391,0,0,0,0
91.63,0.22765,1.9273,0.019512,0,0,0,0
92.13,0.23003,1.931,0.019614,0,0,0,0
92.63,0.23249,1.9347,0.019598,0,0,0,0
93.13,0.23511,1.9383,0.019765,0,0,0,0
93.63,0.23798,1.942,0.020009,0,0,0,0
94.13,0.24068,1.9457,0.020134,0,0,0,0
94.63,0.24378,1.9496,0.020579,0,0,0,0
95.13,0.2462,1.9537,0.020674,0,0,0,0
95.63,0.24891,1.9577,0.020887,0,0,0,0
96.13,0.25135,1.9613,0.021042,0,0,0,0
96.63,0.25376,1.9647,0.021282,0,0,0,0
97.13,0.25624,1.9683,0.021637,0,0,0,0
97.63,0.25864,1.9717,0.021897,0,0,0,0
98.13,0.26108,1.9753,0.022021,0,0,0,0
98.63,0.26378,1.9787,0.022333,0,0,0,0
99.13,0.26631,1.9823,0.022376,0,0,0,0
99.63,0.26928,1.9857,0.02253,0,0,0,0
100.13,0.27202,1.9896,0.022773,0,0,0,0
100.63,0.27486,1.9934,0.022874,0,0,0,0
101.13,0.27735,1.9973,0.022934,0,0,0,0
101.63,0.28009,2.0007,0.022976,0,0,0,0
102.13,0.28261,2.004,0.023196,0,0,0,0
102.63,0.2849,2.0073,0.023216,0,0,0,0
103.13,0.28768,2.0107,0.023498,0,0,0,0
103.63,0.28998,2.0143,0.023587,0,0,0,0
104.13,0.29281,2.018,0.023836,0,0,0,0
104.63,0.29547,2.0217,0.024009,0,0,0,0
105.13,0.29814,2.025,0.024285,0,0,0,0
105.63,0.30113,2.028,0.024458,0,0,0,0
106.13,0.3039,2.031,0.024707,0,0,0,0
106.63,0.30646,2.034,0.024852,0,0,0,0
107.13,0.30884,2.0373,0.025067,0,0,0,0
107.63,0.31179,2.0407,0.025264,0,0,0,0
108.13,0.31396,2.0443,0.025424,0,0,0,0
108.63,0.31745,2.0477,0.0256,0,0,0,0
109.13,0.32002,2.0513,0.02585,0,0,0,0
109.63,0.32249,2.0544,0.026062,0,0,0,0
110.13,0.3251,2.0576,0.026203,0,0,0,0
110.63,0.32796,2.0604,0.026533,0,0,0,0
111.13,0.33024,2.0636,0.026641,0,0,0,0
111.63,0.33302,2.0667,0.026703,0,0,0,0
112.13,0.33569,2.0703,0.026752,0,0,0,0
112.63,0.33863,2.0734,0.027033,0,0,0,0
113.13,0.34107,2.0763,0.027207,0,0,0,0
113.63,0.34355,2.0793,0.027288,0,0,0,0
114.13,0.3464,2.0827,0.027484,0,0,0,0
114.63,0.34886,2.086,0.02755,0,0,0,0
115.13,0.35225,2.0887,0.027876,0,0,0,0
115.63,0.35482,2.0913,0.028104,0,0,0,0
116.13,0.35715,2.0943,0.028137,0,0,0,0
116.63,0.35983,2.0977,0.028398,0,0,0,0
117.13,0.3628,2.101,0.028431,0,0,0,0
117.63,0.36554,2.104,0.028659,0,0,0,0
118.13,0.36835,2.107,0.02879,0,0,0,0
118.63,0.37073,2.11,0.029116,0,0,0,0
119.13,0.37343,2.113,0.029083,0,0,0,0
119.63,0.3759,2.116,0.029442,0,0,0,0
120.13,0.37846,2.119,0.029605,0,0,0,0
120.63,0.38125,2.122,0.029768,0,0,0,0
121.13,0.38407,2.125,0.029931,0,0,0,0
121.63,0.38692,2.1277,0.030127,0,0,0,0
122.13,0.39004,2.1303,0.030224,0,0,0,0
122.63,0.39284,2.133,0.030615,0,0,0,0
123.13,0.39584,2.136,0.03068,0,0,0,0
123.63,0.39851,2.139,0.030615,0,0,0,0
124.13,0.40114,2.142,0.030842,0,0,0,0
124.63,0.4037,2.145,0.031136,0,0,0,0
125.13,0.40649,2.148,0.031201,0,0,0,0
125.63,0.40891,2.151,0.031429,0,0,0,0
126.13,0.4117,2.1537,0.031526,0,0,0,0
126.63,0.41434,2.1563,0.031786,0,0,0,0
127.13,0.41747,2.159,0.031884,0,0,0,0
127.63,0.4206,2.1617,0.032079,0,0,0,0
128.13,0.42345,2.1643,0.032339,0,0,0,0
128.63,0.42629,2.167,0.032469,0,0,0,0
129.13,0.42905,2.1697,0.032761,0,0,0,0
129.63,0.43194,2.1723,0.032859,0,0,0,0
130.13,0.43435,2.175,0.033022,0,0,0,0
130.63,0.43676,2.178,0.033249,0,0,0,0
131.13,0.43928,2.1807,0.033379,0,0,0,0
131.63,0.44207,2.1833,0.033573,0,0,0,0
132.13,0.44499,2.186,0.0338,0,0,0,0
132.63,0.44792,2.1887,0.033898,0,0,0,0
133.13,0.45076,2.1913,0.033963,0,0,0,0
133.63,0.45379,2.1937,0.03406,0,0,0,0
134.13,0.45671,2.1963,0.034352,0,0,0,0
134.63,0.45958,2.199,0.034514,0,0,0,0
135.13,0.46219,2.202,0.034579,0,0,0,0
135.63,0.46475,2.2047,0.034806,0,0,0,0
136.13,0.46748,2.2073,0.035001,0,0,0,0
136.63,0.46999,2.2097,0.035228,0,0,0,0
137.13,0.47286,2.2123,0.03552,0,0,0,0
137.63,0.47565,2.2147,0.035746,0,0,0,0
138.13,0.47851,2.2173,0.035876,0,0,0,0
138.63,0.48154,2.2197,0.036071,0,0,0,0
139.13,0.48447,2.2223,0.036297,0,0,0,0
139.63,0.48732,2.2247,0.03662,0,0,0,0
140.13,0.49026,2.2273,0.03675,0,0,0,0
140.63,0.49305,2.2297,0.036815,0,0,0,0
141.13,0.49573,2.232,0.037009,0,0,0,0
141.63,0.49843,2.2343,0.037138,0,0,0,0
142.13,0.50108,2.2367,0.037332,0,0,0,0
142.63,0.50351,2.2393,0.037494,0,0,0,0
143.13,0.50638,2.2417,0.037559,0,0,0,0
143.63,0.50934,2.2443,0.037655,0,0,0,0
144.13,0.51235,2.2467,0.037882,0,0,0,0
144.63,0.51532,2.249,0.037914,0,0,0,0
145.13,0.51819,2.2513,0.038173,0,0,0,0
145.63,0.52117,2.2537,0.038367,0,0,0,0
146.13,0.52377,2.2563,0.038722,0,0,0,0
146.63,0.5265,2.2587,0.038948,0,0,0,0
147.13,0.52912,2.261,0.03898,0,0,0,0
147.63,0.53181,2.2633,0.039142,0,0,0,0
148.13,0.53448,2.2657,0.039529,0,0,0,0
148.63,0.53734,2.268,0.039658,0,0,0,0
149.13,0.54013,2.27,0.039852,0,0,0,0
149.63,0.54321,2.2723,0.040045,0,0,0,0
150.13,0.54626,2.2747,0.040207,0,0,0,0
150.63,0.54903,2.2773,0.040368,0,0,0,0
151.13,0.5521,2.2797,0.040432,0,0,0,0
151.63,0.55492,2.282,0.040658,0,0,0,0
152.13,0.55753,2.284,0.04069,0,0,0,0
152.63,0.56009,2.2863,0.040981,0,0,0,0
153.13,0.56278,2.2887,0.041206,0,0,0,0
153.63,0.56565,2.291,0.041045,0,0,0,0
154.13,0.56843,2.2933,0.041528,0,0,0,0
154.63,0.57141,2.2957,0.04156,0,0,0,0
155.13,0.57443,2.298,0.041753,0,0,0,0
155.63,0.57747,2.3,0.041978,0,0,0,0
156.13,0.58045,2.302,0.042172,0,0,0,0
156.63,0.58327,2.3043,0.042558,0,0,0,0
157.13,0.5861,2.3067,0.042719,0,0,0,0
157.63,0.5888,2.309,0.04304,0,0,0,0
158.13,0.59145,2.311,0.043265,0,0,0,0
158.63,0.59411,2.313,0.043459,0,0,0,0
159.13,0.59684,2.315,0.04349,0,0,0,0
159.63,0.5997,2.317,0.04362,0,0,0,0
160.13,0.60265,2.3193,0.043844,0,0,0,0
160.63,0.6055,2.3217,0.043845,0,0,0,0
161.13,0.60864,2.324,0.044198,0,0,0,0
161.63,0.61164,2.3263,0.044326,0,0,0,0
162.13,0.61457,2.3287,0.044262,0,0,0,0
162.63,0.61741,2.3307,0.044615,0,0,0,0
163.13,0.61999,2.3326,0.044551,0,0,0,0
163.63,0.62258,2.3347,0.044872,0,0,0,0
164.13,0.6255,2.337,0.045033,0,0,0,0
164.63,0.62811,2.339,0.045161,0,0,0,0
165.13,0.63115,2.341,0.045385,0,0,0,0
165.63,0.63396,2.343,0.045803,0,0,0,0
166.13,0.63703,2.345,0.045962,0,0,0,0
166.63,0.64005,2.347,0.046091,0,0,0,0
167.13,0.6431,2.349,0.046347,0,0,0,0
167.63,0.64607,2.351,0.046475,0,0,0,0
168.13,0.64844,2.353,0.046763,0,0,0,0
168.63,0.65126,2.355,0.04686,0,0,0,0
169.13,0.65429,2.357,0.047148,0,0,0,0
169.63,0.65682,2.359,0.047244,0,0,0,0
170.13,0.6595,2.361,0.047373,0,0,0,0
170.63,0.66249,2.3633,0.047725,0,0,0,0
171.13,0.66536,2.3654,0.047756,0,0,0,0
171.63,0.66843,2.3673,0.048013,0,0,0,0
172.13,0.67161,2.369,0.048077,0,0,0,0
172.63,0.6744,2.371,0.048269,0,0,0,0
173.13,0.67725,2.373,0.048428,0,0,0,0
173.63,0.68024,2.375,0.048557,0,0,0,0
174.13,0.683,2.3767,0.048941,0,0,0,0
174.63,0.68563,2.3786,0.048941,0,0,0,0
175.13,0.68822,2.3807,0.049196,0,0,0,0
175.63,0.69122,2.383,0.049388,0,0,0,0
176.13,0.69414,2.385,0.049579,0,0,0,0
176.63,0.69704,2.387,0.049931,0,0,0,0
177.13,0.70019,2.3887,0.050059,0,0,0,0
177.63,0.70332,2.3903,0.05025,0,0,0,0
178.13,0.70597,2.392,0.05041,0,0,0,0
178.63,0.70902,2.394,0.050793,0,0,0,0
179.13,0.71186,2.396,0.05092,0,0,0,0
179.63,0.71466,2.398,0.05124,0,0,0,0
180.13,0.71756,2.4,0.051112,0,0,0,0
180.63,0.72009,2.402,0.051367,0,0,0,0
181.13,0.72283,2.404,0.051526,0,0,0,0
181.63,0.72593,2.4057,0.051813,0,0,0,0
182.13,0.72899,2.4073,0.051941,0,0,0,0
182.63,0.73215,2.409,0.052228,0,0,0,0
183.13,0.73499,2.411,0.052355,0,0,0,0
183.63,0.73789,2.413,0.052578,0,0,0,0
184.13,0.74084,2.415,0.052674,0,0,0,0
184.63,0.74389,2.4167,0.052897,0,0,0,0
185.13,0.7462,2.4183,0.05312,0,0,0,0
185.63,0.74903,2.42,0.053343,0,0,0,0
186.13,0.75158,2.422,0.053502,0,0,0,0
186.63,0.75445,2.424,0.053725,0,0,0,0
187.13,0.75758,2.426,0.053915,0,0,0,0
187.64,0.75941,2.4277,0.054233,0,0,0,0
188.13,0.76373,2.4293,0.054297,0,0,0,0
188.63,0.76628,2.431,0.054552,0,0,0,0
189.13,0.76943,2.433,0.054679,0,0,0,0
189.63,0.77193,2.4347,0.054964,0,0,0,0
190.13,0.77511,2.4363,0.055282,0,0,0,0
190.63,0.77812,2.438,0.055315,0,0,0,0
191.13,0.78029,2.44,0.055505,0,0,0,0
191.63,0.78249,2.4417,0.05579,0,0,0,0
192.13,0.78612,2.4433,0.055854,0,0,0,0
192.63,0.78968,2.445,0.056235,0,0,0,0
193.13,0.79241,2.4467,0.056235,0,0,0,0
193.63,0.7958,2.4483,0.056426,0,0,0,0
194.13,0.79854,2.45,0.056679,0,0,0,0
194.63,0.80161,2.452,0.056996,0,0,0,0
195.13,0.80415,2.4537,0.057028,0,0,0,0
195.63,0.80681,2.4553,0.05725,0,0,0,0
196.13,0.80948,2.457,0.057472,0,0,0,0
196.63,0.81222,2.4587,0.057789,0,0,0,0
197.13,0.81487,2.4603,0.057884,0,0,0,0
197.63,0.81784,2.462,0.058169,0,0,0,0
198.13,0.82083,2.464,0.058264,0,0,0,0
198.63,0.82412,2.4657,0.058675,0,0,0,0
199.13,0.82689,2.4673,0.058739,0,0,0,0
199.63,0.83035,2.4687,0.058992,0,0,0,0
200.13,0.83318,2.4703,0.059151,0,0,0,0
200.63,0.83615,2.472,0.05934,0,0,0,0
201.13,0.83862,2.4737,0.059498,0,0,0,0
201.63,0.84157,2.4753,0.059752,0,0,0,0
202.13,0.84412,2.477,0.059878,0,0,0,0
202.63,0.84729,2.4787,0.060131,0,0,0,0
203.13,0.85007,2.48,0.060353,0,0,0,0
203.63,0.85283,2.4816,0.060637,0,0,0,0
204.13,0.85612,2.4834,0.060763,0,0,0,0
204.63,0.8592,2.4853,0.060921,0,0,0,0
205.13,0.86214,2.4867,0.061142,0,0,0,0
205.63,0.86513,2.4883,0.061363,0,0,0,0
206.13,0.86809,2.49,0.061458,0,0,0,0
206.63,0.87063,2.4917,0.061711,0,0,0,0
207.13,0.87362,2.4933,0.061963,0,0,0,0
207.63,0.87624,2.4947,0.062152,0,0,0,0
208.13,0.87915,2.4963,0.062405,0,0,0,0
208.63,0.88218,2.4977,0.062594,0,0,0,0
209.13,0.88523,2.4993,0.062972,0,0,0,0
209.63,0.8885,2.5007,0.062972,0,0,0,0
210.13,0.8917,2.5023,0.063193,0,0,0,0
210.63,0.89472,2.504,0.063476,0,0,0,0
211.13,0.89757,2.5057,0.06376,0,0,0,0
211.63,0.90045,2.5073,0.063918,0,0,0,0
212.13,0.90292,2.5087,0.064169,0,0,0,0
212.63,0.90555,2.5103,0.064295,0,0,0,0
213.13,0.90849,2.5117,0.064484,0,0,0,0
213.63,0.91132,2.5133,0.064862,0,0,0,0
214.13,0.91468,2.5147,0.064988,0,0,0,0
214.63,0.91779,2.5163,0.06524,0,0,0,0
215.13,0.92087,2.518,0.065302,0,0,0,0
215.63,0.9238,2.5197,0.065491,0,0,0,0
216.13,0.92659,2.521,0.065806,0,0,0,0
216.63,0.92962,2.5223,0.066056,0,0,0,0
217.13,0.93248,2.5237,0.066276,0,0,0,0
217.63,0.93553,2.5253,0.066496,0,0,0,0
218.13,0.93785,2.5267,0.066716,0,0,0,0
218.63,0.94061,2.5283,0.067061,0,0,0,0
219.13,0.94398,2.5297,0.067156,0,0,0,0
219.63,0.94655,2.5313,0.067502,0,0,0,0
220.13,0.94968,2.5327,0.067752,0,0,0,0
220.63,0.95277,2.5343,0.067972,0,0,0,0
221.13,0.95585,2.5357,0.068098,0,0,0,0
221.63,0.95862,2.5373,0.068317,0,0,0,0
222.13,0.96168,2.5387,0.068724,0,0,0,0
222.63,0.96447,2.5403,0.06885,0,0,0,0
223.13,0.96729,2.5417,0.069006,0,0,0,0
223.63,0.97032,2.543,0.069257,0,0,0,0
224.13,0.9729,2.5443,0.069352,0,0,0,0
224.63,0.97576,2.5457,0.069664,0,0,0,0
225.13,0.97897,2.547,0.069977,0,0,0,0
225.63,0.98183,2.548,0.070134,0,0,0,0
226.13,0.98496,2.5493,0.070447,0,0,0,0
226.63,0.98812,2.551,0.070791,0,0,0,0
227.13,0.99107,2.5527,0.070885,0,0,0,0
227.63,0.99393,2.554,0.071198,0,0,0,0
228.13,0.99657,2.5553,0.071573,0,0,0,0
228.63,0.99922,2.5567,0.071573,0,0,0,0
229.13,1.0022,2.5583,0.071761,0,0,0,0
229.63,1.0048,2.5597,0.072323,0,0,0,0
230.13,1.0079,2.5613,0.072323,0,0,0,0
230.63,1.0108,2.5627,0.072729,0,0,0,0
231.13,1.0138,2.564,0.073041,0,0,0,0
231.63,1.0169,2.5653,0.073197,0,0,0,0
232.13,1.02,2.5667,0.073384,0,0,0,0
232.63,1.0233,2.568,0.073727,0,0,0,0
233.13,1.0261,2.5693,0.073915,0,0,0,0
233.63,1.0289,2.5707,0.074101,0,0,0,0
234.13,1.0317,2.5723,0.07432,0,0,0,0
234.63,1.0343,2.5734,0.074631,0,0,0,0
235.13,1.0373,2.5746,0.074724,0,0,0,0
235.63,1.04,2.5757,0.075005,0,0,0,0
236.13,1.043,2.5773,0.075254,0,0,0,0
236.63,1.0461,2.5787,0.075534,0,0,0,0
237.13,1.0496,2.58,0.075783,0,0,0,0
237.63,1.0527,2.5813,0.076126,0,0,0,0
238.13,1.0554,2.5827,0.076343,0,0,0,0
238.63,1.0583,2.584,0.076717,0,0,0,0
239.13,1.061,2.585,0.077028,0,0,0,0
239.63,1.0639,2.5863,0.077214,0,0,0,0
240.13,1.0665,2.5877,0.077463,0,0,0,0
240.63,1.0695,2.589,0.077804,0,0,0,0
241.13,1.0725,2.5903,0.078052,0,0,0,0
241.63,1.0756,2.5914,0.078301,0,0,0,0
242.13,1.0788,2.5926,0.07855,0,0,0,0
242.63,1.0818,2.594,0.078953,0,0,0,0
243.13,1.0848,2.5957,0.079139,0,0,0,0
243.63,1.0877,2.597,0.079356,0,0,0,0
244.13,1.0907,2.598,0.07948,0,0,0,0
244.63,1.0932,2.599,0.079914,0,0,0,0
245.13,1.0963,2.6003,0.080038,0,0,0,0
245.63,1.099,2.6017,0.080286,0,0,0,0
246.13,1.1022,2.603,0.080565,0,0,0,0
246.63,1.105,2.604,0.080751,0,0,0,0
247.13,1.1081,2.6053,0.081123,0,0,0,0
247.63,1.111,2.6067,0.081338,0,0,0,0
248.13,1.1141,2.608,0.081556,0,0,0,0
248.63,1.1172,2.609,0.081803,0,0,0,0
249.13,1.1199,2.61,0.082205,0,0,0,0
249.63,1.1228,2.6113,0.082329,0,0,0,0
250.13,1.1256,2.6127,0.082577,0,0,0,0
250.63,1.1285,2.614,0.082978,0,0,0,0
251.13,1.1314,2.615,0.083101,0,0,0,0
251.63,1.1345,2.616,0.083503,0,0,0,0
252.13,1.1373,2.617,0.083904,0,0,0,0
252.63,1.1405,2.618,0.083997,0,0,0,0
253.13,1.1434,2.6193,0.084244,0,0,0,0
253.63,1.1465,2.6207,0.084645,0,0,0,0
254.13,1.1494,2.622,0.084768,0,0,0,0
254.63,1.152,2.623,0.085201,0,0,0,0
255.13,1.1549,2.624,0.085571,0,0,0,0
255.63,1.1577,2.6253,0.085601,0,0,0,0
256.13,1.1605,2.6267,0.08591,0,0,0,0
256.63,1.1633,2.628,0.086156,0,0,0,0
257.13,1.1662,2.629,0.086494,0,0,0,0
257.63,1.1692,2.63,0.086618,0,0,0,0
258.13,1.1726,2.6313,0.087018,0,0,0,0
258.63,1.1756,2.6327,0.087233,0,0,0,0
259.13,1.1785,2.634,0.08751,0,0,0,0
259.63,1.1816,2.635,0.087726,0,0,0,0
260.13,1.1844,2.6357,0.088125,0,0,0,0
260.63,1.1871,2.6366,0.088279,0,0,0,0
261.13,1.1899,2.6377,0.08874,0,0,0,0
261.63,1.1926,2.639,0.088955,0,0,0,0
262.13,1.1956,2.64,0.089293,0,0,0,0
262.63,1.1986,2.641,0.089754,0,0,0,0
263.13,1.2017,2.642,0.09,0,0,0,0
263.63,1.2047,2.643,0.090275,0,0,0,0
264.13,1.2077,2.6443,0.090521,0,0,0,0
264.63,1.2106,2.6457,0.090888,0,0,0,0
265.13,1.2137,2.647,0.091379,0,0,0,0
265.63,1.2165,2.648,0.091501,0,0,0,0
266.13,1.2193,2.649,0.091777,0,0,0,0
266.63,1.2222,2.65,0.092205,0,0,0,0
267.13,1.2248,2.651,0.092297,0,0,0,0
267.63,1.2278,2.652,0.092634,0,0,0,0
268.13,1.231,2.653,0.092971,0,0,0,0
268.63,1.2341,2.654,0.093367,0,0,0,0
269.13,1.2372,2.655,0.093674,0,0,0,0
269.63,1.2403,2.656,0.093827,0,0,0,0
270.13,1.2431,2.657,0.094316,0,0,0,0
270.63,1.2462,2.658,0.09453,0,0,0,0
271.13,1.249,2.659,0.094896,0,0,0,0
271.63,1.2518,2.66,0.095232,0,0,0,0
272.13,1.2546,2.661,0.095416,0,0,0,0
272.63,1.2575,2.662,0.095782,0,0,0,0
273.13,1.2605,2.663,0.096147,0,0,0,0
273.63,1.2634,2.664,0.096605,0,0,0,0
274.13,1.2667,2.665,0.096636,0,0,0,0
274.63,1.2699,2.666,0.097092,0,0,0,0
275.13,1.2728,2.667,0.097427,0,0,0,0
275.63,1.2757,2.668,0.097915,0,0,0,0
276.13,1.2787,2.669,0.098127,0,0,0,0
276.63,1.2816,2.67,0.098523,0,0,0,0
277.13,1.2845,2.671,0.098675,0,0,0,0
277.63,1.2873,2.672,0.099253,0,0,0,0
278.13,1.2903,2.673,0.099497,0,0,0,0
278.63,1.2932,2.674,0.099862,0,0,0,0
279.13,1.2964,2.675,0.1001,0,0,0,0
279.63,1.2995,2.676,0.10038,0,0,0,0
280.13,1.3027,2.677,0.10068,0,0,0,0
280.63,1.3058,2.678,0.10095,0,0,0,0
281.13,1.3088,2.679,0.10129,0,0,0,0
281.63,1.3116,2.68,0.10162,0,0,0,0
282.13,1.3145,2.681,0.10187,0,0,0,0
282.63,1.3173,2.6817,0.1022,0,0,0,0
283.13,1.3202,2.6823,0.10268,0,0,0,0
283.63,1.3233,2.683,0.10286,0,0,0,0
284.13,1.3264,2.684,0.10338,0,0,0,0
284.63,1.3296,2.685,0.10389,0,0,0,0
285.13,1.3328,2.686,0.10423,0,0,0,0
285.63,1.3359,2.687,0.10459,0,0,0,0
286.13,1.3389,2.688,0.10501,0,0,0,0
286.63,1.3419,2.689,0.10526,0,0,0,0
287.13,1.3448,2.6897,0.10562,0,0,0,0
287.63,1.3476,2.6903,0.10592,0,0,0,0
288.13,1.3505,2.691,0.10646,0,0,0,0
288.63,1.3534,2.692,0.1067,0,0,0,0
289.13,1.3565,2.693,0.10713,0,0,0,0
289.63,1.3597,2.694,0.10752,0,0,0,0
290.13,1.3628,2.695,0.10782,0,0,0,0
290.63,1.366,2.696,0.10806,0,0,0,0
291.13,1.3691,2.697,0.10851,0,0,0,0
291.63,1.3722,2.6977,0.10896,0,0,0,0
292.13,1.375,2.6983,0.10918,0,0,0,0
292.63,1.3781,2.699,0.10948,0,0,0,0
293.13,1.3809,2.7,0.10996,0,0,0,0
293.63,1.3839,2.701,0.11029,0,0,0,0
294.13,1.3868,2.7017,0.11056,0,0,0,0
294.63,1.3899,2.7023,0.11125,0,0,0,0
295.13,1.3934,2.7027,0.11158,0,0,0,0
295.63,1.3964,2.7036,0.11203,0,0,0,0
296.13,1.3994,2.7044,0.11227,0,0,0,0
296.63,1.4026,2.7053,0.11284,0,0,0,0
297.13,1.4054,2.706,0.11326,0,0,0,0
297.63,1.4083,2.707,0.11368,0,0,0,0
298.13,1.411,2.708,0.11389,0,0,0,0
298.63,1.414,2.7087,0.11449,0,0,0,0
299.13,1.417,2.7093,0.11485,0,0,0,0
299.63,1.4199,2.71,0.11524,0,0,0,0
300.13,1.4232,2.711,0.11563,0,0,0,0
300.63,1.4263,2.7117,0.11604,0,0,0,0
301.13,1.4295,2.7123,0.11643,0,0,0,0
301.63,1.4328,2.713,0.11688,0,0,0,0
302.13,1.4359,2.714,0.11739,0,0,0,0
302.63,1.4388,2.715,0.11781,0,0,0,0
303.13,1.4417,2.7157,0.11825,0,0,0,0
303.63,1.4446,2.716,0.11873,0,0,0,0
304.13,1.4476,2.7163,0.11912,0,0,0,0
304.63,1.4504,2.717,0.11966,0,0,0,0
305.13,1.4536,2.718,0.11983,0,0,0,0
305.63,1.4568,2.719,0.1201,0,0,0,0
306.13,1.4601,2.7197,0.1207,0,0,0,0
306.63,1.4634,2.7203,0.12108,0,0,0,0
307.13,1.4662,2.721,0.12171,0,0,0,0
307.63,1.4692,2.7217,0.12209,0,0,0,0
308.13,1.4722,2.7223,0.12254,0,0,0,0
308.63,1.4749,2.723,0.12296,0,0,0,0
309.13,1.4779,2.7237,0.1234,0,0,0,0
309.63,1.4811,2.7243,0.12388,0,0,0,0
310.13,1.4841,2.725,0.1245,0,0,0,0
310.63,1.4871,2.7257,0.12506,0,0,0,0
311.13,1.4906,2.7263,0.12539,0,0,0,0
311.63,1.4936,2.727,0.12586,0,0,0,0
312.13,1.4968,2.7277,0.12636,0,0,0,0
312.63,1.5005,2.7283,0.12678,0,0,0,0
313.13,1.5026,2.7287,0.12725,0,0,0,0
313.63,1.5058,2.7293,0.12755,0,0,0,0
314.13,1.5087,2.73,0.1282,0,0,0,0
314.63,1.5117,2.7307,0.12849,0,0,0,0
315.13,1.5146,2.7313,0.12911,0,0,0,0
315.63,1.518,2.732,0.12956,0,0,0,0
316.13,1.5213,2.7327,0.13006,0,0,0,0
316.63,1.5247,2.733,0.13076,0,0,0,0
317.13,1.5276,2.7333,0.13127,0,0,0,0
317.63,1.5307,2.734,0.13179,0,0,0,0
318.13,1.5338,2.735,0.13218,0,0,0,0
318.63,1.537,2.7357,0.13288,0,0,0,0
319.13,1.5398,2.736,0.13365,0,0,0,0
319.63,1.5428,2.7363,0.134,0,0,0,0
320.13,1.5457,2.737,0.13444,0,0,0,0
320.63,1.5488,2.7377,0.13479,0,0,0,0
321.13,1.5523,2.7383,0.13541,0,0,0,0
321.63,1.5554,2.7387,0.13588,0,0,0,0
322.13,1.5586,2.7393,0.13646,0,0,0,0
322.63,1.5619,2.7397,0.13696,0,0,0,0
323.13,1.5652,2.7403,0.13752,0,0,0,0
323.63,1.568,2.7407,0.13813,0,0,0,0
324.13,1.5708,2.7413,0.13872,0,0,0,0
324.63,1.5739,2.7417,0.13942,0,0,0,0
325.13,1.5769,2.742,0.13997,0,0,0,0
325.63,1.5798,2.7423,0.14061,0,0,0,0
326.13,1.5832,2.7427,0.14117,0,0,0,0
326.63,1.5865,2.7433,0.14175,0,0,0,0
327.13,1.5898,2.7437,0.14219,0,0,0,0
327.63,1.5932,2.7443,0.14303,0,0,0,0
328.13,1.5964,2.7447,0.14353,0,0,0,0
328.63,1.5994,2.745,0.14417,0,0,0,0
329.13,1.6025,2.7453,0.14472,0,0,0,0
329.63,1.6052,2.7457,0.14536,0,0,0,0
330.13,1.6083,2.7463,0.14582,0,0,0,0
330.63,1.6115,2.7467,0.14649,0,0,0,0
331.13,1.6146,2.7473,0.14718,0,0,0,0
331.63,1.6176,2.7477,0.14779,0,0,0,0
332.13,1.6211,2.748,0.14843,0,0,0,0
332.63,1.6243,2.7483,0.14918,0,0,0,0
333.13,1.6277,2.7487,0.14973,0,0,0,0
333.63,1.6304,2.749,0.15045,0,0,0,0
334.13,1.6336,2.7493,0.15115,0,0,0,0
334.63,1.6366,2.7497,0.15178,0,0,0,0
335.13,1.6398,2.75,0.15247,0,0,0,0
335.63,1.6428,2.7503,0.15316,0,0,0,0
336.13,1.6459,2.7507,0.15368,0,0,0,0
336.63,1.6492,2.751,0.15446,0,0,0,0
337.13,1.6525,2.751,0.15506,0,0,0,0
337.63,1.6558,2.751,0.15598,0,0,0,0
338.13,1.6589,2.751,0.15673,0,0,0,0
338.63,1.6622,2.7513,0.15748,0,0,0,0
339.13,1.6652,2.7517,0.15825,0,0,0,0
339.63,1.6683,2.7523,0.15888,0,0,0,0
340.13,1.6714,2.7527,0.15982,0,0,0,0
340.63,1.6744,2.753,0.1606,0,0,0,0
341.13,1.6775,2.753,0.16125,0,0,0,0
341.63,1.6808,2.753,0.16197,0,0,0,0
342.13,1.684,2.7533,0.16291,0,0,0,0
342.63,1.6877,2.7537,0.16354,0,0,0,0
343.13,1.6908,2.754,0.16442,0,0,0,0
343.63,1.6941,2.7537,0.16536,0,0,0,0
344.13,1.6971,2.7536,0.1661,0,0,0,0
344.63,1.7001,2.7537,0.16701,0,0,0,0
345.13,1.703,2.754,0.16792,0,0,0,0
345.63,1.7066,2.754,0.16871,0,0,0,0
346.13,1.7097,2.754,0.16965,0,0,0,0
346.63,1.7129,2.754,0.17047,0,0,0,0
347.13,1.7163,2.754,0.17123,0,0,0,0
347.63,1.7198,2.754,0.17202,0,0,0,0
348.13,1.723,2.754,0.17293,0,0,0,0
348.63,1.7264,2.754,0.174,0,0,0,0
349.13,1.7297,2.754,0.17485,0,0,0,0
349.63,1.7326,2.754,0.17561,0,0,0,0
350.13,1.7358,2.754,0.17687,0,0,0,0
350.63,1.739,2.754,0.17769,0,0,0,0
351.13,1.7422,2.754,0.17898,0,0,0,0
351.63,1.7454,2.754,0.17994,0,0,0,0
352.13,1.7489,2.754,0.18106,0,0,0,0
352.63,1.7524,2.754,0.18201,0,0,0,0
353.13,1.7558,2.7537,0.18321,0,0,0,0
353.63,1.7592,2.7533,0.18422,0,0,0,0
354.13,1.7623,2.753,0.18517,0,0,0,0
354.63,1.7655,2.753,0.18614,0,0,0,0
355.13,1.7685,2.753,0.18723,0,0,0,0
355.63,1.7717,2.753,0.1882,0,0,0,0
356.13,1.7748,2.7527,0.18945,0,0,0,0
356.63,1.7781,2.752,0.19059,0,0,0,0
357.13,1.7818,2.7513,0.19151,0,0,0,0
357.63,1.785,2.751,0.19278,0,0,0,0
358.13,1.7886,2.751,0.194,0,0,0,0
358.63,1.7919,2.7507,0.19508,0,0,0,0
359.13,1.795,2.7503,0.19635,0,0,0,0
359.63,1.7984,2.7497,0.19764,0,0,0,0
360.13,1.8014,2.7493,0.19888,0,0,0,0
360.63,1.8046,2.7487,0.19998,0,0,0,0
361.13,1.8082,2.7483,0.2013,0,0,0,0
361.63,1.8114,2.7477,0.20251,0,0,0,0
362.13,1.815,2.747,0.20379,0,0,0,0
362.63,1.8184,2.746,0.20508,0,0,0,0
363.13,1.8219,2.7453,0.20647,0,0,0,0
363.63,1.8253,2.745,0.20773,0,0,0,0
364.13,1.8285,2.7447,0.20909,0,0,0,0
364.63,1.8318,2.744,0.21048,0,0,0,0
365.13,1.835,2.743,0.21173,0,0,0,0
365.63,1.8381,2.742,0.21309,0,0,0,0
366.13,1.8414,2.7413,0.21455,0,0,0,0
366.63,1.8449,2.7407,0.21604,0,0,0,0
367.13,1.8482,2.74,0.21761,0,0,0,0
367.63,1.852,2.739,0.21898,0,0,0,0
368.13,1.8554,2.738,0.22049,0,0,0,0
368.63,1.8589,2.737,0.22195,0,0,0,0
369.13,1.8619,2.736,0.22348,0,0,0,0
369.63,1.8654,2.7347,0.22509,0,0,0,0
370.13,1.8685,2.7333,0.2264,0,0,0,0
370.63,1.8719,2.732,0.22792,0,0,0,0
371.13,1.8751,2.731,0.2295,0,0,0,0
371.63,1.8786,2.73,0.23091,0,0,0,0
372.13,1.8823,2.7287,0.23267,0,0,0,0
372.63,1.886,2.7273,0.23424,0,0,0,0
373.13,1.8894,2.7257,0.23604,0,0,0,0
373.63,1.893,2.724,0.23755,0,0,0,0
374.13,1.8961,2.7223,0.23922,0,0,0,0
374.63,1.8993,2.721,0.24088,0,0,0,0
375.13,1.9026,2.7197,0.24247,0,0,0,0
375.63,1.9059,2.718,0.24397,0,0,0,0
376.13,1.9092,2.716,0.2456,0,0,0,0
376.63,1.9129,2.714,0.2473,0,0,0,0
377.13,1.9167,2.7123,0.24911,0,0,0,0
377.63,1.9201,2.7104,0.2506,0,0,0,0
378.13,1.9237,2.7083,0.25237,0,0,0,0
378.63,1.9272,2.706,0.25415,0,0,0,0
379.13,1.9306,2.704,0.25579,0,0,0,0
379.63,1.9339,2.702,0.2575,0,0,0,0
380.13,1.9372,2.7,0.25929,0,0,0,0
380.63,1.9405,2.6977,0.26128,0,0,0,0
381.13,1.9439,2.6953,0.26304,0,0,0,0
381.63,1.9475,2.6927,0.26495,0,0,0,0
382.13,1.951,2.6903,0.26677,0,0,0,0
382.63,1.9548,2.688,0.26862,0,0,0,0
383.13,1.9582,2.6857,0.27052,0,0,0,0
383.63,1.9617,2.683,0.27241,0,0,0,0
384.13,1.9653,2.6803,0.27412,0,0,0,0
384.63,1.9687,2.6777,0.27599,0,0,0,0
385.13,1.972,2.675,0.27782,0,0,0,0
385.63,1.9755,2.6717,0.27977,0,0,0,0
386.13,1.9791,2.6683,0.2817,0,0,0,0
386.63,1.9827,2.665,0.28367,0,0,0,0
387.13,1.9865,2.6617,0.28549,0,0,0,0
387.63,1.9902,2.6583,0.28761,0,0,0,0
388.13,1.994,2.655,0.28967,0,0,0,0
388.63,1.9975,2.6517,0.29161,0,0,0,0
389.13,2.0009,2.6483,0.29346,0,0,0,0
389.63,2.0043,2.6447,0.29544,0,0,0,0
390.13,2.0078,2.641,0.29733,0,0,0,0
390.63,2.0114,2.637,0.29943,0,0,0,0
391.13,2.0151,2.633,0.30154,0,0,0,0
391.63,2.0187,2.629,0.3036,0,0,0,0
392.13,2.0227,2.625,0.30555,0,0,0,0
392.63,2.0264,2.621,0.30768,0,0,0,0
393.13,2.0301,2.617,0.30982,0,0,0,0
393.63,2.0338,2.613,0.31184,0,0,0,0
394.13,2.0373,2.6084,0.31373,0,0,0,0
394.63,2.0407,2.6033,0.31596,0,0,0,0
395.13,2.0444,2.5983,0.31789,0,0,0,0
395.63,2.0483,2.5937,0.32016,0,0,0,0
396.13,2.0522,2.589,0.3224,0,0,0,0
396.63,2.0561,2.584,0.32466,0,0,0,0
397.13,2.0599,2.579,0.32667,0,0,0,0
397.63,2.0638,2.574,0.32883,0,0,0,0
398.13,2.0676,2.569,0.3308,0,0,0,0
398.63,2.0712,2.5637,0.33302,0,0,0,0
399.13,2.0748,2.5577,0.33521,0,0,0,0
399.63,2.0784,2.5516,0.33744,0,0,0,0
400.13,2.0822,2.5454,0.33974,0,0,0,0
400.63,2.0863,2.5396,0.34208,0,0,0,0
401.13,2.0901,2.5337,0.34436,0,0,0,0
401.63,2.0941,2.5277,0.34676,0,0,0,0
402.13,2.098,2.521,0.3489,0,0,0,0
402.63,2.1019,2.5146,0.35119,0,0,0,0
403.13,2.1058,2.5084,0.3535,0,0,0,0
403.63,2.1095,2.5017,0.35572,0,0,0,0
404.13,2.1133,2.4946,0.35807,0,0,0,0
404.63,2.1171,2.4871,0.36039,0,0,0,0
405.13,2.1209,2.4799,0.36284,0,0,0,0
405.63,2.1251,2.4727,0.36541,0,0,0,0
406.13,2.1293,2.4654,0.36776,0,0,0,0
406.63,2.1332,2.4576,0.37017,0,0,0,0
407.13,2.1373,2.4497,0.37279,0,0,0,0
407.63,2.1411,2.4414,0.37517,0,0,0,0
408.13,2.145,2.4323,0.37756,0,0,0,0
408.63,2.149,2.423,0.38021,0,0,0,0
409.13,2.1531,2.4134,0.38284,0,0,0,0
409.63,2.1573,2.4036,0.38554,0,0,0,0
410.13,2.1616,2.3937,0.38835,0,0,0,0
410.63,2.1658,2.3831,0.39112,0,0,0,0
411.13,2.1702,2.3713,0.39411,0,0,0,0
411.63,2.1747,2.3584,0.39721,0,0,0,0
412.13,2.1796,2.3419,0.40048,0,0,0,0