File: lab_data/AA6014-T4_results/DATA/NT6_45_1.csv
Time[s],Displacement[mm],Force[kN],AxStrain_1,AxStrain_2,Thickness[mm],OuterWidth[mm],InnerWidth[mm]
0.54,0,-0.0049405,0,0,1.1176,20,9.9828
1.04,0.000495,0.0045343,-6.6002e-05,0,0,0,0
1.54,0.000705,0.015436,2e-05,0,0,0,0
2.04,0.001291,0.037,-7.9003e-05,0,0,0,0
2.54,0.001484,0.063432,-7.9003e-05,0,0,0,0
3.04,0.001708,0.088851,-7.0002e-05,0,0,0,0
3.54,0.001778,0.10928,-0.00012601,0,0,0,0
4.04,0.001949,0.12457,-0.00019602,0,0,0,0
4.54,0.002411,0.14043,-0.00010101,0,0,0,0
5.04,0.002725,0.15814,-0.00015001,0,0,0,0
5.54,0.002754,0.17485,4.1999e-05,0,0,0,0
6.04,0.003,0.18728,-0.00014501,0,0,0,0
6.54,0.002662,0.19657,-4.3001e-05,0,0,0,0
7.04,0.002907,0.20643,-8.3003e-05,0,0,0,0
7.54,0.003149,0.21871,-4e-06,0,0,0,0
8.04,0.003584,0.23286,5.3999e-05,0,0,0,0
8.54,0.003627,0.24714,0.00019798,0,0,0,0
9.04,0.004035,0.26186,0.00010999,0,0,0,0
9.54,0.004253,0.27614,0.00026696,0,0,0,0
10.04,0.004494,0.29086,6e-06,0,0,0,0
10.54,0.005044,0.30514,7.3997e-05,0,0,0,0
11.04,0.005276,0.319,0.00025397,0,0,0,0
11.54,0.005609,0.33286,0.00015699,0,0,0,0
12.04,0.006017,0.34714,7.4997e-05,0,0,0,0
12.54,0.006348,0.36215,0.00019498,0,0,0,0
13.04,0.006656,0.37685,0.00028896,0,0,0,0
13.54,0.006757,0.39215,0.00012399,0,0,0,0
14.04,0.006973,0.40685,0.00011799,0,0,0,0
14.54,0.007104,0.42215,-7.4003e-05,0,0,0,0
15.04,0.007702,0.43685,0.00017798,0,0,0,0
15.54,0.007943,0.45129,0.00018798,0,0,0,0
16.04,0.008007,0.46586,0.00020798,0,0,0,0
16.54,0.008041,0.48085,5.3999e-05,0,0,0,0
17.04,0.008222,0.49615,0.00020798,0,0,0,0
17.54,0.008376,0.51114,3e-05,0,0,0,0
18.04,0.008783,0.52715,0.00031895,0,0,0,0
18.54,0.009028,0.54285,0.00023497,0,0,0,0
19.04,0.009216,0.55886,8.3996e-05,0,0,0,0
19.54,0.009649,0.57414,0.00025897,0,0,0,0
20.04,0.009914,0.58871,0.00024497,0,0,0,0
20.54,0.010189,0.60343,0.00017798,0,0,0,0
21.04,0.010683,0.61857,0.00017798,0,0,0,0
21.54,0.011062,0.63443,0.00024497,0,0,0,0
22.04,0.011448,0.64985,0.00015099,0,0,0,0
22.54,0.012096,0.66615,0.00025497,0,0,0,0
23.04,0.012392,0.68157,0.00018798,0,0,0,0
23.54,0.01312,0.69743,0.00028196,0,0,0,0
24.04,0.013311,0.71285,0.00018798,0,0,0,0
24.54,0.013677,0.728,0.00025897,0,0,0,0
25.04,0.01404,0.74315,0.00029496,0,0,0,0
25.54,0.014409,0.75885,0.00023797,0,0,0,0
26.04,0.014567,0.77486,0.00025897,0,0,0,0
26.54,0.014799,0.79014,0.00022797,0,0,0,0
27.04,0.015128,0.80615,0.00036293,0,0,0,0
27.54,0.015118,0.82185,0.00038293,0,0,0,0
28.04,0.015222,0.83815,0.00017498,0,0,0,0
28.54,0.015551,0.85385,0.00022198,0,0,0,0
29.04,0.015749,0.869,0.00032595,0,0,0,0
29.54,0.016232,0.88386,0.00023797,0,0,0,0
30.04,0.016531,0.89914,0.0004469,0,0,0,0
30.54,0.016984,0.91486,0.00027196,0,0,0,0
31.04,0.017417,0.93014,0.00035594,0,0,0,0
31.54,0.018055,0.94586,0.00036593,0,0,0,0
32.04,0.018277,0.96114,0.00028896,0,0,0,0
32.54,0.018871,0.97686,0.00052686,0,0,0,0
33.04,0.019465,0.99214,0.00045989,0,0,0,0
33.54,0.019878,1.007,0.0004499,0,0,0,0
34.04,0.020577,1.0219,0.00068177,0,0,0,0
34.54,0.020902,1.0369,0.00061381,0,0,0,0
35.04,0.021325,1.0524,0.00066078,0,0,0,0
35.54,0.021846,1.0676,0.00068477,0,0,0,0
36.04,0.022054,1.0831,0.00057384,0,0,0,0
36.54,0.022477,1.0979,0.00061081,0,0,0,0
37.04,0.02287,1.1131,0.0006378,0,0,0,0
37.54,0.023138,1.1281,0.00070775,0,0,0,0
38.04,0.02341,1.1427,0.00059782,0,0,0,0
38.54,0.02379,1.1569,0.00053386,0,0,0,0
39.04,0.024065,1.1711,0.00058783,0,0,0,0
39.54,0.024293,1.1859,0.00066778,0,0,0,0
40.04,0.024847,1.2004,0.00052686,0,0,0,0
40.54,0.02523,1.2156,0.00049388,0,0,0,0
41.04,0.025619,1.2301,0.00082866,0,0,0,0
41.54,0.026375,1.2446,0.00073873,0,0,0,0
42.04,0.026935,1.2584,0.00068177,0,0,0,0
42.54,0.027506,1.2717,0.00079169,0,0,0,0
43.04,0.028245,1.2851,0.0008956,0,0,0,0
43.54,0.028748,1.2989,0.00085563,0,0,0,0
44.04,0.02943,1.3129,0.00098951,0,0,0,0
44.54,0.030199,1.3259,0.00097652,0,0,0,0
45.04,0.030924,1.3389,0.0011543,0,0,0,0
45.54,0.031827,1.3511,0.0012043,0,0,0,0
46.04,0.032713,1.3633,0.0015468,0,0,0,0
46.54,0.033747,1.3744,0.0019251,0,0,0,0
47.04,0.034785,1.3844,0.0019182,0,0,0,0
47.54,0.035983,1.3936,0.0023712,0,0,0,0
48.04,0.037568,1.4027,0.002431,0,0,0,0
48.54,0.038693,1.412,0.0028759,0,0,0,0
49.04,0.040341,1.4207,0.0028868,0,0,0,0
49.54,0.041946,1.4293,0.0031241,0,0,0,0
50.04,0.043675,1.4377,0.0032647,0,0,0,0
50.54,0.045474,1.4463,0.0033185,0,0,0,0
51.04,0.047425,1.4544,0.0036722,0,0,0,0
51.54,0.049449,1.462,0.0038705,0,0,0,0
52.04,0.051255,1.4693,0.0042918,0,0,0,0
52.54,0.053078,1.4767,0.0045516,0,0,0,0
53.04,0.054575,1.4843,0.0049,0,0,0,0
53.54,0.056254,1.4914,0.0051239,0,0,0,0
54.04,0.058161,1.498,0.005471,0,0,0,0
54.54,0.059984,1.5046,0.0060049,0,0,0,0
55.04,0.061639,1.5117,0.0061083,0,0,0,0
55.54,0.063677,1.5187,0.0065555,0,0,0,0
56.04,0.065765,1.525,0.0069985,0,0,0,0
56.54,0.06786,1.5313,0.0070958,0,0,0,0
57.04,0.069747,1.5377,0.007345,0,0,0,0
57.54,0.07215,1.544,0.007609,0,0,0,0
58.04,0.074188,1.55,0.0079215,0,0,0,0
58.54,0.076404,1.5563,0.0079751,0,0,0,0
59.04,0.078341,1.5624,0.007862,0,0,0,0
59.54,0.080295,1.5683,0.0080049,0,0,0,0
60.04,0.082514,1.574,0.0082915,0,0,0,0
60.54,0.08436,1.5797,0.0084284,0,0,0,0
61.04,0.086365,1.5853,0.0084641,0,0,0,0
61.54,0.088349,1.5907,0.0087744,0,0,0,0
62.04,0.090611,1.5966,0.0088834,0,0,0,0
62.54,0.092737,1.6021,0.0091133,0,0,0,0
63.04,0.095113,1.6079,0.0096354,0,0,0,0
63.54,0.097702,1.6131,0.0099384,0,0,0,0
64.04,0.10013,1.6186,0.010115,0,0,0,0
64.54,0.10224,1.6237,0.010517,0,0,0,0
65.04,0.10438,1.6287,0.010798,0,0,0,0
65.54,0.10637,1.6336,0.011224,0,0,0,0
66.04,0.10878,1.6387,0.011559,0,0,0,0
66.54,0.11089,1.644,0.011887,0,0,0,0
67.04,0.11304,1.649,0.01204,0,0,0,0
67.54,0.11533,1.654,0.012282,0,0,0,0
68.04,0.11755,1.659,0.012372,0,0,0,0
68.54,0.11988,1.664,0.012507,0,0,0,0
69.04,0.12237,1.669,0.012717,0,0,0,0
69.54,0.12493,1.6737,0.012683,0,0,0,0
70.04,0.12759,1.6783,0.012707,0,0,0,0
70.54,0.13006,1.683,0.012889,0,0,0,0
71.04,0.13242,1.688,0.012952,0,0,0,0
71.54,0.13492,1.693,0.013144,0,0,0,0
72.04,0.13716,1.6977,0.01333,0,0,0,0
72.54,0.13933,1.702,0.013492,0,0,0,0
73.04,0.14159,1.7063,0.013813,0,0,0,0
73.54,0.14403,1.711,0.014059,0,0,0,0
74.04,0.14616,1.7157,0.014425,0,0,0,0
74.54,0.14868,1.7203,0.014667,0,0,0,0
75.04,0.15126,1.7244,0.014955,0,0,0,0
75.54,0.15378,1.7283,0.015358,0,0,0,0
76.04,0.1563,1.7326,0.015699,0,0,0,0
76.54,0.15887,1.7374,0.015824,0,0,0,0
77.04,0.16153,1.742,0.016172,0,0,0,0
77.54,0.16383,1.7463,0.016449,0,0,0,0
78.04,0.16614,1.7507,0.016508,0,0,0,0
78.54,0.16825,1.7547,0.016588,0,0,0,0
79.04,0.17086,1.7586,0.016785,0,0,0,0
79.54,0.17326,1.7627,0.016805,0,0,0,0
80.04,0.17568,1.7673,0.016984,0,0,0,0
80.54,0.1782,1.7717,0.017176,0,0,0,0
81.04,0.18081,1.776,0.017333,0,0,0,0
81.54,0.18364,1.78,0.01732,0,0,0,0
82.04,0.18642,1.784,0.017631,0,0,0,0
82.54,0.18885,1.788,0.017884,0,0,0,0
83.04,0.1913,1.7917,0.01793,0,0,0,0
83.54,0.19379,1.7956,0.018297,0,0,0,0
84.04,0.19629,1.7997,0.018586,0,0,0,0
84.54,0.19859,1.804,0.018807,0,0,0,0
85.04,0.20099,1.808,0.01912,0,0,0,0
85.54,0.20353,1.812,0.019331,0,0,0,0
86.04,0.20605,1.816,0.019762,0,0,0,0
86.54,0.20859,1.82,0.019937,0,0,0,0
87.04,0.21148,1.8237,0.020052,0,0,0,0
87.54,0.2143,1.8273,0.020312,0,0,0,0
88.04,0.21699,1.831,0.020631,0,0,0,0
88.54,0.21949,1.835,0.020548,0,0,0,0
89.04,0.22213,1.839,0.020802,0,0,0,0
89.54,0.22466,1.843,0.021124,0,0,0,0
90.04,0.22724,1.8467,0.021088,0,0,0,0
90.54,0.22939,1.8503,0.021265,0,0,0,0
91.04,0.23207,1.854,0.021265,0,0,0,0
91.54,0.23469,1.8577,0.021506,0,0,0,0
92.04,0.23714,1.8613,0.021827,0,0,0,0
92.54,0.24011,1.865,0.022005,0,0,0,0
93.04,0.24278,1.8687,0.022021,0,0,0,0
93.54,0.24546,1.8723,0.022429,0,0,0,0
94.04,0.24828,1.876,0.022557,0,0,0,0
94.54,0.2507,1.88,0.022838,0,0,0,0
95.04,0.25334,1.8837,0.023012,0,0,0,0
95.54,0.25583,1.8873,0.023297,0,0,0,0
96.04,0.25839,1.8907,0.023587,0,0,0,0
96.54,0.26094,1.894,0.023712,0,0,0,0
97.04,0.26332,1.8973,0.024013,0,0,0,0
97.54,0.26596,1.9007,0.024144,0,0,0,0
98.04,0.26893,1.9043,0.024416,0,0,0,0
98.54,0.27174,1.908,0.024599,0,0,0,0
99.04,0.2744,1.9117,0.024825,0,0,0,0
99.54,0.27713,1.915,0.02494,0,0,0,0
100.04,0.27972,1.9183,0.024982,0,0,0,0
100.54,0.28217,1.9217,0.025143,0,0,0,0
101.04,0.28478,1.925,0.02552,0,0,0,0
101.54,0.28721,1.9283,0.025654,0,0,0,0
102.04,0.28958,1.9317,0.025828,0,0,0,0
102.54,0.2922,1.935,0.026115,0,0,0,0
103.04,0.29497,1.938,0.026226,0,0,0,0
103.54,0.29761,1.9413,0.02624,0,0,0,0
104.04,0.30055,1.9447,0.026616,0,0,0,0
104.54,0.3031,1.9483,0.026844,0,0,0,0
105.04,0.30616,1.9517,0.027044,0,0,0,0
105.54,0.3086,1.955,0.027122,0,0,0,0
106.04,0.3114,1.958,0.027524,0,0,0,0
106.54,0.31393,1.961,0.027736,0,0,0,0
107.04,0.31639,1.9643,0.027844,0,0,0,0
107.54,0.31889,1.9677,0.02817,0,0,0,0
108.04,0.32164,1.971,0.028268,0,0,0,0
108.54,0.32417,1.974,0.028481,0,0,0,0
109.04,0.32705,1.977,0.02866,0,0,0,0
109.54,0.32966,1.98,0.028951,0,0,0,0
110.04,0.33263,1.983,0.029052,0,0,0,0
110.54,0.33535,1.986,0.029459,0,0,0,0
111.04,0.33835,1.989,0.029466,0,0,0,0
111.54,0.34078,1.992,0.029655,0,0,0,0
112.04,0.34321,1.9953,0.029792,0,0,0,0
112.54,0.34619,1.9987,0.029932,0,0,0,0
113.04,0.34831,2.002,0.030127,0,0,0,0
113.54,0.35106,2.005,0.030323,0,0,0,0
114.04,0.35365,2.0077,0.030551,0,0,0,0
114.54,0.35635,2.0103,0.030746,0,0,0,0
115.04,0.35928,2.013,0.030974,0,0,0,0
115.54,0.36228,2.016,0.031266,0,0,0,0
116.04,0.36518,2.019,0.031592,0,0,0,0
116.54,0.36819,2.022,0.031657,0,0,0,0
117.04,0.37074,2.025,0.031625,0,0,0,0
117.54,0.37334,2.028,0.031982,0,0,0,0
118.04,0.37592,2.031,0.032113,0,0,0,0
118.54,0.37855,2.0337,0.032502,0,0,0,0
119.04,0.381,2.0363,0.03273,0,0,0,0
119.54,0.38361,2.039,0.03286,0,0,0,0
120.04,0.38644,2.042,0.033023,0,0,0,0
120.54,0.38934,2.0453,0.033282,0,0,0,0
121.04,0.39226,2.0487,0.03338,0,0,0,0
121.54,0.3954,2.0517,0.033477,0,0,0,0
122.04,0.39813,2.0543,0.03364,0,0,0,0
122.54,0.40091,2.057,0.033932,0,0,0,0
123.04,0.40355,2.0597,0.033997,0,0,0,0
123.54,0.40613,2.0623,0.034419,0,0,0,0
124.04,0.40874,2.065,0.034451,0,0,0,0
124.54,0.41145,2.0677,0.03484,0,0,0,0
125.04,0.41399,2.0703,0.034938,0,0,0,0
125.54,0.4167,2.0733,0.035132,0,0,0,0
126.04,0.41955,2.0764,0.035262,0,0,0,0
126.54,0.4226,2.079,0.035456,0,0,0,0
127.04,0.42557,2.0813,0.035941,0,0,0,0
127.54,0.42865,2.0837,0.036072,0,0,0,0
128.04,0.43128,2.0863,0.036201,0,0,0,0
128.54,0.43415,2.089,0.03646,0,0,0,0
129.04,0.43689,2.0917,0.036751,0,0,0,0
129.54,0.43923,2.0943,0.036946,0,0,0,0
130.04,0.44193,2.097,0.037075,0,0,0,0
130.54,0.44466,2.1,0.037075,0,0,0,0
131.04,0.44748,2.1027,0.03727,0,0,0,0
131.54,0.45049,2.1053,0.037625,0,0,0,0
132.04,0.45342,2.1077,0.037625,0,0,0,0
132.54,0.45665,2.1103,0.037819,0,0,0,0
133.04,0.45925,2.1127,0.038013,0,0,0,0
133.54,0.46236,2.1153,0.038336,0,0,0,0
134.04,0.46518,2.1177,0.03853,0,0,0,0
134.54,0.46748,2.1206,0.038692,0,0,0,0
135.04,0.47038,2.1234,0.039015,0,0,0,0
135.54,0.47298,2.126,0.039208,0,0,0,0
136.04,0.47558,2.1283,0.039305,0,0,0,0
136.54,0.47835,2.1307,0.03966,0,0,0,0
137.04,0.48136,2.1333,0.040047,0,0,0,0
137.54,0.48436,2.136,0.040112,0,0,0,0
138.04,0.48737,2.1387,0.040434,0,0,0,0
138.54,0.4902,2.1413,0.040627,0,0,0,0
139.04,0.49323,2.1437,0.040692,0,0,0,0
139.54,0.4959,2.1463,0.040917,0,0,0,0
140.04,0.49882,2.1484,0.041014,0,0,0,0
140.54,0.5011,2.1506,0.041047,0,0,0,0
141.04,0.50401,2.153,0.041466,0,0,0,0
141.54,0.50657,2.1557,0.041626,0,0,0,0
142.04,0.50954,2.158,0.041465,0,0,0,0
142.54,0.51225,2.1603,0.04182,0,0,0,0
143.04,0.51542,2.1627,0.042013,0,0,0,0
143.54,0.51842,2.1653,0.042238,0,0,0,0
144.04,0.52137,2.1677,0.042689,0,0,0,0
144.54,0.52426,2.17,0.042721,0,0,0,0
145.04,0.52702,2.172,0.042979,0,0,0,0
145.54,0.52977,2.1743,0.043236,0,0,0,0
146.04,0.53234,2.1767,0.043493,0,0,0,0
146.54,0.53487,2.1793,0.043879,0,0,0,0
147.04,0.53755,2.1817,0.044104,0,0,0,0
147.54,0.54064,2.184,0.044104,0,0,0,0
148.04,0.5436,2.1863,0.044457,0,0,0,0
148.54,0.54664,2.1887,0.044713,0,0,0,0
149.04,0.54951,2.191,0.044554,0,0,0,0
149.54,0.55268,2.193,0.044971,0,0,0,0
150.04,0.55531,2.195,0.045356,0,0,0,0
150.54,0.55842,2.197,0.045356,0,0,0,0
151.04,0.56108,2.1993,0.045485,0,0,0,0
151.54,0.56371,2.2017,0.045677,0,0,0,0
152.04,0.56631,2.2043,0.045837,0,0,0,0
152.54,0.56895,2.2067,0.045934,0,0,0,0
153.04,0.57182,2.209,0.046255,0,0,0,0
153.54,0.5749,2.211,0.046446,0,0,0,0
154.04,0.57802,2.213,0.046638,0,0,0,0
154.54,0.58108,2.215,0.047024,0,0,0,0
155.04,0.58405,2.217,0.047376,0,0,0,0
155.54,0.5869,2.2193,0.047408,0,0,0,0
156.04,0.58965,2.2217,0.04776,0,0,0,0
156.54,0.59235,2.224,0.048144,0,0,0,0
157.04,0.5952,2.2263,0.048336,0,0,0,0
157.54,0.59794,2.2284,0.048463,0,0,0,0
158.04,0.60057,2.2303,0.04872,0,0,0,0
158.54,0.60357,2.2323,0.048912,0,0,0,0
159.04,0.60649,2.2347,0.049103,0,0,0,0
159.54,0.60976,2.2367,0.04936,0,0,0,0
160.04,0.61284,2.2386,0.049359,0,0,0,0
160.54,0.6154,2.2407,0.049487,0,0,0,0
161.04,0.61819,2.243,0.049871,0,0,0,0
161.54,0.62119,2.245,0.049934,0,0,0,0
162.04,0.62402,2.247,0.049998,0,0,0,0
162.54,0.62662,2.249,0.050414,0,0,0,0
163.04,0.62913,2.2513,0.050413,0,0,0,0
163.54,0.63217,2.2537,0.050701,0,0,0,0
164.04,0.63522,2.2557,0.050859,0,0,0,0
164.54,0.63827,2.2573,0.051403,0,0,0,0
165.04,0.64109,2.259,0.051371,0,0,0,0
165.54,0.64458,2.2613,0.051786,0,0,0,0
166.04,0.64758,2.2637,0.051977,0,0,0,0
166.54,0.65041,2.266,0.0522,0,0,0,0
167.04,0.65314,2.2677,0.05255,0,0,0,0
167.54,0.65604,2.2693,0.052837,0,0,0,0
168.04,0.65876,2.271,0.052869,0,0,0,0
168.54,0.66128,2.273,0.053218,0,0,0,0
169.04,0.66408,2.275,0.053282,0,0,0,0
169.54,0.66708,2.277,0.053346,0,0,0,0
170.04,0.67004,2.279,0.05376,0,0,0,0
170.54,0.6731,2.281,0.053887,0,0,0,0
171.04,0.67632,2.283,0.054046,0,0,0,0
171.54,0.67935,2.285,0.054301,0,0,0,0
172.04,0.68181,2.287,0.054301,0,0,0,0
172.54,0.68499,2.289,0.054809,0,0,0,0
173.04,0.68756,2.291,0.054778,0,0,0,0
173.54,0.69045,2.293,0.055159,0,0,0,0
174.04,0.69326,2.2947,0.05535,0,0,0,0
174.54,0.69594,2.2966,0.055604,0,0,0,0
175.04,0.69891,2.2987,0.055954,0,0,0,0
175.54,0.70227,2.3007,0.056207,0,0,0,0
176.04,0.70528,2.3023,0.056366,0,0,0,0
176.54,0.7084,2.304,0.056556,0,0,0,0
177.04,0.71107,2.306,0.056937,0,0,0,0
177.54,0.71415,2.3077,0.056969,0,0,0,0
178.04,0.71686,2.3093,0.057286,0,0,0,0
178.54,0.71962,2.311,0.057413,0,0,0,0
179.04,0.72226,2.313,0.057698,0,0,0,0
179.54,0.72492,2.315,0.057824,0,0,0,0
180.04,0.72799,2.317,0.058079,0,0,0,0
180.54,0.73072,2.319,0.058173,0,0,0,0
181.04,0.73405,2.3207,0.058395,0,0,0,0
181.54,0.73721,2.3223,0.058775,0,0,0,0
182.04,0.74025,2.324,0.058997,0,0,0,0
182.54,0.74304,2.326,0.059314,0,0,0,0
183.04,0.74607,2.3277,0.05944,0,0,0,0
183.54,0.74884,2.3293,0.059693,0,0,0,0
184.04,0.75164,2.331,0.06001,0,0,0,0
184.54,0.75422,2.333,0.060262,0,0,0,0
185.04,0.75735,2.335,0.060483,0,0,0,0
185.54,0.76018,2.337,0.060737,0,0,0,0
186.04,0.7632,2.3387,0.060831,0,0,0,0
186.54,0.7662,2.3403,0.061116,0,0,0,0
187.04,0.7694,2.3417,0.061337,0,0,0,0
187.54,0.77253,2.3433,0.061526,0,0,0,0
188.04,0.77552,2.345,0.061715,0,0,0,0
188.54,0.77822,2.347,0.062126,0,0,0,0
189.04,0.781,2.349,0.062221,0,0,0,0
189.54,0.78397,2.3507,0.062536,0,0,0,0
190.04,0.7865,2.3523,0.062757,0,0,0,0
190.54,0.78927,2.3537,0.062851,0,0,0,0
191.04,0.79239,2.3553,0.063135,0,0,0,0
191.54,0.79542,2.357,0.063419,0,0,0,0
192.04,0.79858,2.3587,0.063608,0,0,0,0
192.54,0.80167,2.3603,0.063924,0,0,0,0
193.04,0.80476,2.362,0.064206,0,0,0,0
193.54,0.8074,2.364,0.064427,0,0,0,0
194.04,0.81058,2.3657,0.064554,0,0,0,0
194.54,0.81337,2.3673,0.064773,0,0,0,0
195.04,0.81594,2.3687,0.065056,0,0,0,0
195.54,0.81875,2.3703,0.065277,0,0,0,0
196.04,0.82162,2.372,0.065654,0,0,0,0
196.54,0.82445,2.3737,0.06578,0,0,0,0
197.04,0.82758,2.3753,0.066063,0,0,0,0
197.54,0.83083,2.377,0.066157,0,0,0,0
198.04,0.83395,2.3787,0.066471,0,0,0,0
198.54,0.83712,2.3803,0.066691,0,0,0,0
199.04,0.83996,2.382,0.066848,0,0,0,0
199.54,0.84267,2.3837,0.067257,0,0,0,0
200.04,0.84586,2.385,0.067445,0,0,0,0
200.54,0.8488,2.3863,0.067664,0,0,0,0
201.04,0.85152,2.388,0.067978,0,0,0,0
201.54,0.85439,2.3897,0.06801,0,0,0,0
202.04,0.85728,2.3913,0.068386,0,0,0,0
202.54,0.86037,2.3927,0.068699,0,0,0,0
203.04,0.86377,2.3943,0.068888,0,0,0,0
203.54,0.86707,2.396,0.06917,0,0,0,0
204.04,0.86996,2.3977,0.069483,0,0,0,0
204.54,0.87282,2.399,0.069672,0,0,0,0
205.04,0.87572,2.4003,0.069952,0,0,0,0
205.54,0.87849,2.402,0.070078,0,0,0,0
206.04,0.88119,2.404,0.070422,0,0,0,0
206.54,0.88399,2.4057,0.070767,0,0,0,0
207.04,0.88721,2.4073,0.070986,0,0,0,0
207.54,0.89029,2.4087,0.071111,0,0,0,0
208.04,0.8935,2.41,0.071424,0,0,0,0
208.54,0.89673,2.4113,0.071642,0,0,0,0
209.04,0.89983,2.4127,0.071799,0,0,0,0
209.54,0.90302,2.4143,0.072236,0,0,0,0
210.04,0.90603,2.4157,0.072361,0,0,0,0
210.54,0.90876,2.417,0.072642,0,0,0,0
211.04,0.91171,2.4186,0.072766,0,0,0,0
211.54,0.91442,2.4204,0.07311,0,0,0,0
212.04,0.91718,2.422,0.073266,0,0,0,0
212.54,0.92031,2.4233,0.073641,0,0,0,0
213.04,0.92352,2.4247,0.073704,0,0,0,0
213.54,0.92679,2.426,0.073983,0,0,0,0
214.04,0.93005,2.4273,0.074389,0,0,0,0
214.54,0.9331,2.429,0.074577,0,0,0,0
215.04,0.93606,2.4307,0.074763,0,0,0,0
215.54,0.93889,2.4323,0.075199,0,0,0,0
216.04,0.94171,2.4337,0.075356,0,0,0,0
216.54,0.94462,2.4353,0.075668,0,0,0,0
217.04,0.94726,2.4367,0.075978,0,0,0,0
217.54,0.95025,2.438,0.076259,0,0,0,0
218.04,0.95329,2.439,0.076352,0,0,0,0
218.54,0.95651,2.4403,0.076787,0,0,0,0
219.04,0.95965,2.4417,0.076974,0,0,0,0
219.54,0.96288,2.4433,0.077222,0,0,0,0
220.04,0.96589,2.4447,0.077472,0,0,0,0
220.54,0.96872,2.4463,0.077657,0,0,0,0
221.04,0.97167,2.4477,0.077937,0,0,0,0
221.54,0.97457,2.449,0.078155,0,0,0,0
222.04,0.97734,2.4503,0.078496,0,0,0,0
222.54,0.98001,2.4517,0.078652,0,0,0,0
223.04,0.98326,2.4533,0.079024,0,0,0,0
223.54,0.98628,2.4547,0.079117,0,0,0,0
224.04,0.98957,2.4563,0.079551,0,0,0,0
224.54,0.99282,2.4577,0.079768,0,0,0,0
225.04,0.99584,2.459,0.080078,0,0,0,0
225.54,0.99892,2.46,0.080296,0,0,0,0
226.04,1.0018,2.4613,0.080637,0,0,0,0
226.54,1.0047,2.4627,0.081039,0,0,0,0
227.04,1.0076,2.464,0.081195,0,0,0,0
227.54,1.0106,2.4653,0.081472,0,0,0,0
228.04,1.0133,2.4667,0.081844,0,0,0,0
228.54,1.0164,2.468,0.082153,0,0,0,0
229.04,1.0195,2.4693,0.082462,0,0,0,0
229.54,1.0225,2.4707,0.082586,0,0,0,0
230.04,1.0257,2.472,0.082802,0,0,0,0
230.54,1.0289,2.4733,0.083112,0,0,0,0
231.04,1.0319,2.4747,0.08336,0,0,0,0
231.54,1.0349,2.476,0.083575,0,0,0,0
232.04,1.0376,2.4773,0.083916,0,0,0,0
232.54,1.0404,2.4787,0.084162,0,0,0,0
233.04,1.0436,2.4803,0.084501,0,0,0,0
233.54,1.0466,2.4817,0.084841,0,0,0,0
234.04,1.0495,2.483,0.084995,0,0,0,0
234.54,1.0527,2.484,0.085273,0,0,0,0
235.04,1.0559,2.485,0.08552,0,0,0,0
235.54,1.0592,2.4863,0.085858,0,0,0,0
236.04,1.0622,2.4874,0.086043,0,0,0,0
236.54,1.0653,2.4886,0.086568,0,0,0,0
237.04,1.068,2.4897,0.08669,0,0,0,0
237.54,1.071,2.491,0.086967,0,0,0,0
238.04,1.0738,2.4923,0.087337,0,0,0,0
238.54,1.0767,2.4937,0.087645,0,0,0,0
239.04,1.0797,2.495,0.087951,0,0,0,0
239.54,1.0827,2.496,0.08826,0,0,0,0
240.04,1.0861,2.4973,0.088537,0,0,0,0
240.54,1.0891,2.4987,0.088659,0,0,0,0
241.04,1.0925,2.5,0.088966,0,0,0,0
241.54,1.0954,2.501,0.089336,0,0,0,0
242.04,1.0985,2.5023,0.089581,0,0,0,0
242.54,1.1015,2.5037,0.089949,0,0,0,0
243.04,1.1042,2.505,0.090225,0,0,0,0
243.54,1.1069,2.506,0.090348,0,0,0,0
244.04,1.1101,2.507,0.090839,0,0,0,0
244.54,1.1131,2.508,0.090993,0,0,0,0
245.04,1.1164,2.5093,0.09136,0,0,0,0
245.54,1.1195,2.5107,0.091605,0,0,0,0
246.04,1.1228,2.512,0.091943,0,0,0,0
246.54,1.1259,2.513,0.092095,0,0,0,0
247.04,1.1288,2.514,0.092617,0,0,0,0
247.54,1.1318,2.5153,0.092769,0,0,0,0
248.04,1.1346,2.5164,0.093288,0,0,0,0
248.54,1.1374,2.5176,0.093564,0,0,0,0
249.04,1.1404,2.5187,0.093686,0,0,0,0
249.54,1.1435,2.52,0.094115,0,0,0,0
250.04,1.1466,2.521,0.094328,0,0,0,0
250.54,1.1498,2.522,0.094543,0,0,0,0
251.04,1.1529,2.5233,0.094939,0,0,0,0
251.54,1.1562,2.5247,0.095245,0,0,0,0
252.04,1.159,2.526,0.095458,0,0,0,0
252.54,1.162,2.527,0.095946,0,0,0,0
253.04,1.1648,2.528,0.096222,0,0,0,0
253.54,1.1677,2.529,0.096527,0,0,0,0
254.04,1.1705,2.53,0.096892,0,0,0,0
254.54,1.1734,2.531,0.097105,0,0,0,0
255.04,1.1762,2.5323,0.097501,0,0,0,0
255.54,1.1795,2.5337,0.097715,0,0,0,0
256.04,1.1828,2.5347,0.098172,0,0,0,0
256.54,1.1858,2.5353,0.098354,0,0,0,0
257.04,1.189,2.536,0.09881,0,0,0,0
257.54,1.1919,2.5373,0.098932,0,0,0,0
258.04,1.1949,2.5387,0.099327,0,0,0,0
258.54,1.1979,2.54,0.09954,0,0,0,0
259.04,1.2008,2.541,0.099844,0,0,0,0
259.54,1.2034,2.542,0.10006,0,0,0,0
260.04,1.2065,2.5433,0.10051,0,0,0,0
260.54,1.2097,2.5444,0.10079,0,0,0,0
261.04,1.2128,2.5453,0.10106,0,0,0,0
261.54,1.2159,2.546,0.10136,0,0,0,0
262.04,1.2192,2.547,0.1017,0,0,0,0
262.54,1.2221,2.548,0.10209,0,0,0,0
263.04,1.2252,2.549,0.1023,0,0,0,0
263.54,1.2281,2.55,0.10261,0,0,0,0
264.04,1.231,2.551,0.10321,0,0,0,0
264.54,1.2338,2.552,0.1033,0,0,0,0
265.04,1.2366,2.553,0.10361,0,0,0,0
265.54,1.2394,2.5543,0.10403,0,0,0,0
266.04,1.2427,2.5554,0.10418,0,0,0,0
266.54,1.2458,2.5566,0.10466,0,0,0,0
267.04,1.2493,2.5577,0.105,0,0,0,0
267.54,1.252,2.5587,0.10515,0,0,0,0
268.04,1.2551,2.5596,0.10554,0,0,0,0
268.54,1.2581,2.5604,0.1059,0,0,0,0
269.04,1.2611,2.5613,0.10618,0,0,0,0
269.54,1.2641,2.562,0.1066,0,0,0,0
270.04,1.2668,2.563,0.10687,0,0,0,0
270.54,1.2697,2.564,0.10708,0,0,0,0
271.04,1.2725,2.565,0.10726,0,0,0,0
271.54,1.2757,2.566,0.10762,0,0,0,0
272.04,1.279,2.567,0.1082,0,0,0,0
272.54,1.2823,2.568,0.10853,0,0,0,0
273.04,1.2854,2.569,0.10892,0,0,0,0
273.54,1.2883,2.57,0.10922,0,0,0,0
274.04,1.2913,2.571,0.10976,0,0,0,0
274.54,1.2941,2.572,0.10991,0,0,0,0
275.04,1.297,2.573,0.11031,0,0,0,0
275.54,1.2998,2.574,0.11069,0,0,0,0
276.04,1.3028,2.575,0.11112,0,0,0,0
276.54,1.306,2.576,0.1113,0,0,0,0
277.04,1.3093,2.577,0.11184,0,0,0,0
277.54,1.3123,2.5777,0.11199,0,0,0,0
278.04,1.3154,2.5783,0.1122,0,0,0,0
278.54,1.3185,2.579,0.11268,0,0,0,0
279.04,1.3216,2.58,0.11298,0,0,0,0
279.54,1.3244,2.581,0.11337,0,0,0,0
280.04,1.3272,2.582,0.11367,0,0,0,0
280.54,1.3302,2.583,0.11409,0,0,0,0
281.04,1.3332,2.5837,0.1143,0,0,0,0
281.54,1.3362,2.5843,0.11484,0,0,0,0
282.04,1.3392,2.585,0.11498,0,0,0,0
282.54,1.3425,2.586,0.11549,0,0,0,0
283.04,1.3458,2.587,0.11588,0,0,0,0
283.54,1.3489,2.588,0.11624,0,0,0,0
284.04,1.3519,2.589,0.11657,0,0,0,0
284.54,1.3551,2.59,0.11714,0,0,0,0
285.04,1.3578,2.5907,0.11747,0,0,0,0
285.54,1.3608,2.5913,0.11785,0,0,0,0
286.04,1.3638,2.592,0.11833,0,0,0,0
286.54,1.3668,2.593,0.11863,0,0,0,0
287.04,1.3699,2.594,0.11893,0,0,0,0
287.54,1.3729,2.5947,0.11941,0,0,0,0
288.04,1.3763,2.5956,0.11967,0,0,0,0
288.54,1.3796,2.5964,0.12015,0,0,0,0
289.04,1.3827,2.5973,0.12039,0,0,0,0
289.54,1.3854,2.598,0.12089,0,0,0,0
290.04,1.3883,2.599,0.1211,0,0,0,0
290.54,1.3913,2.6,0.12149,0,0,0,0
291.04,1.3944,2.601,0.12185,0,0,0,0
291.54,1.3973,2.6017,0.12214,0,0,0,0
292.04,1.4004,2.6023,0.12262,0,0,0,0
292.54,1.4034,2.603,0.12289,0,0,0,0
293.04,1.4069,2.604,0.1236,0,0,0,0
293.54,1.4097,2.605,0.12381,0,0,0,0
294.04,1.4132,2.6057,0.12428,0,0,0,0
294.54,1.4164,2.6063,0.12476,0,0,0,0
295.04,1.4191,2.607,0.12511,0,0,0,0
295.54,1.4221,2.608,0.12556,0,0,0,0
296.04,1.4251,2.6087,0.12603,0,0,0,0
296.54,1.4281,2.6093,0.12662,0,0,0,0
297.04,1.4311,2.61,0.12695,0,0,0,0
297.54,1.434,2.6107,0.1271,0,0,0,0
298.04,1.4372,2.6116,0.12763,0,0,0,0
298.54,1.4405,2.6124,0.12804,0,0,0,0
299.04,1.4438,2.6133,0.12842,0,0,0,0
299.54,1.4467,2.614,0.12857,0,0,0,0
300.04,1.4504,2.615,0.12904,0,0,0,0
300.54,1.4526,2.6157,0.12946,0,0,0,0
301.04,1.4558,2.6163,0.12996,0,0,0,0
301.54,1.4585,2.617,0.13025,0,0,0,0
302.04,1.4611,2.6177,0.13061,0,0,0,0
302.54,1.4643,2.6183,0.1312,0,0,0,0
303.04,1.4674,2.619,0.13158,0,0,0,0
303.54,1.4706,2.6197,0.13193,0,0,0,0
304.04,1.4746,2.6203,0.13246,0,0,0,0
304.54,1.4775,2.621,0.13281,0,0,0,0
305.04,1.4806,2.6217,0.13334,0,0,0,0
305.54,1.4835,2.6223,0.1337,0,0,0,0
306.04,1.4866,2.623,0.13414,0,0,0,0
306.54,1.4893,2.624,0.13467,0,0,0,0
307.04,1.4923,2.6247,0.13502,0,0,0,0
307.54,1.4953,2.6253,0.13552,0,0,0,0
308.04,1.4985,2.6257,0.1359,0,0,0,0
308.54,1.5017,2.6263,0.13642,0,0,0,0
309.04,1.5051,2.627,0.1368,0,0,0,0
309.54,1.5084,2.628,0.13713,0,0,0,0
310.04,1.5112,2.6287,0.13768,0,0,0,0
310.54,1.5141,2.6293,0.13818,0,0,0,0
311.04,1.5169,2.63,0.13879,0,0,0,0
311.54,1.5197,2.6307,0.13911,0,0,0,0
312.04,1.5232,2.6313,0.13955,0,0,0,0
312.54,1.5265,2.632,0.14005,0,0,0,0
313.04,1.5294,2.6327,0.14046,0,0,0,0
313.54,1.5325,2.6333,0.14098,0,0,0,0
314.04,1.5356,2.6337,0.14139,0,0,0,0
314.54,1.5391,2.6343,0.14198,0,0,0,0
315.04,1.542,2.635,0.14244,0,0,0,0
315.54,1.5452,2.6357,0.14288,0,0,0,0
316.04,1.548,2.6363,0.14311,0,0,0,0
316.54,1.5512,2.637,0.14387,0,0,0,0
317.04,1.5542,2.6377,0.14442,0,0,0,0
317.54,1.5571,2.6383,0.14477,0,0,0,0
318.04,1.5601,2.6387,0.14526,0,0,0,0
318.54,1.5633,2.6393,0.14579,0,0,0,0
319.04,1.5666,2.64,0.14634,0,0,0,0
319.54,1.5702,2.6407,0.14677,0,0,0,0
320.04,1.5732,2.641,0.1473,0,0,0,0
320.54,1.5762,2.6413,0.14773,0,0,0,0
321.04,1.5794,2.642,0.14825,0,0,0,0
321.54,1.5823,2.6427,0.14889,0,0,0,0
322.04,1.5853,2.6433,0.14915,0,0,0,0
322.54,1.5883,2.6437,0.14984,0,0,0,0
323.04,1.5916,2.6443,0.15039,0,0,0,0
323.54,1.5944,2.6447,0.15082,0,0,0,0
324.04,1.5976,2.6453,0.15146,0,0,0,0
324.54,1.6011,2.646,0.1518,0,0,0,0
325.04,1.6042,2.6467,0.15232,0,0,0,0
325.54,1.6074,2.6473,0.15287,0,0,0,0
326.04,1.6107,2.6477,0.1535,0,0,0,0
326.54,1.6137,2.648,0.15371,0,0,0,0
327.04,1.6165,2.6483,0.15431,0,0,0,0
327.54,1.6195,2.649,0.1548,0,0,0,0
328.04,1.6226,2.6497,0.15526,0,0,0,0
328.54,1.6256,2.6503,0.15572,0,0,0,0
329.04,1.6289,2.6507,0.15627,0,0,0,0
329.54,1.6324,2.651,0.1569,0,0,0,0
330.04,1.6355,2.6513,0.15735,0,0,0,0
330.54,1.6387,2.6517,0.15801,0,0,0,0
331.04,1.6418,2.6523,0.15847,0,0,0,0
331.54,1.6448,2.653,0.15902,0,0,0,0
332.04,1.6478,2.6537,0.15965,0,0,0,0
332.54,1.651,2.6543,0.16031,0,0,0,0
333.04,1.6539,2.6547,0.16088,0,0,0,0
333.54,1.6569,2.655,0.16133,0,0,0,0
334.04,1.6601,2.6553,0.16202,0,0,0,0
334.54,1.6632,2.6557,0.16262,0,0,0,0
335.04,1.6665,2.6563,0.16319,0,0,0,0
335.54,1.67,2.6567,0.16379,0,0,0,0
336.04,1.673,2.657,0.16439,0,0,0,0
336.54,1.676,2.6573,0.16507,0,0,0,0
337.04,1.6791,2.6577,0.16556,0,0,0,0
337.54,1.682,2.658,0.16612,0,0,0,0
338.04,1.6853,2.6583,0.16669,0,0,0,0
338.54,1.6885,2.6587,0.16749,0,0,0,0
339.04,1.6914,2.6593,0.16797,0,0,0,0
339.54,1.6945,2.6597,0.16848,0,0,0,0
340.04,1.6975,2.66,0.16925,0,0,0,0
340.54,1.7016,2.6603,0.16982,0,0,0,0
341.04,1.7044,2.6607,0.17064,0,0,0,0
341.54,1.7077,2.661,0.1712,0,0,0,0
342.04,1.7108,2.6613,0.17163,0,0,0,0
342.54,1.7139,2.6617,0.17228,0,0,0,0
343.04,1.7166,2.6623,0.17276,0,0,0,0
343.54,1.7196,2.6627,0.17358,0,0,0,0
344.04,1.7229,2.663,0.17414,0,0,0,0
344.54,1.7262,2.6633,0.17471,0,0,0,0
345.04,1.7292,2.6637,0.17544,0,0,0,0
345.54,1.7328,2.664,0.17609,0,0,0,0
346.04,1.7362,2.6643,0.17679,0,0,0,0
346.54,1.7395,2.6647,0.1775,0,0,0,0
347.04,1.7424,2.665,0.17834,0,0,0,0
347.54,1.7456,2.665,0.17882,0,0,0,0
348.04,1.7486,2.665,0.17971,0,0,0,0
348.54,1.7516,2.6653,0.18039,0,0,0,0
349.04,1.7546,2.6657,0.18097,0,0,0,0
349.54,1.7579,2.666,0.18176,0,0,0,0
350.04,1.7612,2.666,0.18235,0,0,0,0
350.54,1.7647,2.666,0.1831,0,0,0,0
351.04,1.768,2.6663,0.18377,0,0,0,0
351.54,1.7712,2.6667,0.18438,0,0,0,0
352.04,1.7744,2.6673,0.18514,0,0,0,0
352.54,1.7776,2.6677,0.18584,0,0,0,0
353.04,1.7803,2.668,0.18667,0,0,0,0
353.54,1.7836,2.668,0.1874,0,0,0,0
354.04,1.7868,2.668,0.18823,0,0,0,0
354.54,1.7902,2.668,0.18909,0,0,0,0
355.04,1.7934,2.668,0.18973,0,0,0,0
355.54,1.7969,2.6683,0.19062,0,0,0,0
356.04,1.8,2.6687,0.19145,0,0,0,0
356.54,1.8034,2.669,0.19209,0,0,0,0
357.04,1.8064,2.6693,0.19283,0,0,0,0
357.54,1.8096,2.6694,0.19389,0,0,0,0
358.04,1.8127,2.6696,0.19447,0,0,0,0
358.54,1.8157,2.6697,0.19519,0,0,0,0
359.04,1.8188,2.67,0.19593,0,0,0,0
359.54,1.8219,2.67,0.19692,0,0,0,0
360.04,1.8255,2.67,0.19772,0,0,0,0
360.54,1.829,2.67,0.19863,0,0,0,0
361.04,1.8323,2.67,0.19938,0,0,0,0
361.54,1.8355,2.67,0.2002,0,0,0,0
362.04,1.8389,2.67,0.20127,0,0,0,0
362.54,1.842,2.67,0.20196,0,0,0,0
363.04,1.8451,2.67,0.20281,0,0,0,0
363.54,1.8481,2.67,0.20391,0,0,0,0
364.04,1.8514,2.67,0.20484,0,0,0,0
364.54,1.8546,2.67,0.20577,0,0,0,0
365.04,1.8579,2.67,0.20653,0,0,0,0
365.54,1.8614,2.67,0.20752,0,0,0,0
366.04,1.865,2.67,0.20844,0,0,0,0
366.54,1.8682,2.67,0.20954,0,0,0,0
367.04,1.8714,2.67,0.21027,0,0,0,0
367.54,1.8746,2.67,0.2113,0,0,0,0
368.04,1.8775,2.67,0.21207,0,0,0,0
368.54,1.8806,2.67,0.21291,0,0,0,0
369.04,1.8839,2.67,0.21399,0,0,0,0
369.54,1.8871,2.67,0.21478,0,0,0,0
370.04,1.8906,2.67,0.21581,0,0,0,0
370.54,1.8937,2.67,0.21686,0,0,0,0
371.04,1.8974,2.6697,0.21784,0,0,0,0
371.54,1.9006,2.6696,0.21894,0,0,0,0
372.04,1.9038,2.6694,0.22008,0,0,0,0
372.54,1.907,2.6693,0.22121,0,0,0,0
373.04,1.9103,2.669,0.2222,0,0,0,0
373.54,1.9132,2.669,0.22322,0,0,0,0
374.04,1.9165,2.6687,0.22432,0,0,0,0
374.54,1.9197,2.6683,0.22529,0,0,0,0
375.04,1.923,2.668,0.22647,0,0,0,0
375.54,1.9266,2.668,0.22748,0,0,0,0
376.04,1.9299,2.6677,0.22858,0,0,0,0
376.54,1.9335,2.6673,0.22959,0,0,0,0
377.04,1.9366,2.6667,0.23061,0,0,0,0
377.54,1.9398,2.6663,0.23199,0,0,0,0
378.04,1.9429,2.666,0.23284,0,0,0,0
378.54,1.9461,2.666,0.23406,0,0,0,0
379.04,1.9493,2.6657,0.23521,0,0,0,0
379.54,1.9526,2.665,0.23632,0,0,0,0
380.04,1.9559,2.6643,0.2377,0,0,0,0
380.54,1.9594,2.664,0.23878,0,0,0,0
381.04,1.9629,2.6637,0.24,0,0,0,0
381.54,1.9664,2.6633,0.2414,0,0,0,0
382.04,1.9698,2.6627,0.24271,0,0,0,0
382.54,1.9728,2.662,0.24377,0,0,0,0
383.04,1.976,2.6613,0.24526,0,0,0,0
383.54,1.9794,2.661,0.24647,0,0,0,0
384.04,1.9824,2.6607,0.2476,0,0,0,0
384.54,1.9858,2.66,0.24907,0,0,0,0
385.04,1.9893,2.6593,0.25016,0,0,0,0
385.54,1.9927,2.6587,0.25142,0,0,0,0
386.04,1.9962,2.658,0.2528,0,0,0,0
386.54,1.9997,2.657,0.25405,0,0,0,0
387.04,2.003,2.6563,0.25541,0,0,0,0
387.54,2.0061,2.6557,0.25681,0,0,0,0
388.04,2.0093,2.655,0.25826,0,0,0,0
388.54,2.0126,2.654,0.25971,0,0,0,0
389.04,2.0157,2.653,0.26124,0,0,0,0
389.54,2.0191,2.6523,0.26269,0,0,0,0
390.04,2.0226,2.6514,0.26393,0,0,0,0
390.54,2.0261,2.6503,0.2656,0,0,0,0
391.04,2.0298,2.649,0.26704,0,0,0,0
391.54,2.0333,2.6483,0.26843,0,0,0,0
392.04,2.0366,2.6474,0.26989,0,0,0,0
392.54,2.04,2.6463,0.27156,0,0,0,0
393.04,2.043,2.645,0.27296,0,0,0,0
393.54,2.0466,2.644,0.27462,0,0,0,0
394.04,2.0497,2.643,0.27615,0,0,0,0
394.54,2.0531,2.6417,0.27776,0,0,0,0
395.04,2.0565,2.6403,0.27943,0,0,0,0
395.54,2.06,2.639,0.28096,0,0,0,0
396.04,2.0637,2.6377,0.28225,0,0,0,0
396.54,2.0674,2.6363,0.28389,0,0,0,0
397.04,2.0709,2.635,0.28538,0,0,0,0
397.54,2.0741,2.6334,0.2871,0,0,0,0
398.04,2.0775,2.6316,0.28863,0,0,0,0
398.54,2.0808,2.6297,0.29039,0,0,0,0
399.04,2.0841,2.628,0.2921,0,0,0,0
399.54,2.0877,2.626,0.29378,0,0,0,0
400.04,2.0912,2.6243,0.29558,0,0,0,0
400.54,2.0947,2.6224,0.2973,0,0,0,0
401.04,2.0986,2.6206,0.29895,0,0,0,0
401.54,2.102,2.6187,0.30049,0,0,0,0
402.04,2.1056,2.6167,0.3024,0,0,0,0
402.54,2.109,2.6143,0.30386,0,0,0,0
403.04,2.1123,2.612,0.30567,0,0,0,0
403.54,2.1157,2.6097,0.3076,0,0,0,0
404.04,2.119,2.6073,0.30932,0,0,0,0
404.54,2.1225,2.605,0.311,0,0,0,0
405.04,2.1263,2.6027,0.31284,0,0,0,0
405.54,2.1299,2.6,0.31471,0,0,0,0
406.04,2.1339,2.5973,0.31652,0,0,0,0
406.54,2.1373,2.5947,0.31838,0,0,0,0
407.04,2.1408,2.592,0.32021,0,0,0,0
407.54,2.1443,2.589,0.32203,0,0,0,0
408.04,2.1476,2.5857,0.32388,0,0,0,0
408.54,2.1511,2.5823,0.32592,0,0,0,0
409.04,2.1547,2.579,0.32785,0,0,0,0
409.54,2.1582,2.576,0.32967,0,0,0,0
410.04,2.1619,2.573,0.33172,0,0,0,0
410.54,2.1659,2.5697,0.33362,0,0,0,0
411.04,2.1697,2.566,0.33571,0,0,0,0
411.54,2.1732,2.562,0.33751,0,0,0,0
412.04,2.1766,2.558,0.33942,0,0,0,0
412.54,2.1802,2.554,0.34152,0,0,0,0
413.04,2.1837,2.55,0.34333,0,0,0,0
413.54,2.1873,2.546,0.34545,0,0,0,0
414.04,2.1907,2.542,0.3474,0,0,0,0
414.54,2.1944,2.5377,0.34967,0,0,0,0
415.04,2.1985,2.5333,0.35173,0,0,0,0
415.54,2.2022,2.5287,0.35359,0,0,0,0
416.04,2.2061,2.5237,0.35571,0,0,0,0
416.54,2.2096,2.5186,0.35773,0,0,0,0
417.04,2.2132,2.5134,0.35984,0,0,0,0
417.54,2.2167,2.5086,0.36183,0,0,0,0
418.04,2.2202,2.5037,0.36407,0,0,0,0
418.54,2.2239,2.4984,0.36615,0,0,0,0
419.04,2.2276,2.4926,0.36815,0,0,0,0
419.54,2.2316,2.487,0.37045,0,0,0,0
420.04,2.2355,2.4814,0.37262,0,0,0,0
420.54,2.2396,2.475,0.37477,0,0,0,0
421.04,2.2434,2.4683,0.37692,0,0,0,0
421.54,2.2474,2.4617,0.37929,0,0,0,0
422.04,2.251,2.455,0.38135,0,0,0,0
422.54,2.2548,2.4483,0.38355,0,0,0,0
423.04,2.2586,2.4411,0.38599,0,0,0,0
423.54,2.2623,2.4336,0.38811,0,0,0,0
424.04,2.2664,2.426,0.39087,0,0,0,0
424.54,2.2705,2.4181,0.39311,0,0,0,0
425.04,2.2749,2.409,0.39562,0,0,0,0
425.54,2.279,2.3993,0.39827,0,0,0,0
426.04,2.283,2.3877,0.40101,0,0,0,0