File: polyN_optimization/results_exp/DP780/CH_00_1.csv
Time[s],Displacement[mm],Force[kN],AxStrain_1,AxStrain_2,Thickness[mm],OuterWidth[mm],Diameter[mm]
0,0,-0.034401,0,0,1.4976,19.967,5
1,1.30E-05,0.013707,-0.00021302,-0.00021302,0,0,0
2,-1.40E-05,0.089958,-0.00046111,-0.00046111,0,0,0
3,-0.000517,0.14861,-0.00040108,-0.00040108,0,0,0
4,9.70E-05,0.195,-0.00030805,-0.00030805,0,0,0
5,0.000387,0.24192,-0.00026904,-0.00026904,0,0,0
6,0.000248,0.28556,-0.00019102,-0.00019102,0,0,0
7,0.000445,0.32884,-0.00015701,-0.00015701,0,0,0
8,0.000872,0.3726,4.20E-05,4.20E-05,0,0,0
9,0.000975,0.41487,0.00026097,0.00026097,0,0,0
10,0.001093,0.45985,0.00018198,0.00018198,0,0,0
11,0.000728,0.50269,-0.00014201,-0.00014201,0,0,0
12,0.00097,0.54396,-0.00017602,-0.00017602,0,0,0
13,0.000984,0.58428,-0.00031105,-0.00031105,0,0,0
14,0.000504,0.62563,-0.00039508,-0.00039508,0,0,0
15,0.001051,0.66561,-0.00016201,-0.00016201,0,0,0
16,0.00097,0.70627,-0.00027704,-0.00027704,0,0,0
17,0.001089,0.74591,-0.00012501,-0.00012501,0,0,0
18,0.001146,0.78578,-0.00015901,-0.00015901,0,0,0
19,0.001406,0.82535,0.00012199,0.00012199,0,0,0
20,0.001748,0.8684,0.00013899,0.00013899,0,0,0
21,0.001697,0.90647,1.00E-05,1.00E-05,0,0,0
22,0.002025,0.94257,0.00035494,0.00035494,0,0,0
23,0.001941,0.98141,7.00E-06,7.00E-06,0,0,0
24,0.002032,1.0204,-4.40E-05,-4.40E-05,0,0,0
25,0.001762,1.0568,-8.10E-05,-8.10E-05,0,0,0
26,0.001978,1.0935,-0.00025403,-0.00025403,0,0,0
27,0.001715,1.1298,-6.80E-05,-6.80E-05,0,0,0
28,0.002083,1.1655,-1.00E-05,-1.00E-05,0,0,0
29,0.002117,1.2021,0.00017598,0.00017598,0,0,0
30,0.002631,1.2367,0.00017898,0.00017898,0,0,0
31,0.002547,1.2703,0.00014499,0.00014499,0,0,0
32,0.003054,1.3049,0.00031795,0.00031795,0,0,0
33,0.003271,1.3384,0.00020998,0.00020998,0,0,0
34,0.003765,1.3732,0.00023997,0.00023997,0,0,0
35,0.003325,1.4066,0.00028096,0.00028096,0,0,0
36,0.003241,1.4392,4.70E-05,4.70E-05,0,0,0
37,0.003133,1.4771,0.00012199,0.00012199,0,0,0
38,0.003279,1.5102,7.80E-05,7.80E-05,0,0,0
39,0.003229,1.5416,-4.70E-05,-4.70E-05,0,0,0
40,0.003557,1.5746,0.00024697,0.00024697,0,0,0
41,0.003902,1.6066,0.00019298,0.00019298,0,0,0
42,0.004207,1.6392,0.00030395,0.00030395,0,0,0
43,0.004653,1.6725,0.00052686,0.00052686,0,0,0
44,0.004289,1.7045,0.00038193,0.00038193,0,0,0
45,0.004455,1.7354,0.00020598,0.00020598,0,0,0
46,0.004469,1.7681,-0.00010801,-0.00010801,0,0,0
47,0.004169,1.7995,0.00025697,0.00025697,0,0,0
48,0.00422,1.8307,-3.00E-06,-3.00E-06,0,0,0
49,0.004342,1.8608,0.00013899,0.00013899,0,0,0
50,0.004786,1.892,0.00012499,0.00012499,0,0,0
51,0.004922,1.9217,0.00053786,0.00053786,0,0,0
52,0.005348,1.9549,0.00042891,0.00042891,0,0,0
53,0.005545,1.9886,0.00059182,0.00059182,0,0,0
54,0.00584,2.0171,0.00076071,0.00076071,0,0,0
55,0.006017,2.0483,0.00032795,0.00032795,0,0,0
56,0.005375,2.0794,0.00022298,0.00022298,0,0,0
57,0.005001,2.1096,0.00032795,0.00032795,0,0,0
58,0.00536,2.1387,0.00038892,0.00038892,0,0,0
59,0.005838,2.1678,0.00038193,0.00038193,0,0,0
60,0.005457,2.2003,0.00050387,0.00050387,0,0,0
61,0.005664,2.2299,0.00041291,0.00041291,0,0,0
62,0.005989,2.2594,0.00054085,0.00054085,0,0,0
63,0.006538,2.2911,0.00049088,0.00049088,0,0,0
64,0.006809,2.3214,0.0004399,0.0004399,0,0,0
65,0.007348,2.353,0.00033194,0.00033194,0,0,0
66,0.006635,2.3837,0.00025097,0.00025097,0,0,0
67,0.006552,2.4094,0.00036193,0.00036193,0,0,0
68,0.006587,2.4399,3.80E-05,3.80E-05,0,0,0
69,0.006625,2.4706,0.00035194,0.00035194,0,0,0
70,0.006833,2.4998,0.00035594,0.00035594,0,0,0
71,0.006476,2.5295,0.00047389,0.00047389,0,0,0
72,0.007044,2.5603,0.00047389,0.00047389,0,0,0
73,0.007718,2.5875,0.00058183,0.00058183,0,0,0
74,0.008186,2.6179,0.00079169,0.00079169,0,0,0
75,0.00886,2.6453,0.0011124,0.0011124,0,0,0
76,0.008874,2.6748,0.00065678,0.00065678,0,0,0
77,0.008156,2.7034,0.00050187,0.00050187,0,0,0
78,0.008262,2.7349,0.00051187,0.00051187,0,0,0
79,0.007969,2.7633,0.00059682,0.00059682,0,0,0
80,0.007967,2.793,0.00059582,0.00059582,0,0,0
81,0.008233,2.8204,0.00023197,0.00023197,0,0,0
82,0.008139,2.8483,0.00059282,0.00059282,0,0,0
83,0.008999,2.8771,0.00073473,0.00073473,0,0,0
84,0.009646,2.9074,0.00094755,0.00094755,0,0,0
85,0.010236,2.9343,0.0008976,0.0008976,0,0,0
86,0.009846,2.9642,0.0011403,0.0011403,0,0,0
87,0.009682,2.9914,0.00093756,0.00093756,0,0,0
88,0.009602,3.0214,0.00075871,0.00075871,0,0,0
89,0.009073,3.0469,0.00059382,0.00059382,0,0,0
90,0.009214,3.0755,0.00065079,0.00065079,0,0,0
91,0.009237,3.1039,0.00029996,0.00029996,0,0,0
92,0.009459,3.1322,0.00069476,0.00069476,0,0,0
93,0.00972,3.1605,0.00059382,0.00059382,0,0,0
94,0.01047,3.1895,0.00075871,0.00075871,0,0,0
95,0.01081,3.2148,0.00095854,0.00095854,0,0,0
96,0.011471,3.2422,0.0011114,0.0011114,0,0,0
97,0.011375,3.2728,0.00094555,0.00094555,0,0,0
98,0.01131,3.3007,0.00088061,0.00088061,0,0,0
99,0.011119,3.3291,0.00096453,0.00096453,0,0,0
100,0.01081,3.3567,0.00079568,0.00079568,0,0,0
101,0.010579,3.3855,0.00046789,0.00046789,0,0,0
102,0.010906,3.4145,0.00048588,0.00048588,0,0,0
103,0.010766,3.4415,0.00040092,0.00040092,0,0,0
104,0.011515,3.4704,0.0006308,0.0006308,0,0,0
105,0.01197,3.5002,0.00059382,0.00059382,0,0,0
106,0.012506,3.5276,0.00090459,0.00090459,0,0,0
107,0.013043,3.5525,0.00093157,0.00093157,0,0,0
108,0.01301,3.5825,0.0011543,0.0011543,0,0,0
109,0.012796,3.6079,0.0012492,0.0012492,0,0,0
110,0.01264,3.6371,0.0011513,0.0011513,0,0,0
111,0.012337,3.6659,0.00098152,0.00098152,0,0,0
112,0.012137,3.6887,0.00091458,0.00091458,0,0,0
113,0.012139,3.7178,0.00064379,0.00064379,0,0,0
114,0.012344,3.7463,0.00067777,0.00067777,0,0,0
115,0.012955,3.7713,0.00061081,0.00061081,0,0,0
116,0.013396,3.8005,0.00071175,0.00071175,0,0,0
117,0.01394,3.8272,0.0010504,0.0010504,0,0,0
118,0.014246,3.8575,0.0010834,0.0010834,0,0,0
119,0.014214,3.8815,0.0010834,0.0010834,0,0,0
120,0.01442,3.9087,0.0012522,0.0012522,0,0,0
121,0.013916,3.9373,0.0013201,0.0013201,0,0,0
122,0.013614,3.9611,0.001388,0.001388,0,0,0
123,0.013583,3.9895,0.0011174,0.0011174,0,0,0
124,0.013586,4.0163,0.0011174,0.0011174,0,0,0
125,0.013387,4.0442,0.00084764,0.00084764,0,0,0
126,0.013931,4.0726,0.00088161,0.00088161,0,0,0
127,0.014711,4.0951,0.0011513,0.0011513,0,0,0
128,0.015153,4.1239,0.0010844,0.0010844,0,0,0
129,0.015528,4.1495,0.0011184,0.0011184,0,0,0
130,0.015766,4.1754,0.0013551,0.0013551,0,0,0
131,0.015839,4.2028,0.0014569,0.0014569,0,0,0
132,0.015436,4.2285,0.0015588,0.0015588,0,0,0
133,0.015236,4.2563,0.0015917,0.0015917,0,0,0
134,0.014867,4.2839,0.0012203,0.0012203,0,0,0
135,0.01487,4.3086,0.00091658,0.00091658,0,0,0
136,0.01511,4.3326,0.00098452,0.00098452,0,0,0
137,0.015586,4.3619,0.00095055,0.00095055,0,0,0
138,0.015927,4.3887,0.0010185,0.0010185,0,0,0
139,0.016233,4.416,0.0010864,0.0010864,0,0,0
140,0.017013,4.4384,0.0011883,0.0011883,0,0,0
141,0.017016,4.4666,0.0012213,0.0012213,0,0,0
142,0.017357,4.4954,0.0014579,0.0014579,0,0,0
143,0.017123,4.5233,0.0017964,0.0017964,0,0,0
144,0.016755,4.5465,0.001425,0.001425,0,0,0
145,0.016554,4.5742,0.0015258,0.0015258,0,0,0
146,0.016253,4.5995,0.0011553,0.0011553,0,0,0
147,0.01663,4.6253,0.0010205,0.0010205,0,0,0
148,0.0168,4.6519,0.0010544,0.0010544,0,0,0
149,0.017343,4.6795,0.0011214,0.0011214,0,0,0
150,0.017954,4.7064,0.0011893,0.0011893,0,0,0
151,0.018499,4.7355,0.0012902,0.0012902,0,0,0
152,0.018976,4.76,0.001392,0.001392,0,0,0
153,0.019114,4.7838,0.0016966,0.0016966,0,0,0
154,0.018643,4.8108,0.0016626,0.0016626,0,0,0
155,0.018748,4.8368,0.0016966,0.0016966,0,0,0
156,0.018209,4.8667,0.0017644,0.0017644,0,0,0
157,0.01818,4.8906,0.001426,0.001426,0,0,0
158,0.018419,4.9159,0.0016636,0.0016636,0,0,0
159,0.018591,4.942,0.001427,0.001427,0,0,0
160,0.018831,4.9693,0.0015278,0.0015278,0,0,0
161,0.019476,4.9944,0.0012922,0.0012922,0,0,0
162,0.020088,5.0194,0.0016976,0.0016976,0,0,0
163,0.020396,5.0467,0.0015957,0.0015957,0,0,0
164,0.020602,5.0732,0.0016636,0.0016636,0,0,0
165,0.020673,5.1003,0.0018663,0.0018663,0,0,0
166,0.020508,5.1264,0.0018323,0.0018323,0,0,0
167,0.02014,5.1512,0.0018323,0.0018323,0,0,0
168,0.019976,5.1781,0.0018992,0.0018992,0,0,0
169,0.019472,5.2045,0.0018653,0.0018653,0,0,0
170,0.019915,5.233,0.0014599,0.0014599,0,0,0
171,0.020054,5.2569,0.001394,0.001394,0,0,0
172,0.0207,5.2867,0.0014939,0.0014939,0,0,0
173,0.021246,5.3119,0.001427,0.001427,0,0,0
174,0.021418,5.3398,0.0013251,0.0013251,0,0,0
175,0.022131,5.3647,0.0016976,0.0016976,0,0,0
176,0.021965,5.3904,0.0016976,0.0016976,0,0,0
177,0.021969,5.4178,0.0019671,0.0019671,0,0,0
178,0.021905,5.445,0.0018653,0.0018653,0,0,0
179,0.021909,5.4717,0.0021357,0.0021357,0,0,0
180,0.021236,5.4992,0.0017315,0.0017315,0,0,0
181,0.021274,5.5276,0.0019331,0.0019331,0,0,0
182,0.021582,5.5558,0.0018323,0.0018323,0,0,0
183,0.021686,5.5824,0.0016287,0.0016287,0,0,0
184,0.022535,5.6083,0.0016626,0.0016626,0,0,0
185,0.02291,5.6343,0.0015608,0.0015608,0,0,0
186,0.023454,5.661,0.0017305,0.0017305,0,0,0
187,0.023491,5.6879,0.0017315,0.0017315,0,0,0
188,0.02363,5.7142,0.0019331,0.0019331,0,0,0
189,0.023667,5.7397,0.0020689,0.0020689,0,0,0
190,0.023265,5.7698,0.0022704,0.0022704,0,0,0
191,0.023234,5.7993,0.0027093,0.0027093,0,0,0
192,0.023373,5.8266,0.0025398,0.0025398,0,0,0
193,0.023343,5.8494,0.0022036,0.0022036,0,0,0
194,0.023651,5.876,0.0022714,0.0022714,0,0,0
195,0.023991,5.9023,0.0019002,0.0019002,0,0,0
196,0.024603,5.9285,0.0019002,0.0019002,0,0,0
197,0.025181,5.9576,0.0018663,0.0018663,0,0,0
198,0.025423,5.986,0.0019002,0.0019002,0,0,0
199,0.025561,6.0124,0.0020359,0.0020359,0,0,0
200,0.025497,6.0386,0.0024061,0.0024061,0,0,0
201,0.025501,6.0652,0.0022714,0.0022714,0,0,0
202,0.025269,6.0916,0.0026764,0.0026764,0,0,0
203,0.025137,6.1193,0.0027781,0.0027781,0,0,0
204,0.025041,6.1437,0.0027442,0.0027442,0,0,0
205,0.025146,6.1731,0.002811,0.002811,0,0,0
206,0.025656,6.2017,0.0025757,0.0025757,0,0,0
207,0.026135,6.2292,0.0021716,0.0021716,0,0,0
208,0.026478,6.2536,0.0021387,0.0021387,0,0,0
209,0.026887,6.28,0.0021058,0.0021058,0,0,0
210,0.027228,6.3086,0.0024759,0.0024759,0,0,0
211,0.027165,6.336,0.0025438,0.0025438,0,0,0
212,0.027374,6.3624,0.0024769,0.0024769,0,0,0
213,0.027514,6.3908,0.0028489,0.0028489,0,0,0
214,0.027213,6.4198,0.002816,0.002816,0,0,0
215,0.027216,6.4461,0.0030174,0.0030174,0,0,0
216,0.027221,6.4745,0.002815,0.002815,0,0,0
217,0.027665,6.5019,0.002815,0.002815,0,0,0
218,0.027803,6.529,0.0026794,0.0026794,0,0,0
219,0.028381,6.5588,0.0023782,0.0023782,0,0,0
220,0.028722,6.584,0.0022445,0.0022445,0,0,0
221,0.02903,6.6118,0.0023782,0.0023782,0,0,0
222,0.02917,6.6357,0.0024799,0.0024799,0,0,0
223,0.029342,6.6674,0.0023802,0.0023802,0,0,0
224,0.02938,6.6975,0.0028519,0.0028519,0,0,0
225,0.029385,6.7236,0.0029875,0.0029875,0,0,0
226,0.02959,6.7509,0.0030204,0.0030204,0,0,0
227,0.029627,6.7802,0.0029875,0.0029875,0,0,0
228,0.029835,6.8137,0.0029197,0.0029197,0,0,0
229,0.030108,6.838,0.0030214,0.0030214,0,0,0
230,0.030416,6.866,0.0026166,0.0026166,0,0,0
231,0.030249,6.8941,0.0025148,0.0025148,0,0,0
232,0.030996,6.9215,0.0024809,0.0024809,0,0,0
233,0.031034,6.9491,0.0027851,0.0027851,0,0,0
234,0.031477,6.9774,0.0029197,0.0029197,0,0,0
235,0.031548,7.004,0.0030553,0.0030553,0,0,0
236,0.031519,7.033,0.0030902,0.0030902,0,0,0
237,0.031928,7.0617,0.0032567,0.0032567,0,0,0
238,0.032303,7.0921,0.0031899,0.0031899,0,0,0
239,0.032171,7.1169,0.003458,0.003458,0,0,0
240,0.033092,7.1462,0.0033902,0.0033902,0,0,0
241,0.032581,7.1753,0.003155,0.003155,0,0,0
242,0.032891,7.2059,0.0031889,0.0031889,0,0,0
243,0.032659,7.2335,0.0027163,0.0027163,0,0,0
244,0.032221,7.2608,0.0031879,0.0031879,0,0,0
245,0.03408,7.2896,0.0030194,0.0030194,0,0,0
246,0.033887,7.3197,0.0035258,0.0035258,0,0,0
247,0.034397,7.3479,0.0034251,0.0034251,0,0,0
248,0.034468,7.3758,0.0035597,0.0035597,0,0,0
249,0.034607,7.4055,0.0036932,0.0036932,0,0,0
250,0.035018,7.434,0.0039293,0.0039293,0,0,0
251,0.034919,7.4657,0.003996,0.003996,0,0,0
252,0.035159,7.4926,0.003728,0.003728,0,0,0
253,0.035334,7.5206,0.0034909,0.0034909,0,0,0
254,0.035678,7.5514,0.0033554,0.0033554,0,0,0
255,0.035681,7.5844,0.0034241,0.0034241,0,0,0
256,0.035956,7.6078,0.0035915,0.0035915,0,0,0
257,0.036499,7.6388,0.0038287,0.0038287,0,0,0
258,0.03664,7.6695,0.0039631,0.0039631,0,0,0
259,0.037151,7.6987,0.0040289,0.0040289,0,0,0
260,0.037427,7.727,0.0040627,0.0040627,0,0,0
261,0.037496,7.7586,0.0045695,0.0045695,0,0,0
262,0.037701,7.789,0.0046024,0.0046024,0,0,0
263,0.037807,7.8176,0.0042639,0.0042639,0,0,0
264,0.038219,7.8447,0.0040299,0.0040299,0,0,0
265,0.037985,7.8742,0.003727,0.003727,0,0,0
266,0.038156,7.9044,0.0040976,0.0040976,0,0,0
267,0.038668,7.9342,0.0040637,0.0040637,0,0,0
268,0.039143,7.9616,0.0040647,0.0040647,0,0,0
269,0.039722,7.9928,0.0044003,0.0044003,0,0,0
270,0.040234,8.0193,0.0047039,0.0047039,0,0,0
271,0.040744,8.0475,0.0047706,0.0047706,0,0,0
272,0.041287,8.0759,0.0050393,0.0050393,0,0,0
273,0.040817,8.106,0.0051746,0.0051746,0,0,0
274,0.040788,8.136,0.0047029,0.0047029,0,0,0
275,0.040792,8.1644,0.0044999,0.0044999,0,0,0
276,0.040998,8.1951,0.0043665,0.0043665,0,0,0
277,0.041236,8.2259,0.0040976,0.0040976,0,0,0
278,0.04168,8.2547,0.0043674,0.0043674,0,0,0
279,0.041886,8.2876,0.0045357,0.0045357,0,0,0
280,0.042632,8.3124,0.0046034,0.0046034,0,0,0
281,0.043175,8.3412,0.0050413,0.0050413,0,0,0
282,0.043821,8.3716,0.0052094,0.0052094,0,0,0
283,0.044329,8.4011,0.0054432,0.0054432,0,0,0
284,0.044369,8.4334,0.005646,0.005646,0,0,0
285,0.044337,8.4601,0.0053427,0.0053427,0,0,0
286,0.044374,8.4919,0.0050741,0.0050741,0,0,0
287,0.044344,8.5209,0.0048044,0.0048044,0,0,0
288,0.044617,8.5504,0.0048731,0.0048731,0,0,0
289,0.044822,8.5776,0.0048054,0.0048054,0,0,0
290,0.045636,8.6095,0.0050741,0.0050741,0,0,0
291,0.04618,8.6386,0.0053109,0.0053109,0,0,0
292,0.047434,8.6709,0.0057156,0.0057156,0,0,0
293,0.047909,8.7001,0.006151,0.006151,0,0,0
294,0.048252,8.7305,0.0064521,0.0064521,0,0,0
295,0.048217,8.7612,0.0065545,0.0065545,0,0,0
296,0.048122,8.7897,0.006318,0.006318,0,0,0
297,0.047955,8.8185,0.0056132,0.0056132,0,0,0
298,0.047992,8.8501,0.0058151,0.0058151,0,0,0
299,0.048367,8.8797,0.0056142,0.0056142,0,0,0
300,0.048742,8.91,0.005649,0.005649,0,0,0
301,0.049963,8.9387,0.0057832,0.0057832,0,0,0
302,0.050472,8.9704,0.0062524,0.0062524,0,0,0
303,0.051147,9.0007,0.0065545,0.0065545,0,0,0
304,0.051793,9.0304,0.0068564,0.0068564,0,0,0
305,0.052372,9.0579,0.0071256,0.0071256,0,0,0
306,0.05224,9.0848,0.0072248,0.0072248,0,0,0
307,0.052344,9.1172,0.0069577,0.0069577,0,0,0
308,0.052042,9.1475,0.0065892,0.0065892,0,0,0
309,0.052147,9.1777,0.006622,0.006622,0,0,0
310,0.05259,9.2047,0.006321,0.006321,0,0,0
311,0.053404,9.2358,0.0062534,0.0062534,0,0,0
312,0.053946,9.2666,0.0065237,0.0065237,0,0,0
313,0.055063,9.2951,0.0069925,0.0069925,0,0,0
314,0.055675,9.3247,0.0072943,0.0072943,0,0,0
315,0.056286,9.3534,0.0076636,0.0076636,0,0,0
316,0.056691,9.3832,0.0079979,0.0079979,0,0,0
317,0.056731,9.4139,0.0079642,0.0079642,0,0,0
318,0.056902,9.444,0.0078987,0.0078987,0,0,0
319,0.05704,9.4731,0.0075981,0.0075981,0,0,0
320,0.057145,9.5018,0.0072278,0.0072278,0,0,0
321,0.057587,9.5322,0.0072288,0.0072288,0,0,0
322,0.058336,9.561,0.0074968,0.0074968,0,0,0
323,0.059247,9.5909,0.0074303,0.0074303,0,0,0
324,0.060028,9.6219,0.0079662,0.0079662,0,0,0
325,0.060639,9.6545,0.00847,0.00847,0,0,0
326,0.061286,9.682,0.0085692,0.0085692,0,0,0
327,0.061589,9.7147,0.0091381,0.0091381,0,0,0
328,0.061965,9.7436,0.0091044,0.0091044,0,0,0
329,0.062442,9.7736,0.0089726,0.0089726,0,0,0
330,0.06224,9.8006,0.0086683,0.0086683,0,0,0
331,0.062987,9.8325,0.0084363,0.0084363,0,0,0
332,0.063901,9.8642,0.0083024,0.0083024,0,0,0
333,0.064276,9.8931,0.0085712,0.0085712,0,0,0
334,0.065089,9.9178,0.0084373,0.0084373,0,0,0
335,0.065633,9.9521,0.0091738,0.0091738,0,0,0
336,0.066177,9.9816,0.009675,0.009675,0,0,0
337,0.066652,10.009,0.01001,0.01001,0,0,0
338,0.067025,10.038,0.010411,0.010411,0,0,0
339,0.067975,10.07,0.010443,0.010443,0,0,0
340,0.068519,10.101,0.010211,0.010211,0,0,0
341,0.069061,10.129,0.0098444,0.0098444,0,0,0
342,0.069639,10.155,0.0097097,0.0097097,0,0,0
343,0.070215,10.186,0.0098117,0.0098117,0,0,0
344,0.071028,10.217,0.0098107,0.0098107,0,0,0
345,0.070999,10.249,0.010012,0.010012,0,0,0
346,0.07171,10.277,0.010512,0.010512,0,0,0
347,0.072424,10.305,0.010948,0.010948,0,0,0
348,0.0729,10.336,0.011384,0.011384,0,0,0
349,0.073881,10.365,0.01175,0.01175,0,0,0
350,0.074458,10.393,0.011715,0.011715,0,0,0
351,0.075813,10.423,0.011548,0.011548,0,0,0
352,0.076726,10.454,0.01135,0.01135,0,0,0
353,0.077371,10.482,0.010884,0.010884,0,0,0
354,0.078013,10.51,0.011051,0.011051,0,0,0
355,0.078052,10.538,0.01085,0.01085,0,0,0
356,0.078357,10.569,0.011451,0.011451,0,0,0
357,0.078902,10.596,0.011551,0.011551,0,0,0
358,0.078971,10.626,0.01222,0.01222,0,0,0
359,0.080122,10.654,0.012787,0.012787,0,0,0
360,0.081104,10.681,0.013087,0.013087,0,0,0
361,0.082828,10.712,0.012987,0.012987,0,0,0
362,0.083506,10.741,0.012755,0.012755,0,0,0
363,0.084488,10.769,0.012689,0.012689,0,0,0
364,0.085166,10.798,0.012589,0.012589,0,0,0
365,0.085911,10.826,0.012456,0.012456,0,0,0
366,0.086591,10.855,0.012624,0.012624,0,0,0
367,0.086491,10.883,0.013292,0.013292,0,0,0
368,0.0869,10.911,0.013058,0.013058,0,0,0
369,0.087744,10.942,0.014025,0.014025,0,0,0
370,0.088964,10.97,0.014459,0.014459,0,0,0
371,0.089979,10.998,0.014558,0.014558,0,0,0
372,0.091433,11.028,0.014625,0.014625,0,0,0
373,0.092684,11.058,0.014393,0.014393,0,0,0
374,0.093326,11.086,0.014261,0.014261,0,0,0
375,0.093734,11.117,0.014328,0.014328,0,0,0
376,0.094682,11.145,0.014261,0.014261,0,0,0
377,0.095126,11.17,0.014627,0.014627,0,0,0
378,0.095464,11.198,0.015194,0.015194,0,0,0
379,0.096747,11.229,0.015324,0.015324,0,0,0
380,0.097967,11.258,0.016024,0.016024,0,0,0
381,0.099285,11.284,0.016023,0.016023,0,0,0
382,0.1001,11.311,0.016354,0.016354,0,0,0
383,0.10094,11.342,0.016457,0.016457,0,0,0
384,0.10199,11.371,0.01609,0.01609,0,0,0
385,0.10281,11.399,0.016323,0.016323,0,0,0
386,0.10392,11.426,0.016257,0.016257,0,0,0
387,0.1047,11.451,0.016289,0.016289,0,0,0
388,0.10599,11.478,0.016589,0.016589,0,0,0
389,0.10734,11.505,0.017185,0.017185,0,0,0
390,0.10838,11.534,0.017649,0.017649,0,0,0
391,0.10906,11.559,0.017949,0.017949,0,0,0
392,0.11018,11.586,0.018114,0.018114,0,0,0
393,0.11028,11.614,0.018647,0.018647,0,0,0
394,0.11117,11.642,0.018647,0.018647,0,0,0
395,0.11211,11.67,0.018514,0.018514,0,0,0
396,0.11313,11.696,0.018545,0.018545,0,0,0
397,0.11455,11.723,0.018712,0.018712,0,0,0
398,0.11627,11.752,0.018744,0.018744,0,0,0
399,0.11762,11.778,0.019243,0.019243,0,0,0
400,0.11901,11.807,0.019439,0.019439,0,0,0
401,0.12002,11.831,0.019805,0.019805,0,0,0
402,0.1209,11.857,0.020169,0.020169,0,0,0
403,0.12107,11.885,0.020731,0.020731,0,0,0
404,0.12175,11.912,0.020799,0.020799,0,0,0
405,0.12297,11.938,0.02093,0.02093,0,0,0
406,0.12408,11.963,0.02093,0.02093,0,0,0
407,0.1254,11.99,0.020998,0.020998,0,0,0
408,0.12709,12.02,0.021129,0.021129,0,0,0
409,0.12838,12.044,0.021129,0.021129,0,0,0
410,0.12983,12.072,0.021493,0.021493,0,0,0
411,0.13078,12.097,0.022021,0.022021,0,0,0
412,0.13169,12.125,0.022285,0.022285,0,0,0
413,0.13301,12.151,0.022912,0.022912,0,0,0
414,0.13416,12.175,0.023012,0.023012,0,0,0
415,0.13561,12.201,0.023442,0.023442,0,0,0
416,0.13717,12.228,0.023474,0.023474,0,0,0
417,0.13835,12.253,0.023474,0.023474,0,0,0
418,0.13923,12.278,0.023904,0.023904,0,0,0
419,0.14044,12.304,0.023705,0.023705,0,0,0
420,0.14153,12.329,0.024168,0.024168,0,0,0
421,0.14258,12.355,0.024299,0.024299,0,0,0
422,0.14359,12.381,0.024629,0.024629,0,0,0
423,0.14515,12.406,0.025091,0.025091,0,0,0
424,0.14684,12.428,0.025487,0.025487,0,0,0
425,0.14859,12.456,0.025849,0.025849,0,0,0
426,0.15055,12.482,0.026178,0.026178,0,0,0
427,0.1519,12.507,0.026178,0.026178,0,0,0
428,0.15306,12.532,0.026246,0.026246,0,0,0
429,0.15417,12.561,0.026541,0.026541,0,0,0
430,0.15474,12.587,0.02641,0.02641,0,0,0
431,0.15562,12.613,0.02677,0.02677,0,0,0
432,0.15728,12.636,0.027231,0.027231,0,0,0
433,0.1587,12.661,0.027625,0.027625,0,0,0
434,0.16073,12.687,0.028087,0.028087,0,0,0
435,0.16252,12.713,0.028482,0.028482,0,0,0
436,0.16417,12.735,0.028645,0.028645,0,0,0
437,0.16536,12.759,0.028907,0.028907,0,0,0
438,0.16685,12.789,0.029236,0.029236,0,0,0
439,0.16772,12.813,0.029433,0.029433,0,0,0
440,0.16975,12.834,0.029597,0.029597,0,0,0
441,0.17114,12.861,0.030025,0.030025,0,0,0
442,0.17313,12.885,0.030125,0.030125,0,0,0
443,0.17455,12.909,0.030483,0.030483,0,0,0
444,0.17614,12.933,0.031042,0.031042,0,0,0
445,0.17729,12.957,0.031435,0.031435,0,0,0
446,0.17851,12.983,0.032058,0.032058,0,0,0
447,0.18006,13.009,0.032188,0.032188,0,0,0
448,0.18104,13.035,0.032579,0.032579,0,0,0
449,0.18324,13.057,0.032484,0.032484,0,0,0
450,0.18537,13.077,0.03271,0.03271,0,0,0
451,0.18739,13.105,0.033269,0.033269,0,0,0
452,0.18929,13.13,0.033596,0.033596,0,0,0
453,0.19074,13.156,0.033726,0.033726,0,0,0
454,0.19213,13.176,0.034381,0.034381,0,0,0
455,0.193,13.201,0.034772,0.034772,0,0,0
456,0.19503,13.227,0.035066,0.035066,0,0,0
457,0.19615,13.249,0.035459,0.035459,0,0,0
458,0.19838,13.273,0.035783,0.035783,0,0,0
459,0.19973,13.296,0.036206,0.036206,0,0,0
460,0.20179,13.318,0.036144,0.036144,0,0,0
461,0.20328,13.342,0.036568,0.036568,0,0,0
462,0.20476,13.363,0.036894,0.036894,0,0,0
463,0.20642,13.386,0.037089,0.037089,0,0,0
464,0.20808,13.408,0.037674,0.037674,0,0,0
465,0.21014,13.429,0.038194,0.038194,0,0,0
466,0.2123,13.456,0.038194,0.038194,0,0,0
467,0.2146,13.479,0.038877,0.038877,0,0,0
468,0.21635,13.499,0.039202,0.039202,0,0,0
469,0.2178,13.526,0.039397,0.039397,0,0,0
470,0.21915,13.547,0.039528,0.039528,0,0,0
471,0.22068,13.57,0.039918,0.039918,0,0,0
472,0.22159,13.596,0.040565,0.040565,0,0,0
473,0.22335,13.617,0.040697,0.040697,0,0,0
474,0.2252,13.638,0.041182,0.041182,0,0,0
475,0.2278,13.659,0.041442,0.041442,0,0,0
476,0.22993,13.681,0.041896,0.041896,0,0,0
477,0.23179,13.704,0.042219,0.042219,0,0,0
478,0.23354,13.724,0.042706,0.042706,0,0,0
479,0.2353,13.749,0.042933,0.042933,0,0,0
480,0.23722,13.768,0.043286,0.043286,0,0,0
481,0.23902,13.791,0.043514,0.043514,0,0,0
482,0.24128,13.813,0.044096,0.044096,0,0,0
483,0.24371,13.835,0.044485,0.044485,0,0,0
484,0.24564,13.858,0.044937,0.044937,0,0,0
485,0.24743,13.878,0.045583,0.045583,0,0,0
486,0.24848,13.899,0.046131,0.046131,0,0,0
487,0.24996,13.919,0.045938,0.045938,0,0,0
488,0.25165,13.942,0.046518,0.046518,0,0,0
489,0.25348,13.962,0.046969,0.046969,0,0,0
490,0.25567,13.985,0.046937,0.046937,0,0,0
491,0.25817,14.004,0.047259,0.047259,0,0,0
492,0.26074,14.027,0.047839,0.047839,0,0,0
493,0.26277,14.047,0.048324,0.048324,0,0,0
494,0.26459,14.067,0.04887,0.04887,0,0,0
495,0.26634,14.087,0.049417,0.049417,0,0,0
496,0.268,14.107,0.049544,0.049544,0,0,0
497,0.27047,14.131,0.049995,0.049995,0,0,0
498,0.27233,14.153,0.050318,0.050318,0,0,0
499,0.27476,14.171,0.050509,0.050509,0,0,0
500,0.27671,14.191,0.050862,0.050862,0,0,0
501,0.27827,14.215,0.051311,0.051311,0,0,0
502,0.27992,14.232,0.051921,0.051921,0,0,0
503,0.28155,14.252,0.052243,0.052243,0,0,0
504,0.28374,14.271,0.052724,0.052724,0,0,0
505,0.28577,14.294,0.052917,0.052917,0,0,0
506,0.28824,14.311,0.053334,0.053334,0,0,0
507,0.29104,14.33,0.053909,0.053909,0,0,0
508,0.2932,14.352,0.054103,0.054103,0,0,0
509,0.29523,14.371,0.054422,0.054422,0,0,0
510,0.29739,14.39,0.054869,0.054869,0,0,0
511,0.29925,14.411,0.055062,0.055062,0,0,0
512,0.30124,14.431,0.055667,0.055667,0,0,0
513,0.30323,14.45,0.055922,0.055922,0,0,0
514,0.3056,14.469,0.056466,0.056466,0,0,0
515,0.30776,14.489,0.056915,0.056915,0,0,0
516,0.31013,14.511,0.05701,0.05701,0,0,0
517,0.31175,14.528,0.057618,0.057618,0,0,0
518,0.31354,14.548,0.058062,0.058062,0,0,0
519,0.31577,14.568,0.058446,0.058446,0,0,0
520,0.31783,14.589,0.058988,0.058988,0,0,0
521,0.32046,14.607,0.059689,0.059689,0,0,0
522,0.3235,14.626,0.060069,0.060069,0,0,0
523,0.32603,14.645,0.06045,0.06045,0,0,0
524,0.32843,14.662,0.060992,0.060992,0,0,0
525,0.33039,14.679,0.061183,0.061183,0,0,0
526,0.33255,14.697,0.061564,0.061564,0,0,0
527,0.33421,14.717,0.061789,0.061789,0,0,0
528,0.33641,14.736,0.062486,0.062486,0,0,0
529,0.33918,14.756,0.063185,0.063185,0,0,0
530,0.34184,14.772,0.063532,0.063532,0,0,0
531,0.34373,14.79,0.064515,0.064515,0,0,0
532,0.34613,14.807,0.064514,0.064514,0,0,0
533,0.34782,14.827,0.064991,0.064991,0,0,0
534,0.34988,14.842,0.06534,0.06534,0,0,0
535,0.35211,14.857,0.065909,0.065909,0,0,0
536,0.35451,14.878,0.066289,0.066289,0,0,0
537,0.35735,14.895,0.06651,0.06651,0,0,0
538,0.36012,14.915,0.067143,0.067143,0,0,0
539,0.36265,14.934,0.067806,0.067806,0,0,0
540,0.36492,14.952,0.06828,0.06828,0,0,0
541,0.36714,14.969,0.068976,0.068976,0,0,0
542,0.36927,14.986,0.069447,0.069447,0,0,0
543,0.37137,15.005,0.069981,0.069981,0,0,0
544,0.37404,15.021,0.070614,0.070614,0,0,0
545,0.3768,15.039,0.07121,0.07121,0,0,0
546,0.37924,15.056,0.071431,0.071431,0,0,0
547,0.38137,15.073,0.072375,0.072375,0,0,0
548,0.38322,15.091,0.072845,0.072845,0,0,0
549,0.38498,15.107,0.073066,0.073066,0,0,0
550,0.38745,15.122,0.073506,0.073506,0,0,0
551,0.38981,15.14,0.073976,0.073976,0,0,0
552,0.39275,15.158,0.074447,0.074447,0,0,0
553,0.39559,15.183,0.075106,0.075106,0,0,0
554,0.39842,15.192,0.075576,0.075576,0,0,0
555,0.40075,15.209,0.076297,0.076297,0,0,0
556,0.40335,15.227,0.077455,0.077455,0,0,0
557,0.40555,15.243,0.077828,0.077828,0,0,0
558,0.40822,15.262,0.078141,0.078141,0,0,0
559,0.41106,15.28,0.078516,0.078516,0,0,0
560,0.41403,15.295,0.078704,0.078704,0,0,0
561,0.41694,15.312,0.07942,0.07942,0,0,0
562,0.41937,15.331,0.079796,0.079796,0,0,0
563,0.42126,15.343,0.080637,0.080637,0,0,0
564,0.42312,15.359,0.081168,0.081168,0,0,0
565,0.42575,15.377,0.08179,0.08179,0,0,0
566,0.42832,15.393,0.082662,0.082662,0,0,0
567,0.43126,15.407,0.083502,0.083502,0,0,0
568,0.43433,15.425,0.083749,0.083749,0,0,0
569,0.43696,15.441,0.083968,0.083968,0,0,0
570,0.43943,15.457,0.084745,0.084745,0,0,0
571,0.44197,15.474,0.085023,0.085023,0,0,0
572,0.44436,15.488,0.085582,0.085582,0,0,0
573,0.4474,15.504,0.086046,0.086046,0,0,0
574,0.45048,15.521,0.086976,0.086976,0,0,0
575,0.45328,15.538,0.087782,0.087782,0,0,0
576,0.45622,15.551,0.088587,0.088587,0,0,0
577,0.45858,15.567,0.089114,0.089114,0,0,0
578,0.46091,15.582,0.08964,0.08964,0,0,0
579,0.46331,15.599,0.090226,0.090226,0,0,0
580,0.46541,15.613,0.090596,0.090596,0,0,0
581,0.46848,15.628,0.091182,0.091182,0,0,0
582,0.47138,15.643,0.091676,0.091676,0,0,0
583,0.47422,15.657,0.092383,0.092383,0,0,0
584,0.47692,15.674,0.093308,0.093308,0,0,0
585,0.47929,15.691,0.093832,0.093832,0,0,0
586,0.48202,15.705,0.094139,0.094139,0,0,0
587,0.48446,15.718,0.094664,0.094664,0,0,0
588,0.48773,15.733,0.095463,0.095463,0,0,0
589,0.49118,15.749,0.095955,0.095955,0,0,0
590,0.49398,15.763,0.096322,0.096322,0,0,0
591,0.49706,15.778,0.097242,0.097242,0,0,0
592,0.49945,15.793,0.098223,0.098223,0,0,0
593,0.50209,15.807,0.098805,0.098805,0,0,0
594,0.50469,15.821,0.099416,0.099416,0,0,0
595,0.50773,15.838,0.099998,0.099998,0,0,0
596,0.5106,15.85,0.10043,0.10043,0,0,0
597,0.51374,15.864,0.10107,0.10107,0,0,0
598,0.51672,15.878,0.10147,0.10147,0,0,0
599,0.51898,15.893,0.10244,0.10244,0,0,0
600,0.52134,15.909,0.10272,0.10272,0,0,0
601,0.52415,15.923,0.10351,0.10351,0,0,0
602,0.52688,15.939,0.10412,0.10412,0,0,0
603,0.52999,15.953,0.10473,0.10473,0,0,0
604,0.53337,15.967,0.10549,0.10549,0,0,0
605,0.53651,15.981,0.10576,0.10576,0,0,0
606,0.53938,15.998,0.10643,0.10643,0,0,0
607,0.54185,16.009,0.10716,0.10716,0,0,0
608,0.54502,16.021,0.10774,0.10774,0,0,0
609,0.54793,16.036,0.10858,0.10858,0,0,0
610,0.55141,16.051,0.10928,0.10928,0,0,0
611,0.55455,16.066,0.10986,0.10986,0,0,0
612,0.5579,16.08,0.11052,0.11052,0,0,0
613,0.5607,16.09,0.11107,0.11107,0,0,0
614,0.5633,16.103,0.11201,0.11201,0,0,0
615,0.56587,16.117,0.1124,0.1124,0,0,0
616,0.56864,16.129,0.11291,0.11291,0,0,0
617,0.57178,16.147,0.1137,0.1137,0,0,0
618,0.57499,16.158,0.11472,0.11472,0,0,0
619,0.57813,16.173,0.1155,0.1155,0,0,0
620,0.58097,16.188,0.11644,0.11644,0,0,0
621,0.58377,16.197,0.11695,0.11695,0,0,0
622,0.58658,16.21,0.11746,0.11746,0,0,0
623,0.58925,16.225,0.1183,0.1183,0,0,0
624,0.59286,16.237,0.11923,0.11923,0,0,0
625,0.59644,16.257,0.1198,0.1198,0,0,0
626,0.59975,16.273,0.1204,0.1204,0,0,0
627,0.60296,16.278,0.12124,0.12124,0,0,0
628,0.606,16.289,0.12211,0.12211,0,0,0
629,0.60884,16.303,0.12306,0.12306,0,0,0
630,0.61195,16.315,0.12399,0.12399,0,0,0
631,0.6155,16.329,0.12491,0.12491,0,0,0
632,0.61884,16.339,0.12521,0.12521,0,0,0
633,0.62235,16.354,0.12623,0.12623,0,0,0
634,0.62519,16.368,0.12709,0.12709,0,0,0
635,0.6281,16.38,0.12768,0.12768,0,0,0
636,0.6307,16.393,0.12822,0.12822,0,0,0
637,0.63374,16.403,0.12908,0.12908,0,0,0
638,0.63722,16.416,0.12991,0.12991,0,0,0
639,0.64067,16.428,0.13086,0.13086,0,0,0
640,0.64388,16.441,0.13125,0.13125,0,0,0
641,0.64685,16.454,0.13219,0.13219,0,0,0
642,0.64976,16.466,0.1327,0.1327,0,0,0
643,0.65263,16.478,0.13397,0.13397,0,0,0
644,0.65631,16.492,0.13486,0.13486,0,0,0
645,0.65976,16.503,0.13562,0.13562,0,0,0
646,0.66378,16.516,0.13642,0.13642,0,0,0
647,0.66712,16.528,0.13727,0.13727,0,0,0
648,0.67013,16.539,0.13825,0.13825,0,0,0
649,0.67351,16.55,0.13925,0.13925,0,0,0
650,0.67638,16.561,0.14004,0.14004,0,0,0
651,0.68003,16.574,0.1403,0.1403,0,0,0
652,0.68375,16.585,0.14136,0.14136,0,0,0
653,0.68723,16.597,0.14192,0.14192,0,0,0
654,0.69044,16.607,0.14283,0.14283,0,0,0
655,0.69364,16.619,0.14388,0.14388,0,0,0
656,0.69652,16.631,0.14497,0.14497,0,0,0
657,0.69926,16.643,0.14575,0.14575,0,0,0
658,0.70294,16.653,0.1464,0.1464,0,0,0
659,0.70656,16.666,0.14756,0.14756,0,0,0
660,0.7102,16.678,0.14794,0.14794,0,0,0
661,0.71358,16.689,0.14882,0.14882,0,0,0
662,0.71669,16.699,0.14957,0.14957,0,0,0
663,0.71977,16.71,0.15056,0.15056,0,0,0
664,0.72294,16.721,0.15141,0.15141,0,0,0
665,0.72693,16.733,0.15251,0.15251,0,0,0
666,0.73068,16.744,0.15303,0.15303,0,0,0
667,0.73447,16.755,0.15431,0.15431,0,0,0
668,0.73781,16.766,0.15518,0.15518,0,0,0
669,0.74122,16.777,0.15602,0.15602,0,0,0
670,0.7446,16.788,0.15694,0.15694,0,0,0
671,0.74811,16.8,0.15763,0.15763,0,0,0
672,0.75166,16.81,0.15879,0.15879,0,0,0
673,0.75568,16.82,0.15965,0.15965,0,0,0
674,0.75943,16.828,0.16029,0.16029,0,0,0
675,0.76247,16.839,0.16155,0.16155,0,0,0
676,0.76609,16.851,0.16253,0.16253,0,0,0
677,0.76933,16.861,0.16388,0.16388,0,0,0
678,0.77228,16.872,0.16474,0.16474,0,0,0
679,0.77653,16.882,0.16603,0.16603,0,0,0
680,0.78031,16.892,0.16703,0.16703,0,0,0
681,0.78383,16.903,0.16755,0.16755,0,0,0
682,0.78694,16.916,0.16869,0.16869,0,0,0
683,0.79025,16.925,0.1698,0.1698,0,0,0
684,0.79363,16.935,0.17091,0.17091,0,0,0
685,0.79775,16.944,0.172,0.172,0,0,0
686,0.80184,16.956,0.17319,0.17319,0,0,0
687,0.80532,16.966,0.17421,0.17421,0,0,0
688,0.80938,16.976,0.17478,0.17478,0,0,0
689,0.81262,16.985,0.17592,0.17592,0,0,0
690,0.8164,16.994,0.17702,0.17702,0,0,0
691,0.82016,17.007,0.17801,0.17801,0,0,0
692,0.82421,17.014,0.17903,0.17903,0,0,0
693,0.82874,17.025,0.18025,0.18025,0,0,0
694,0.83273,17.034,0.18157,0.18157,0,0,0
695,0.83607,17.045,0.18304,0.18304,0,0,0
696,0.83952,17.056,0.18394,0.18394,0,0,0
697,0.84323,17.064,0.18489,0.18489,0,0,0
698,0.84719,17.072,0.1856,0.1856,0,0,0
699,0.85148,17.08,0.18666,0.18666,0,0,0
700,0.85533,17.09,0.18773,0.18773,0,0,0
701,0.85891,17.099,0.18915,0.18915,0,0,0
702,0.86226,17.11,0.19061,0.19061,0,0,0
703,0.86587,17.123,0.19178,0.19178,0,0,0
704,0.86939,17.127,0.19292,0.19292,0,0,0
705,0.87229,17.135,0.19415,0.19415,0,0,0
706,0.87784,17.145,0.19498,0.19498,0,0,0
707,0.88182,17.154,0.19621,0.19621,0,0,0
708,0.88544,17.163,0.19723,0.19723,0,0,0
709,0.88905,17.174,0.19873,0.19873,0,0,0
710,0.89297,17.184,0.19962,0.19962,0,0,0
711,0.89733,17.19,0.20081,0.20081,0,0,0
712,0.90163,17.2,0.20199,0.20199,0,0,0
713,0.90602,17.212,0.20299,0.20299,0,0,0
714,0.9094,17.221,0.20382,0.20382,0,0,0
715,0.91352,17.229,0.20539,0.20539,0,0,0
716,0.91744,17.238,0.20649,0.20649,0,0,0
717,0.92177,17.245,0.20819,0.20819,0,0,0
718,0.92636,17.252,0.20915,0.20915,0,0,0
719,0.93072,17.262,0.21079,0.21079,0,0,0
720,0.9346,17.269,0.21172,0.21172,0,0,0
721,0.93805,17.276,0.21293,0.21293,0,0,0
722,0.94197,17.288,0.21402,0.21402,0,0,0
723,0.946,17.291,0.21492,0.21492,0,0,0
724,0.95066,17.299,0.21677,0.21677,0,0,0
725,0.95501,17.306,0.21816,0.21816,0,0,0
726,0.95853,17.313,0.21941,0.21941,0,0,0
727,0.96242,17.322,0.22109,0.22109,0,0,0
728,0.96627,17.329,0.2219,0.2219,0,0,0
729,0.97002,17.337,0.22325,0.22325,0,0,0
730,0.97462,17.346,0.22482,0.22482,0,0,0
731,0.97911,17.353,0.22563,0.22563,0,0,0
732,0.98316,17.36,0.22668,0.22668,0,0,0
733,0.98735,17.369,0.22813,0.22813,0,0,0
734,0.99128,17.376,0.22972,0.22972,0,0,0
735,0.99543,17.386,0.23112,0.23112,0,0,0
736,1.0001,17.393,0.23235,0.23235,0,0,0
737,1.0048,17.4,0.23379,0.23379,0,0,0
738,1.0093,17.407,0.23556,0.23556,0,0,0
739,1.0133,17.413,0.23684,0.23684,0,0,0
740,1.0176,17.42,0.2382,0.2382,0,0,0
741,1.0217,17.426,0.2391,0.2391,0,0,0
742,1.0263,17.433,0.24059,0.24059,0,0,0
743,1.0311,17.441,0.24192,0.24192,0,0,0
744,1.0361,17.446,0.24375,0.24375,0,0,0
745,1.0401,17.454,0.24507,0.24507,0,0,0
746,1.0443,17.464,0.2465,0.2465,0,0,0
747,1.0488,17.47,0.24785,0.24785,0,0,0
748,1.0536,17.473,0.24961,0.24961,0,0,0
749,1.0588,17.48,0.25085,0.25085,0,0,0
750,1.0634,17.487,0.25217,0.25217,0,0,0
751,1.0674,17.494,0.25419,0.25419,0,0,0
752,1.0713,17.499,0.2557,0.2557,0,0,0
753,1.0756,17.504,0.25667,0.25667,0,0,0
754,1.0815,17.514,0.25793,0.25793,0,0,0
755,1.0864,17.519,0.25947,0.25947,0,0,0
756,1.0907,17.522,0.26106,0.26106,0,0,0
757,1.0958,17.528,0.26267,0.26267,0,0,0
758,1.0991,17.532,0.26399,0.26399,0,0,0
759,1.1044,17.535,0.26524,0.26524,0,0,0
760,1.1095,17.539,0.26716,0.26716,0,0,0
761,1.115,17.543,0.26832,0.26832,0,0,0
762,1.1195,17.547,0.27026,0.27026,0,0,0
763,1.1244,17.552,0.27235,0.27235,0,0,0
764,1.129,17.555,0.27466,0.27466,0,0,0
765,1.1339,17.557,0.2771,0.2771,0,0,0
766,1.1393,17.559,0.27935,0.27935,0,0,0
767,1.1448,17.56,0.28106,0.28106,0,0,0
768,1.1504,17.562,0.28241,0.28241,0,0,0
769,1.1557,17.553,0.28437,0.28437,0,0,0
770,1.1618,17.542,0.28732,0.28732,0,0,0
771,1.1684,17.525,0.28972,0.28972,0,0,0
771.5,1.1731,17.506,0.2923,0.2923,0,0,0