File: polyN_optimization/results_exp/DP780/NT6_90_1.csv
Time[s],Displacement[mm],Force[kN],AxStrain_1,AxStrain_2,Thickness[mm],OuterWidth[mm],InnerWidth[mm]
0,0,-0.040258,0,0,1.4962,19.992,10.049
0.5,-1.2e-05,-0.0069287,5.4998e-05,0,0,0,0
1,6e-05,0.026945,0.00017698,0,0,0,0
1.5,0.000495,0.065804,0.00011299,0,0,0,0
2,0.000267,0.098022,-3e-05,0,0,0,0
2.5,0.000374,0.12789,5.3999e-05,0,0,0,0
3,0.00031,0.15272,2.4e-05,0,0,0,0
3.5,0.000623,0.17494,-5.0001e-05,0,0,0,0
4,0.000547,0.19695,0.00017898,0,0,0,0
4.5,0.00062,0.22007,0.00021298,0,0,0,0
5,0.000786,0.24386,1.7e-05,0,0,0,0
5.5,0.000525,0.26641,0.00011299,0,0,0,0
6,0.000721,0.28842,6e-06,0,0,0,0
6.5,0.000742,0.30914,7.1997e-05,0,0,0,0
7,0.001081,0.33079,8.0997e-05,0,0,0,0
7.5,0.001114,0.35267,1.3e-05,0,0,0,0
8,0.000988,0.37454,0.00029296,0,0,0,0
8.5,0.000274,0.39616,-7.4003e-05,0,0,0,0
9,0.00118,0.41734,-0.00016801,0,0,0,0
9.5,0.001036,0.43889,-8.6004e-05,0,0,0,0
10,0.001487,0.46018,9.9995e-05,0,0,0,0
10.5,0.001187,0.4808,0.00020498,0,0,0,0
11,0.00131,0.5004,4.6999e-05,0,0,0,0
11.5,0.001486,0.52104,-0.00014401,0,0,0,0
12,0.00133,0.54075,9.7995e-05,0,0,0,0
12.5,0.001214,0.55875,0.0004499,0,0,0,0
13,0.001021,0.57753,1e-05,0,0,0,0
13.5,0.001038,0.59918,0.00021298,0,0,0,0
14,0.00145,0.62025,5.7998e-05,0,0,0,0
14.5,0.001562,0.64053,0.00021998,0,0,0,0
15,0.001585,0.6623,-5.7002e-05,0,0,0,0
15.5,0.001852,0.68351,0.00012899,0,0,0,0
16,0.001849,0.70277,-0.00012501,0,0,0,0
16.5,0.001606,0.72305,3e-06,0,0,0,0
17,0.001629,0.74411,1.4e-05,0,0,0,0
17.5,0.00194,0.76395,3e-06,0,0,0,0
18,0.001961,0.78284,-0.00021302,0,0,0,0
18.5,0.001974,0.80312,-3.4001e-05,0,0,0,0
19,0.002262,0.8226,7e-06,0,0,0,0
19.5,0.002089,0.84322,-3.4001e-05,0,0,0,0
20,0.002279,0.86256,9.0996e-05,0,0,0,0
20.5,0.002339,0.88287,0.00018298,0,0,0,0
21,0.002607,0.90301,-0.00031805,0,0,0,0
21.5,0.002576,0.92294,-3.4001e-05,0,0,0,0
22,0.002667,0.94163,-3e-05,0,0,0,0
22.5,0.002809,0.96021,-0.00013201,0,0,0,0
23,0.002847,0.97936,6.0998e-05,0,0,0,0
23.5,0.003141,0.99825,-8.1003e-05,0,0,0,0
24,0.003046,1.018,-7.8003e-05,0,0,0,0
24.5,0.00328,1.0394,8.7996e-05,0,0,0,0
25,0.003084,1.0596,-6.1002e-05,0,0,0,0
25.5,0.002874,1.0771,6.3998e-05,0,0,0,0
26,0.003273,1.0922,-4.4001e-05,0,0,0,0
26.5,0.003287,1.1102,3.3999e-05,0,0,0,0
27,0.003256,1.1279,0.00011799,0,0,0,0
27.5,0.003195,1.1466,3e-06,0,0,0,0
28,0.003084,1.164,-0.00010801,0,0,0,0
28.5,0.003311,1.1825,-5.7002e-05,0,0,0,0
29,0.003415,1.1999,2.4e-05,0,0,0,0
29.5,0.003314,1.2177,0.00010099,0,0,0,0
30,0.003547,1.2352,0.00012799,0,0,0,0
30.5,0.003666,1.2529,-0.00019902,0,0,0,0
31,0.003629,1.2699,-1.7e-05,0,0,0,0
31.5,0.003707,1.2873,-8.1003e-05,0,0,0,0
32,0.004163,1.3059,-0.00019902,0,0,0,0
32.5,0.004048,1.3236,1e-05,0,0,0,0
33,0.004275,1.3408,0.00020598,0,0,0,0
33.5,0.004545,1.3583,0,0,0,0,0
34,0.004505,1.3762,-0.00013501,0,0,0,0
34.5,0.004529,1.3936,0.00026696,0,0,0,0
35,0.004512,1.4098,0.00012199,0,0,0,0
35.5,0.004553,1.4263,9.0996e-05,0,0,0,0
36,0.004556,1.443,0.00021698,0,0,0,0
36.5,0.004523,1.46,0.00015599,0,0,0,0
37,0.004868,1.4756,5.3999e-05,0,0,0,0
37.5,0.004371,1.4936,0.00022697,0,0,0,0
38,0.004435,1.5124,8.4996e-05,0,0,0,0
38.5,0.004523,1.5302,8.4996e-05,0,0,0,0
39,0.004926,1.5457,7.4997e-05,0,0,0,0
39.5,0.004831,1.5603,-9.1004e-05,0,0,0,0
40,0.004963,1.5755,9.0996e-05,0,0,0,0
40.5,0.004997,1.5908,6.3998e-05,0,0,0,0
41,0.005031,1.6079,0.00011799,0,0,0,0
41.5,0.004957,1.6241,4.0999e-05,0,0,0,0
42,0.005116,1.641,-3.7001e-05,0,0,0,0
42.5,0.00514,1.657,0.00013899,0,0,0,0
43,0.00579,1.674,2.4e-05,0,0,0,0
43.5,0.005796,1.6895,0.00015599,0,0,0,0
44,0.006158,1.7052,0.00020598,0,0,0,0
44.5,0.00627,1.721,0.00012499,0,0,0,0
45,0.006341,1.7364,0.00036193,0,0,0,0
45.5,0.006619,1.7517,0.00020298,0,0,0,0
46,0.006322,1.7665,0.00027396,0,0,0,0
46.5,0.006258,1.7825,0.00023397,0,0,0,0
47,0.00592,1.7986,0.00018598,0,0,0,0
47.5,0.006238,1.8153,0.00018998,0,0,0,0
48,0.006161,1.8316,0.00026696,0,0,0,0
48.5,0.006164,1.847,0.00019998,0,0,0,0
49,0.00607,1.8618,0.00018298,0,0,0,0
49.5,0.006135,1.8775,0.00015199,0,0,0,0
50,0.006449,1.8957,0.0004429,0,0,0,0
50.5,0.006331,1.9116,0.00042991,0,0,0,0
51,0.006294,1.927,0.00010899,0,0,0,0
51.5,0.006565,1.9425,0.00031095,0,0,0,0
52,0.007059,1.9585,0.00029496,0,0,0,0
52.5,0.007063,1.9731,0.00039292,0,0,0,0
53,0.007374,1.987,-1.3e-05,0,0,0,0
53.5,0.007587,2.0025,0.00029796,0,0,0,0
54,0.007726,2.0185,0.00018298,0,0,0,0
54.5,0.007784,2.0338,0.00042591,0,0,0,0
55,0.008119,2.049,0.00034194,0,0,0,0
55.5,0.007832,2.0648,0.00017299,0,0,0,0
56,0.00811,2.0794,0.00033194,0,0,0,0
56.5,0.00811,2.093,0.00031195,0,0,0,0
57,0.00804,2.108,0.00019298,0,0,0,0
57.5,0.00782,2.123,0.00023097,0,0,0,0
58,0.007787,2.138,0.00048388,0,0,0,0
58.5,0.007794,2.1529,0.00033494,0,0,0,0
59,0.007849,2.1688,0.00040992,0,0,0,0
59.5,0.007816,2.184,0.00042591,0,0,0,0
60,0.007657,2.1991,0.00036193,0,0,0,0
60.5,0.00763,2.2137,0.00017299,0,0,0,0
61,0.007999,2.2288,0.00028796,0,0,0,0
61.5,0.008135,2.2436,0.00017598,0,0,0,0
62,0.008332,2.2571,0.00033194,0,0,0,0
62.5,0.008444,2.2713,0.00037593,0,0,0,0
63,0.008451,2.2872,-2.6e-05,0,0,0,0
63.5,0.009134,2.305,0.00017998,0,0,0,0
64,0.009233,2.3203,0.00021698,0,0,0,0
64.5,0.009213,2.3359,0.00021698,0,0,0,0
65,0.009444,2.35,0.00010199,0,0,0,0
65.5,0.009586,2.3649,0.00033194,0,0,0,0
66,0.010087,2.3793,0.00066978,0,0,0,0
66.5,0.010297,2.3943,8.1997e-05,0,0,0,0
67,0.009861,2.4093,0.00047389,0,0,0,0
67.5,0.009788,2.4235,0.00051787,0,0,0,0
68,0.009829,2.4385,0.00033594,0,0,0,0
68.5,0.009501,2.452,0.00029496,0,0,0,0
69,0.009479,2.4665,0.00030895,0,0,0,0
69.5,0.00973,2.4808,0.00022397,0,0,0,0
70,0.009736,2.4963,0.00031195,0,0,0,0
70.5,0.009312,2.5099,0.00027496,0,0,0,0
71,0.009373,2.523,0.00038293,0,0,0,0
71.5,0.009854,2.5373,0.00040292,0,0,0,0
72,0.009895,2.5525,0.00021098,0,0,0,0
72.5,0.009953,2.5686,0.00015599,0,0,0,0
73,0.0102,2.5865,0.00030495,0,0,0,0
73.5,0.010542,2.6016,0.00024397,0,0,0,0
74,0.010607,2.6134,0.00015299,0,0,0,0
74.5,0.010709,2.6243,0.00036993,0,0,0,0
75,0.011231,2.6379,0.00038293,0,0,0,0
75.5,0.011596,2.6512,0.00039692,0,0,0,0
76,0.011904,2.6667,0.00036593,0,0,0,0
76.5,0.011801,2.681,0.00025097,0,0,0,0
77,0.011619,2.6948,0.00023097,0,0,0,0
77.5,0.011893,2.7084,0.00023797,0,0,0,0
78,0.011998,2.7235,0.00027496,0,0,0,0
78.5,0.01181,2.7359,0.00032895,0,0,0,0
79,0.011767,2.7482,0.00020398,0,0,0,0
79.5,0.011379,2.7611,0.00039992,0,0,0,0
80,0.011457,2.7756,0.00030895,0,0,0,0
80.5,0.011256,2.7909,0.00042691,0,0,0,0
81,0.011179,2.806,0.00027896,0,0,0,0
81.5,0.011132,2.8204,0.00035894,0,0,0,0
82,0.01118,2.8335,0.00046089,0,0,0,0
82.5,0.011076,2.8475,0.00032295,0,0,0,0
83,0.011145,2.8616,0.00023397,0,0,0,0
83.5,0.011493,2.8754,0.00046089,0,0,0,0
84,0.011778,2.8894,0.00027896,0,0,0,0
84.5,0.012157,2.9029,0.00031895,0,0,0,0
85,0.012242,2.9173,0.00056184,0,0,0,0
85.5,0.012686,2.9309,0.00040992,0,0,0,0
86,0.012727,2.9461,0.00037293,0,0,0,0
86.5,0.013117,2.9601,0.00032295,0,0,0,0
87,0.013365,2.9745,0.00055185,0,0,0,0
87.5,0.013804,2.9874,0.00049188,0,0,0,0
88,0.013677,3.0014,0.00039992,0,0,0,0
88.5,0.013475,3.0151,0.00025797,0,0,0,0
89,0.013554,3.0293,0.00064679,0,0,0,0
89.5,0.013622,3.0434,0.00050587,0,0,0,0
90,0.013332,3.0574,0.00047489,0,0,0,0
90.5,0.013012,3.0713,0.00050587,0,0,0,0
91,0.013124,3.0848,0.00049488,0,0,0,0
91.5,0.01305,3.0977,0.00040392,0,0,0,0
92,0.013174,3.1115,0.00032995,0,0,0,0
92.5,0.012751,3.1272,0.00034694,0,0,0,0
93,0.013101,3.1421,0.00041691,0,0,0,0
93.5,0.013047,3.1545,0.0004539,0,0,0,0
94,0.013244,3.1669,0.00039092,0,0,0,0
94.5,0.01309,3.1806,0.00047789,0,0,0,0
95,0.013591,3.1951,0.00037393,0,0,0,0
95.5,0.01352,3.2079,0.00024797,0,0,0,0
96,0.014123,3.2211,0.00047789,0,0,0,0
96.5,0.01435,3.2354,0.00042791,0,0,0,0
97,0.014432,3.2507,0.00051587,0,0,0,0
97.5,0.014933,3.2641,0.00047789,0,0,0,0
98,0.014975,3.2771,0.00051287,0,0,0,0
98.5,0.015415,3.2908,0.00035994,0,0,0,0
99,0.015355,3.3044,0.0007757,0,0,0,0
99.5,0.015511,3.3177,0.00061381,0,0,0,0
100,0.015482,3.3313,0.0006338,0,0,0,0
100.5,0.015497,3.3467,0.0006378,0,0,0,0
101,0.015588,3.3602,0.00051587,0,0,0,0
101.5,0.01515,3.3732,0.0004579,0,0,0,0
102,0.01529,3.3865,0.00050587,0,0,0,0
102.5,0.015223,3.4008,0.00060082,0,0,0,0
103,0.014923,3.4137,0.00058083,0,0,0,0
103.5,0.015009,3.4282,0.00053586,0,0,0,0
104,0.014787,3.4432,0.00056384,0,0,0,0
104.5,0.014825,3.4579,0.00064379,0,0,0,0
105,0.015093,3.4711,0.00046589,0,0,0,0
105.5,0.015033,3.4839,0.00046189,0,0,0,0
106,0.015149,3.4966,0.00047189,0,0,0,0
106.5,0.015565,3.5095,0.00045889,0,0,0,0
107,0.01607,3.5225,0.00042791,0,0,0,0
107.5,0.016152,3.537,0.00069476,0,0,0,0
108,0.016663,3.5518,0.00070175,0,0,0,0
108.5,0.017171,3.5657,0.00069876,0,0,0,0
109,0.017409,3.5795,0.00067577,0,0,0,0
109.5,0.017359,3.5938,0.00045889,0,0,0,0
110,0.017624,3.6068,0.0007767,0,0,0,0
110.5,0.017578,3.6198,0.00060082,0,0,0,0
111,0.017738,3.6331,0.00040892,0,0,0,0
111.5,0.017343,3.6454,0.00061181,0,0,0,0
112,0.017719,3.6559,0.00050987,0,0,0,0
112.5,0.017555,3.6683,0.00057683,0,0,0,0
113,0.017408,3.6829,0.00071275,0,0,0,0
113.5,0.017138,3.6969,0.00054385,0,0,0,0
114,0.017376,3.7106,0.00064479,0,0,0,0
114.5,0.017005,3.7248,0.00057783,0,0,0,0
115,0.016871,3.7393,0.00064479,0,0,0,0
115.5,0.017177,3.7517,0.0004419,0,0,0,0
116,0.017008,3.7653,0.00050987,0,0,0,0
116.5,0.017416,3.7782,0.00071275,0,0,0,0
117,0.017349,3.7907,0.00057783,0,0,0,0
117.5,0.017586,3.8037,0.00074572,0,0,0,0
118,0.017892,3.8168,0.00050987,0,0,0,0
118.5,0.018095,3.83,0.00064479,0,0,0,0
119,0.018638,3.8432,0.00057783,0,0,0,0
119.5,0.018706,3.8572,0.00054385,0,0,0,0
120,0.01918,3.8694,0.00047689,0,0,0,0
120.5,0.019385,3.8816,0.00067977,0,0,0,0
121,0.019589,3.8942,0.00064579,0,0,0,0
121.5,0.019557,3.9094,0.00047689,0,0,0,0
122,0.019862,3.9244,0.0007807,0,0,0,0
122.5,0.01966,3.9371,0.00081467,0,0,0,0
123,0.019629,3.9485,0.00081467,0,0,0,0
123.5,0.019494,3.9609,0.00061181,0,0,0,0
124,0.019428,3.9745,0.00074672,0,0,0,0
124.5,0.01953,3.9868,0.00081467,0,0,0,0
125,0.019125,3.9992,0.00074772,0,0,0,0
125.5,0.018993,4.0116,0.00071375,0,0,0,0
126,0.018858,4.0248,0.00064579,0,0,0,0
126.5,0.018758,4.037,0.00064579,0,0,0,0
127,0.018894,4.0508,0.0007807,0,0,0,0
127.5,0.018997,4.0662,0.00071375,0,0,0,0
128,0.019134,4.0807,0.00088261,0,0,0,0
128.5,0.019338,4.093,0.00067977,0,0,0,0
129,0.019474,4.1034,0.00071474,0,0,0,0
129.5,0.019746,4.1143,0.00088261,0,0,0,0
130,0.019916,4.1276,0.00064579,0,0,0,0
130.5,0.020392,4.143,0.00067977,0,0,0,0
131,0.02073,4.1577,0.00067977,0,0,0,0
131.5,0.021138,4.1704,0.00071375,0,0,0,0
132,0.021274,4.1825,0.00081567,0,0,0,0
132.5,0.021613,4.1946,0.00098452,0,0,0,0
133,0.02175,4.2072,0.00071375,0,0,0,0
133.5,0.021481,4.2188,0.00095055,0,0,0,0
134,0.021719,4.2307,0.00081567,0,0,0,0
134.5,0.021721,4.2438,0.0010854,0,0,0,0
135,0.022027,4.2576,0.00081567,0,0,0,0
135.5,0.021959,4.2714,0.0010185,0,0,0,0
136,0.021083,4.2839,0.00081567,0,0,0,0
136.5,0.021422,4.2964,0.00088361,0,0,0,0
137,0.02102,4.3103,0.00078169,0,0,0,0
137.5,0.021153,4.3257,0.00057983,0,0,0,0
138,0.021192,4.3392,0.00081567,0,0,0,0
138.5,0.021091,4.3511,0.00057883,0,0,0,0
139,0.021194,4.3628,0.00081667,0,0,0,0
139.5,0.020927,4.3762,0.00081567,0,0,0,0
140,0.021434,4.3898,0.00078269,0,0,0,0
140.5,0.021199,4.4035,0.00091658,0,0,0,0
141,0.021538,4.4163,0.00091758,0,0,0,0
141.5,0.022283,4.428,0.00084964,0,0,0,0
142,0.022217,4.4398,0.00081567,0,0,0,0
142.5,0.022318,4.4519,0.00088361,0,0,0,0
143,0.02249,4.4649,0.00081667,0,0,0,0
143.5,0.02283,4.4775,0.00081667,0,0,0,0
144,0.023508,4.4908,0.00095255,0,0,0,0
144.5,0.023847,4.5039,0.00098551,0,0,0,0
145,0.023985,4.517,0.00098551,0,0,0,0
145.5,0.02446,4.5307,0.0010544,0,0,0,0
146,0.023585,4.5442,0.0010874,0,0,0,0
146.5,0.023855,4.5572,0.00095255,0,0,0,0
147,0.023688,4.5688,0.0010195,0,0,0,0
147.5,0.023723,4.5806,0.0010534,0,0,0,0
148,0.023996,4.5919,0.00085064,0,0,0,0
148.5,0.023759,4.6047,0.00095155,0,0,0,0
149,0.02366,4.618,0.00088461,0,0,0,0
149.5,0.023595,4.6301,0.00091858,0,0,0,0
150,0.023359,4.6425,0.00088461,0,0,0,0
150.5,0.023395,4.6563,0.00085064,0,0,0,0
151,0.02343,4.6702,0.00064779,0,0,0,0
151.5,0.023871,4.6825,0.00085064,0,0,0,0
152,0.024211,4.6936,0.0010205,0,0,0,0
152.5,0.024279,4.7048,0.00074972,0,0,0,0
153,0.024653,4.7172,0.00085164,0,0,0,0
153.5,0.02489,4.7315,0.00078369,0,0,0,0
154,0.025299,4.746,0.00081767,0,0,0,0
154.5,0.025638,4.7596,0.00085064,0,0,0,0
155,0.025741,4.7719,0.00081767,0,0,0,0
155.5,0.025946,4.7845,0.00098651,0,0,0,0
156,0.025812,4.796,0.00068277,0,0,0,0
156.5,0.025949,4.8079,0.0010205,0,0,0,0
157,0.026188,4.8207,0.0010874,0,0,0,0
157.5,0.026189,4.8339,0.0010554,0,0,0,0
158,0.026124,4.8463,0.00085164,0,0,0,0
158.5,0.026193,4.8595,0.0010205,0,0,0,0
159,0.025923,4.8727,0.0010205,0,0,0,0
159.5,0.025993,4.8855,0.00091958,0,0,0,0
160,0.026062,4.8983,0.00081866,0,0,0,0
160.5,0.026166,4.9108,0.00098651,0,0,0,0
161,0.0261,4.923,0.00085164,0,0,0,0
161.5,0.026102,4.9352,0.0010554,0,0,0,0
162,0.026103,4.9472,0.00095355,0,0,0,0
162.5,0.026307,4.9605,0.00088561,0,0,0,0
163,0.026342,4.9733,0.00088561,0,0,0,0
163.5,0.026446,4.9867,0.00071674,0,0,0,0
164,0.026582,4.9988,0.00085264,0,0,0,0
164.5,0.02699,5.0117,0.00078469,0,0,0,0
165,0.027059,5.0242,0.00075172,0,0,0,0
165.5,0.027264,5.0361,0.00092058,0,0,0,0
166,0.027638,5.0476,0.00081966,0,0,0,0
166.5,0.027807,5.0589,0.00095554,0,0,0,0
167,0.027877,5.0716,0.00088661,0,0,0,0
167.5,0.028148,5.0833,0.0011573,0,0,0,0
168,0.028692,5.097,0.00088661,0,0,0,0
168.5,0.028423,5.1095,0.00095554,0,0,0,0
169,0.02829,5.1232,0.00078669,0,0,0,0
169.5,0.028663,5.1355,0.00098951,0,0,0,0
170,0.028698,5.1476,0.00098851,0,0,0,0
170.5,0.028836,5.1604,0.0010574,0,0,0,0
171,0.028667,5.1735,0.00098851,0,0,0,0
171.5,0.028568,5.1861,0.00092158,0,0,0,0
172,0.028402,5.1977,0.00082066,0,0,0,0
172.5,0.028775,5.2116,0.0010574,0,0,0,0
173,0.02881,5.2247,0.00068477,0,0,0,0
173.5,0.029048,5.2373,0.00098951,0,0,0,0
174,0.028408,5.2495,0.0011923,0,0,0,0
174.5,0.028748,5.2626,0.00085364,0,0,0,0
175,0.029088,5.2758,0.00085364,0,0,0,0
175.5,0.029021,5.2883,0.00082166,0,0,0,0
176,0.029633,5.3003,0.00078669,0,0,0,0
176.5,0.029768,5.3122,0.00095554,0,0,0,0
177,0.02977,5.3257,0.00095554,0,0,0,0
177.5,0.030042,5.3406,0.0010914,0,0,0,0
178,0.030111,5.3557,0.00078769,0,0,0,0
178.5,0.030519,5.3688,0.00098951,0,0,0,0
179,0.030622,5.3807,0.0010914,0,0,0,0
179.5,0.03076,5.3934,0.0010584,0,0,0,0
180,0.030795,5.4057,0.0012602,0,0,0,0
180.5,0.031066,5.4191,0.0011264,0,0,0,0
181,0.031169,5.432,0.0010914,0,0,0,0
181.5,0.031273,5.4448,0.0010914,0,0,0,0
182,0.031309,5.4577,0.0011264,0,0,0,0
182.5,0.03148,5.4714,0.0010584,0,0,0,0
183,0.031516,5.4835,0.00099051,0,0,0,0
183.5,0.031518,5.4948,0.0010924,0,0,0,0
184,0.031384,5.5079,0.0010594,0,0,0,0
184.5,0.03159,5.5222,0.0012942,0,0,0,0
185,0.031895,5.5354,0.0011593,0,0,0,0
185.5,0.032134,5.546,0.00095754,0,0,0,0
186,0.032101,5.5581,0.0011264,0,0,0,0
186.5,0.032104,5.5725,0.0011603,0,0,0,0
187,0.032477,5.5872,0.00095754,0,0,0,0
187.5,0.032478,5.5995,0.0011274,0,0,0,0
188,0.032785,5.6102,0.00099151,0,0,0,0
188.5,0.032921,5.6217,0.0011264,0,0,0,0
189,0.033059,5.6349,0.00092457,0,0,0,0
189.5,0.033333,5.6486,0.0011943,0,0,0,0
190,0.0333,5.6603,0.00092557,0,0,0,0
190.5,0.03337,5.6731,0.0011613,0,0,0,0
191,0.03371,5.6857,0.0012272,0,0,0,0
191.5,0.033611,5.6987,0.0012962,0,0,0,0
192,0.033849,5.7106,0.001397,0,0,0,0
192.5,0.033886,5.7234,0.0013631,0,0,0,0
193,0.034191,5.7361,0.0011274,0,0,0,0
193.5,0.034431,5.75,0.001397,0,0,0,0
194,0.034398,5.7628,0.0012962,0,0,0,0
194.5,0.034569,5.7752,0.0011264,0,0,0,0
195,0.034741,5.7879,0.0012952,0,0,0,0
195.5,0.034842,5.8017,0.0011603,0,0,0,0
196,0.035049,5.8143,0.0011603,0,0,0,0
196.5,0.035288,5.8264,0.0013301,0,0,0,0
197,0.035256,5.8382,0.0012622,0,0,0,0
197.5,0.035291,5.8505,0.0010594,0,0,0,0
198,0.035836,5.8638,0.0011593,0,0,0,0
198.5,0.035837,5.877,0.0011603,0,0,0,0
199,0.035738,5.8886,0.0012282,0,0,0,0
199.5,0.036078,5.9001,0.0013291,0,0,0,0
200,0.036419,5.9131,0.0013301,0,0,0,0
200.5,0.036218,5.9259,0.0011943,0,0,0,0
201,0.036286,5.9385,0.0012962,0,0,0,0
201.5,0.036559,5.9515,0.0014639,0,0,0,0
202,0.036799,5.9646,0.0014989,0,0,0,0
202.5,0.036768,5.9762,0.0014979,0,0,0,0
203,0.037075,5.9891,0.0016676,0,0,0,0
203.5,0.037178,6.0022,0.0015648,0,0,0,0
204,0.037416,6.015,0.0015987,0,0,0,0
204.5,0.037317,6.0266,0.0016317,0,0,0,0
205,0.037624,6.0391,0.0015987,0,0,0,0
205.5,0.038064,6.0512,0.0015318,0,0,0,0
206,0.038472,6.0645,0.0015318,0,0,0,0
206.5,0.038339,6.0784,0.0015658,0,0,0,0
207,0.038646,6.0918,0.0015318,0,0,0,0
207.5,0.038783,6.1049,0.0013631,0,0,0,0
208,0.038954,6.1169,0.0014989,0,0,0,0
208.5,0.039227,6.1282,0.0016666,0,0,0,0
209,0.039668,6.1392,0.0012612,0,0,0,0
209.5,0.039839,6.1527,0.0014639,0,0,0,0
210,0.039841,6.1667,0.0015648,0,0,0,0
210.5,0.03981,6.1797,0.0016327,0,0,0,0
211,0.040081,6.192,0.0015648,0,0,0,0
211.5,0.040049,6.2041,0.0014979,0,0,0,0
212,0.039917,6.2181,0.0014639,0,0,0,0
212.5,0.039985,6.2321,0.0015997,0,0,0,0
213,0.040259,6.2459,0.0017006,0,0,0,0
213.5,0.040362,6.258,0.0016666,0,0,0,0
214,0.040398,6.2703,0.0017345,0,0,0,0
214.5,0.040434,6.2826,0.0017355,0,0,0,0
215,0.040672,6.2941,0.0019711,0,0,0,0
215.5,0.040876,6.3065,0.0019711,0,0,0,0
216,0.04098,6.3196,0.0019711,0,0,0,0
216.5,0.041252,6.3341,0.0019711,0,0,0,0
217,0.041524,6.3482,0.0018363,0,0,0,0
217.5,0.041763,6.3615,0.0018702,0,0,0,0
218,0.042002,6.3753,0.0018363,0,0,0,0
218.5,0.042544,6.3887,0.0016676,0,0,0,0
219,0.042883,6.4001,0.0016337,0,0,0,0
219.5,0.042886,6.411,0.0016337,0,0,0,0
220,0.043157,6.425,0.0017355,0,0,0,0
220.5,0.043665,6.4406,0.0016357,0,0,0,0
221,0.043769,6.4544,0.0016017,0,0,0,0
221.5,0.043907,6.4663,0.0018363,0,0,0,0
222,0.04428,6.4784,0.0018712,0,0,0,0
222.5,0.044249,6.4915,0.0016706,0,0,0,0
223,0.044149,6.5053,0.0014999,0,0,0,0
223.5,0.044219,6.5175,0.0016686,0,0,0,0
224,0.044322,6.53,0.0016696,0,0,0,0
224.5,0.044189,6.5427,0.0017035,0,0,0,0
225,0.044495,6.5563,0.0017025,0,0,0,0
225.5,0.044531,6.5686,0.002008,0,0,0,0
226,0.044601,6.581,0.0021098,0,0,0,0
226.5,0.044806,6.5939,0.0021098,0,0,0,0
227,0.044875,6.6071,0.001976,0,0,0,0
227.5,0.04528,6.6203,0.001976,0,0,0,0
228,0.04596,6.633,0.0021776,0,0,0,0
228.5,0.04593,6.6454,0.0018064,0,0,0,0
229,0.046099,6.6579,0.0018084,0,0,0,0
229.5,0.046642,6.6711,0.0019411,0,0,0,0
230,0.046678,6.6836,0.0019421,0,0,0,0
230.5,0.047526,6.6959,0.0018752,0,0,0,0
231,0.0479,6.7105,0.0018413,0,0,0,0
231.5,0.048308,6.7249,0.0018742,0,0,0,0
232,0.04848,6.7392,0.0018413,0,0,0,0
232.5,0.048989,6.7518,0.0018074,0,0,0,0
233,0.048959,6.7648,0.0018732,0,0,0,0
233.5,0.049095,6.7766,0.00201,0,0,0,0
234,0.048927,6.7896,0.002009,0,0,0,0
234.5,0.049201,6.803,0.0019102,0,0,0,0
235,0.049136,6.817,0.00201,0,0,0,0
235.5,0.04917,6.831,0.0017395,0,0,0,0
236,0.049344,6.8441,0.0018742,0,0,0,0
236.5,0.049109,6.8569,0.0021447,0,0,0,0
237,0.049415,6.8693,0.0022455,0,0,0,0
237.5,0.049385,6.8823,0.0022455,0,0,0,0
238,0.049689,6.896,0.0024121,0,0,0,0
238.5,0.049928,6.9098,0.0023472,0,0,0,0
239,0.050133,6.9217,0.0023462,0,0,0,0
239.5,0.050576,6.9334,0.0023462,0,0,0,0
240,0.051116,6.9469,0.0023123,0,0,0,0
240.5,0.051389,6.9605,0.0020768,0,0,0,0
241,0.052067,6.9737,0.0023472,0,0,0,0
241.5,0.052336,6.9879,0.0022435,0,0,0,0
242,0.052915,7.0014,0.0020738,0,0,0,0
242.5,0.053492,7.0143,0.0021427,0,0,0,0
243,0.053897,7.028,0.0022096,0,0,0,0
243.5,0.053901,7.0416,0.0021756,0,0,0,0
244,0.054578,7.0533,0.0020399,0,0,0,0
244.5,0.05421,7.0641,0.0021088,0,0,0,0
245,0.054513,7.0775,0.0023443,0,0,0,0
245.5,0.055022,7.093,0.0020738,0,0,0,0
246,0.054585,7.107,0.0020738,0,0,0,0
246.5,0.054823,7.1176,0.0022076,0,0,0,0
247,0.05486,7.1296,0.0024111,0,0,0,0
247.5,0.055064,7.1431,0.0023443,0,0,0,0
248,0.055065,7.1567,0.0025807,0,0,0,0
248.5,0.055337,7.1695,0.0027492,0,0,0,0
249,0.055406,7.1841,0.0025468,0,0,0,0
249.5,0.055611,7.1978,0.0026485,0,0,0,0
250,0.055847,7.2108,0.0028848,0,0,0,0
250.5,0.056254,7.2235,0.0025797,0,0,0,0
251,0.056562,7.2351,0.0027841,0,0,0,0
251.5,0.057002,7.2474,0.0026824,0,0,0,0
252,0.057342,7.2621,0.0027153,0,0,0,0
252.5,0.057949,7.2783,0.0026834,0,0,0,0
253,0.058525,7.2922,0.0026156,0,0,0,0
253.5,0.058833,7.304,0.0025807,0,0,0,0
254,0.059306,7.3162,0.0025487,0,0,0,0
254.5,0.059646,7.3308,0.0026166,0,0,0,0
255,0.06002,7.3444,0.0025478,0,0,0,0
255.5,0.060325,7.3553,0.0025158,0,0,0,0
256,0.06053,7.3675,0.0025487,0,0,0,0
256.5,0.060901,7.3815,0.0026834,0,0,0,0
257,0.061209,7.3965,0.0026495,0,0,0,0
257.5,0.061311,7.4101,0.0027861,0,0,0,0
258,0.061448,7.4235,0.002819,0,0,0,0
258.5,0.061723,7.4364,0.0026515,0,0,0,0
259,0.061756,7.4505,0.0030573,0,0,0,0
259.5,0.061793,7.463,0.0030573,0,0,0,0
260,0.061998,7.4748,0.0031241,0,0,0,0
260.5,0.062236,7.4873,0.0031241,0,0,0,0
261,0.062881,7.501,0.0031241,0,0,0,0
261.5,0.063086,7.515,0.003159,0,0,0,0
262,0.063188,7.5275,0.0030244,0,0,0,0
262.5,0.063899,7.5408,0.0032278,0,0,0,0
263,0.06414,7.5536,0.0032268,0,0,0,0
263.5,0.064446,7.5667,0.0030593,0,0,0,0
264,0.064717,7.5795,0.002824,0,0,0,0
264.5,0.065531,7.5924,0.0029915,0,0,0,0
265,0.065837,7.6045,0.0029586,0,0,0,0
265.5,0.066109,7.618,0.0028569,0,0,0,0
266,0.066281,7.6321,0.0030583,0,0,0,0
266.5,0.066689,7.6455,0.003161,0,0,0,0
267,0.066825,7.6596,0.0030244,0,0,0,0
267.5,0.067469,7.6726,0.0029915,0,0,0,0
268,0.067575,7.6852,0.0030922,0,0,0,0
268.5,0.068286,7.6982,0.0030254,0,0,0,0
269,0.068287,7.7115,0.0030912,0,0,0,0
269.5,0.068662,7.7243,0.0031251,0,0,0,0
270,0.068729,7.737,0.0033942,0,0,0,0
270.5,0.069406,7.7505,0.003461,0,0,0,0
271,0.069849,7.764,0.0033265,0,0,0,0
271.5,0.069851,7.7775,0.0036294,0,0,0,0
272,0.070428,7.79,0.0036623,0,0,0,0
272.5,0.071174,7.803,0.0036982,0,0,0,0
273,0.071106,7.8162,0.0034939,0,0,0,0
273.5,0.071852,7.8285,0.0037639,0,0,0,0
274,0.071888,7.8408,0.0035945,0,0,0,0
274.5,0.072395,7.8535,0.00373,0,0,0,0
275,0.072635,7.8669,0.0035278,0,0,0,0
275.5,0.073006,7.8797,0.0036284,0,0,0,0
276,0.073381,7.8935,0.0035935,0,0,0,0
276.5,0.073518,7.9075,0.0034939,0,0,0,0
277,0.073858,7.9207,0.0035945,0,0,0,0
277.5,0.074536,7.9332,0.0035268,0,0,0,0
278,0.074671,7.9469,0.0035268,0,0,0,0
278.5,0.07491,7.9597,0.00373,0,0,0,0
279,0.07518,7.9715,0.0035935,0,0,0,0
279.5,0.075894,7.9845,0.0035935,0,0,0,0
280,0.0762,7.9979,0.0034939,0,0,0,0
280.5,0.076775,8.0114,0.0039293,0,0,0,0
281,0.077317,8.0237,0.0036613,0,0,0,0
281.5,0.078063,8.0369,0.0038635,0,0,0,0
282,0.078875,8.0495,0.0040986,0,0,0,0
282.5,0.079047,8.0615,0.004233,0,0,0,0
283,0.079653,8.0741,0.0044361,0,0,0,0
283.5,0.080469,8.0872,0.0045367,0,0,0,0
284,0.08057,8.1006,0.0044361,0,0,0,0
284.5,0.080978,8.1125,0.004469,0,0,0,0
285,0.081555,8.1261,0.0045377,0,0,0,0
285.5,0.081691,8.1386,0.0043356,0,0,0,0
286,0.081996,8.1523,0.0040677,0,0,0,0
286.5,0.081863,8.1647,0.0040657,0,0,0,0
287,0.082203,8.1775,0.0041693,0,0,0,0
287.5,0.082644,8.1908,0.0043027,0,0,0,0
288,0.082612,8.2045,0.0038984,0,0,0,0
288.5,0.083323,8.2168,0.004235,0,0,0,0
289,0.083527,8.229,0.0043704,0,0,0,0
289.5,0.083968,8.2416,0.0041354,0,0,0,0
290,0.084375,8.2543,0.0042699,0,0,0,0
290.5,0.085086,8.2681,0.0041026,0,0,0,0
291,0.085594,8.2814,0.0041693,0,0,0,0
291.5,0.086406,8.2933,0.0045397,0,0,0,0
292,0.087152,8.3053,0.0046392,0,0,0,0
292.5,0.087694,8.3185,0.0049796,0,0,0,0
293,0.088439,8.3315,0.0047447,0,0,0,0
293.5,0.08888,8.3442,0.0050124,0,0,0,0
294,0.089628,8.3562,0.0051477,0,0,0,0
294.5,0.090202,8.3678,0.0052492,0,0,0,0
295,0.090544,8.3811,0.0052482,0,0,0,0
295.5,0.091119,8.3955,0.0051825,0,0,0,0
296,0.091526,8.4086,0.0052164,0,0,0,0
296.5,0.091865,8.4213,0.0051487,0,0,0,0
297,0.092139,8.4346,0.0050482,0,0,0,0
297.5,0.092615,8.4484,0.0052174,0,0,0,0
298,0.09275,8.4605,0.0049477,0,0,0,0
298.5,0.093227,8.4735,0.0049149,0,0,0,0
299,0.093396,8.4854,0.0047796,0,0,0,0
299.5,0.093702,8.497,0.0048134,0,0,0,0
300,0.094179,8.5069,0.0050472,0,0,0,0
300.5,0.094924,8.5205,0.0049796,0,0,0,0
301,0.095535,8.5338,0.0051149,0,0,0,0
301.5,0.09628,8.546,0.0049139,0,0,0,0
302,0.096652,8.5568,0.0049477,0,0,0,0
302.5,0.097398,8.569,0.0053168,0,0,0,0
303,0.098073,8.5825,0.0053845,0,0,0,0
303.5,0.098786,8.5961,0.0054849,0,0,0,0
304,0.099363,8.6099,0.005655,0,0,0,0
304.5,0.099938,8.6229,0.0058558,0,0,0,0
305,0.10038,8.635,0.0057534,0,0,0,0
305.5,0.10102,8.6466,0.0058538,0,0,0,0
306,0.10153,8.6589,0.0061222,0,0,0,0
306.5,0.10184,8.6725,0.0060546,0,0,0,0
307,0.10241,8.685,0.006156,0,0,0,0
307.5,0.10289,8.6969,0.0059542,0,0,0,0
308,0.10353,8.7084,0.0059185,0,0,0,0
308.5,0.10411,8.7205,0.0060208,0,0,0,0
309,0.10468,8.7329,0.005819,0,0,0,0
309.5,0.10567,8.746,0.0059194,0,0,0,0
310,0.10617,8.7585,0.0059194,0,0,0,0
310.5,0.10709,8.77,0.0057186,0,0,0,0
311,0.10746,8.7824,0.0057484,0,0,0,0
311.5,0.10804,8.7943,0.005818,0,0,0,0
312,0.10892,8.8063,0.0057504,0,0,0,0
312.5,0.10959,8.8182,0.005817,0,0,0,0
313,0.10986,8.8311,0.005986,0,0,0,0
313.5,0.11051,8.8419,0.006153,0,0,0,0
314,0.11115,8.8535,0.0061202,0,0,0,0
314.5,0.11132,8.8665,0.0065555,0,0,0,0
315,0.11187,8.8795,0.006622,0,0,0,0
315.5,0.1124,8.892,0.0067909,0,0,0,0
316,0.11288,8.9049,0.0068247,0,0,0,0
316.5,0.11349,8.9183,0.0071256,0,0,0,0
317,0.11396,8.93,0.0072596,0,0,0,0
317.5,0.11457,8.9412,0.0073956,0,0,0,0
318,0.11535,8.9532,0.0072606,0,0,0,0
318.5,0.1161,8.9641,0.0072606,0,0,0,0
319,0.11694,8.9738,0.0072596,0,0,0,0
319.5,0.11752,8.985,0.0069587,0,0,0,0
320,0.1187,9,0.0071265,0,0,0,0
320.5,0.11972,9.0138,0.0068912,0,0,0,0
321,0.12049,9.0259,0.0071593,0,0,0,0
321.5,0.12114,9.0357,0.0068584,0,0,0,0
322,0.12232,9.0464,0.0067581,0,0,0,0
322.5,0.12253,9.0565,0.0067571,0,0,0,0
323,0.12361,9.0683,0.006924,0,0,0,0
323.5,0.12408,9.0801,0.0070263,0,0,0,0
324,0.12479,9.092,0.0072933,0,0,0,0
324.5,0.12533,9.1039,0.0075623,0,0,0,0
325,0.12591,9.1166,0.0073618,0,0,0,0
325.5,0.12652,9.128,0.0075623,0,0,0,0
326,0.1272,9.1398,0.0079325,0,0,0,0
326.5,0.12764,9.1536,0.0079662,0,0,0,0
327,0.12808,9.1663,0.0080654,0,0,0,0
327.5,0.12869,9.1758,0.0082667,0,0,0,0
328,0.12933,9.1865,0.0087357,0,0,0,0
328.5,0.13018,9.1993,0.0083342,0,0,0,0
329,0.13102,9.2123,0.0085692,0,0,0,0
329.5,0.132,9.2243,0.0088041,0,0,0,0
330,0.13258,9.2368,0.008468,0,0,0,0
330.5,0.13366,9.2486,0.0086039,0,0,0,0
331,0.13407,9.261,0.0084026,0,0,0,0
331.5,0.13502,9.2732,0.0082667,0,0,0,0
332,0.13593,9.2848,0.0081338,0,0,0,0
332.5,0.13661,9.2948,0.0080664,0,0,0,0
333,0.13745,9.3043,0.008235,0,0,0,0
333.5,0.13816,9.3158,0.0082687,0,0,0,0
334,0.13904,9.328,0.008234,0,0,0,0
334.5,0.13958,9.3405,0.0084036,0,0,0,0
335,0.14046,9.3515,0.0085702,0,0,0,0
335.5,0.14131,9.3633,0.0086049,0,0,0,0
336,0.14215,9.3748,0.0089736,0,0,0,0
336.5,0.14297,9.3863,0.0091758,0,0,0,0
337,0.14381,9.3969,0.0092749,0,0,0,0
337.5,0.14449,9.4082,0.0093759,0,0,0,0
338,0.14581,9.4205,0.0096117,0,0,0,0
338.5,0.14699,9.4327,0.0098107,0,0,0,0
339,0.14764,9.4438,0.010145,0,0,0,0
339.5,0.14845,9.4541,0.010281,0,0,0,0
340,0.14912,9.4653,0.010314,0,0,0,0
340.5,0.14997,9.4775,0.010181,0,0,0,0
341,0.15048,9.4889,0.010314,0,0,0,0
341.5,0.15133,9.4991,0.010145,0,0,0,0
342,0.15163,9.5093,0.010014,0,0,0,0
342.5,0.15234,9.5205,0.009779,0,0,0,0
343,0.15295,9.5316,0.00978,0,0,0,0
343.5,0.15356,9.543,0.0097463,0,0,0,0
344,0.15424,9.5546,0.0097137,0,0,0,0
344.5,0.15508,9.5678,0.0096463,0,0,0,0
345,0.15607,9.58,0.00978,0,0,0,0
345.5,0.15674,9.5906,0.0098147,0,0,0,0
346,0.15782,9.6007,0.010117,0,0,0,0
346.5,0.15871,9.6118,0.009982,0,0,0,0
347,0.15982,9.6236,0.010217,0,0,0,0
347.5,0.16087,9.6342,0.010517,0,0,0,0
348,0.16185,9.6453,0.010652,0,0,0,0
348.5,0.16303,9.656,0.010952,0,0,0,0
349,0.16361,9.6673,0.011252,0,0,0,0
349.5,0.16469,9.6783,0.011386,0,0,0,0
350,0.16561,9.6898,0.01142,0,0,0,0
350.5,0.16662,9.7011,0.011621,0,0,0,0
351,0.1672,9.7119,0.011822,0,0,0,0
351.5,0.16814,9.722,0.011721,0,0,0,0
352,0.16892,9.7326,0.011755,0,0,0,0
352.5,0.1696,9.7444,0.011587,0,0,0,0
353,0.17051,9.756,0.01172,0,0,0,0
353.5,0.17143,9.7663,0.011487,0,0,0,0
354,0.17238,9.7764,0.011453,0,0,0,0
354.5,0.17343,9.7863,0.011253,0,0,0,0
355,0.1745,9.7967,0.011221,0,0,0,0
355.5,0.17542,9.8072,0.011354,0,0,0,0
356,0.17667,9.8189,0.011322,0,0,0,0
356.5,0.17762,9.8313,0.011387,0,0,0,0
357,0.1785,9.844,0.011452,0,0,0,0
357.5,0.17948,9.8545,0.011656,0,0,0,0
358,0.18006,9.8661,0.011955,0,0,0,0
358.5,0.18067,9.8775,0.012054,0,0,0,0
359,0.18158,9.8885,0.012555,0,0,0,0
359.5,0.18243,9.899,0.012489,0,0,0,0
360,0.18321,9.9103,0.012721,0,0,0,0
360.5,0.18412,9.9211,0.013322,0,0,0,0
361,0.18493,9.9316,0.013186,0,0,0,0
361.5,0.18602,9.9417,0.013386,0,0,0,0
362,0.18649,9.9515,0.013453,0,0,0,0
362.5,0.18767,9.9627,0.013486,0,0,0,0
363,0.18892,9.9741,0.013454,0,0,0,0
363.5,0.19014,9.9839,0.013422,0,0,0,0
364,0.19102,9.9942,0.013454,0,0,0,0
364.5,0.19261,10.005,0.013221,0,0,0,0
365,0.19372,10.015,0.012988,0,0,0,0
365.5,0.19501,10.025,0.01312,0,0,0,0
366,0.19606,10.037,0.012887,0,0,0,0
366.5,0.19704,10.048,0.013087,0,0,0,0
367,0.19819,10.058,0.013188,0,0,0,0
367.5,0.19883,10.068,0.013189,0,0,0,0
368,0.19992,10.079,0.013454,0,0,0,0
368.5,0.2008,10.089,0.01372,0,0,0,0
369,0.20164,10.1,0.013755,0,0,0,0
369.5,0.20279,10.111,0.014187,0,0,0,0
370,0.2035,10.122,0.014286,0,0,0,0
370.5,0.20479,10.133,0.014585,0,0,0,0
371,0.20604,10.143,0.014685,0,0,0,0
371.5,0.20695,10.154,0.015185,0,0,0,0
372,0.2083,10.165,0.015284,0,0,0,0
372.5,0.20956,10.176,0.015183,0,0,0,0
373,0.21047,10.185,0.015385,0,0,0,0
373.5,0.21176,10.194,0.015384,0,0,0,0
374,0.21257,10.206,0.015285,0,0,0,0
374.5,0.21341,10.216,0.015317,0,0,0,0
375,0.21453,10.226,0.015317,0,0,0,0
375.5,0.21541,10.235,0.015383,0,0,0,0
376,0.21632,10.247,0.014983,0,0,0,0
376.5,0.21727,10.258,0.015085,0,0,0,0
377,0.21801,10.268,0.015285,0,0,0,0
377.5,0.21923,10.278,0.015118,0,0,0,0
378,0.22014,10.288,0.015351,0,0,0,0
378.5,0.2214,10.298,0.015218,0,0,0,0
379,0.22245,10.308,0.01555,0,0,0,0
379.5,0.22397,10.319,0.01565,0,0,0,0
380,0.22522,10.329,0.015916,0,0,0,0
380.5,0.2262,10.339,0.01605,0,0,0,0
381,0.22786,10.35,0.01668,0,0,0,0
381.5,0.22894,10.359,0.016779,0,0,0,0
382,0.23022,10.368,0.017045,0,0,0,0
382.5,0.23127,10.379,0.017045,0,0,0,0
383,0.23239,10.388,0.017242,0,0,0,0
383.5,0.2335,10.399,0.017475,0,0,0,0
384,0.23475,10.408,0.017511,0,0,0,0
384.5,0.2357,10.418,0.017376,0,0,0,0
385,0.23665,10.428,0.017277,0,0,0,0
385.5,0.23746,10.438,0.017443,0,0,0,0
386,0.23891,10.447,0.017243,0,0,0,0
386.5,0.23993,10.457,0.017309,0,0,0,0
387,0.24138,10.467,0.017179,0,0,0,0
387.5,0.2424,10.478,0.017277,0,0,0,0
388,0.24388,10.487,0.017244,0,0,0,0
388.5,0.2452,10.498,0.017278,0,0,0,0
389,0.24649,10.508,0.017213,0,0,0,0
389.5,0.24771,10.518,0.017611,0,0,0,0
390,0.24855,10.527,0.017641,0,0,0,0
390.5,0.24963,10.537,0.018042,0,0,0,0
391,0.25089,10.546,0.017974,0,0,0,0
391.5,0.2516,10.555,0.018407,0,0,0,0
392,0.25288,10.565,0.018537,0,0,0,0
392.5,0.25403,10.575,0.018836,0,0,0,0
393,0.25488,10.585,0.018869,0,0,0,0
393.5,0.25586,10.595,0.019068,0,0,0,0
394,0.25694,10.604,0.0192,0,0,0,0
394.5,0.25829,10.613,0.0194,0,0,0,0
395,0.25958,10.622,0.0194,0,0,0,0
395.5,0.26103,10.633,0.019301,0,0,0,0
396,0.26228,10.641,0.019466,0,0,0,0
396.5,0.26387,10.649,0.019499,0,0,0,0
397,0.26539,10.656,0.019433,0,0,0,0
397.5,0.26637,10.667,0.019301,0,0,0,0
398,0.26786,10.679,0.0195,0,0,0,0
398.5,0.26904,10.69,0.019267,0,0,0,0
399,0.27002,10.7,0.019633,0,0,0,0
399.5,0.27134,10.71,0.019634,0,0,0,0
400,0.27242,10.719,0.0197,0,0,0,0
400.5,0.27374,10.73,0.019766,0,0,0,0
401,0.27506,10.739,0.02013,0,0,0,0
401.5,0.27628,10.747,0.020098,0,0,0,0
402,0.2778,10.754,0.020395,0,0,0,0
402.5,0.27936,10.764,0.020659,0,0,0,0
403,0.28064,10.775,0.020758,0,0,0,0
403.5,0.28253,10.784,0.021056,0,0,0,0
404,0.28358,10.791,0.021123,0,0,0,0
404.5,0.28517,10.799,0.02132,0,0,0,0
405,0.28686,10.809,0.021254,0,0,0,0
405.5,0.28774,10.819,0.02142,0,0,0,0
406,0.28916,10.829,0.021453,0,0,0,0
406.5,0.29038,10.839,0.021583,0,0,0,0
407,0.29146,10.849,0.021618,0,0,0,0
407.5,0.29268,10.858,0.021583,0,0,0,0
408,0.29373,10.867,0.021717,0,0,0,0
408.5,0.29464,10.875,0.021716,0,0,0,0
409,0.29637,10.884,0.021684,0,0,0,0
409.5,0.29714,10.893,0.021949,0,0,0,0
410,0.29877,10.902,0.021884,0,0,0,0
410.5,0.29991,10.91,0.02195,0,0,0,0
411,0.30103,10.92,0.022182,0,0,0,0
411.5,0.30292,10.931,0.022346,0,0,0,0
412,0.30434,10.941,0.02261,0,0,0,0
412.5,0.30556,10.948,0.022676,0,0,0,0
413,0.30708,10.956,0.022611,0,0,0,0
413.5,0.30854,10.965,0.023039,0,0,0,0
414,0.30992,10.974,0.023305,0,0,0,0
414.5,0.31114,10.983,0.023402,0,0,0,0
415,0.31243,10.991,0.023502,0,0,0,0
415.5,0.31371,11,0.023764,0,0,0,0
416,0.31503,11.008,0.023897,0,0,0,0
416.5,0.31601,11.019,0.023799,0,0,0,0
417,0.31767,11.028,0.023865,0,0,0,0
417.5,0.31898,11.036,0.024094,0,0,0,0
418,0.3206,11.043,0.024128,0,0,0,0
418.5,0.32236,11.052,0.024294,0,0,0,0
419,0.32416,11.061,0.024229,0,0,0,0
419.5,0.3255,11.069,0.02446,0,0,0,0
420,0.3272,11.079,0.024393,0,0,0,0
420.5,0.32862,11.09,0.024624,0,0,0,0
421,0.3299,11.099,0.024691,0,0,0,0
421.5,0.33149,11.106,0.024888,0,0,0,0
422,0.33287,11.114,0.025054,0,0,0,0
422.5,0.33403,11.122,0.025186,0,0,0,0
423,0.33544,11.131,0.02535,0,0,0,0
423.5,0.33703,11.141,0.025382,0,0,0,0
424,0.33832,11.151,0.025579,0,0,0,0
424.5,0.34035,11.159,0.025844,0,0,0,0
425,0.3414,11.166,0.025908,0,0,0,0
425.5,0.34315,11.175,0.026107,0,0,0,0
426,0.34474,11.184,0.026435,0,0,0,0
426.5,0.34613,11.193,0.026172,0,0,0,0
427,0.34738,11.202,0.02647,0,0,0,0
427.5,0.34904,11.211,0.026666,0,0,0,0
428,0.35029,11.219,0.026732,0,0,0,0
428.5,0.35154,11.227,0.026666,0,0,0,0
429,0.35289,11.237,0.02693,0,0,0,0
429.5,0.35435,11.246,0.026961,0,0,0,0
430,0.35566,11.253,0.027291,0,0,0,0
430.5,0.35654,11.261,0.027325,0,0,0,0
431,0.35827,11.27,0.027391,0,0,0,0
431.5,0.35956,11.277,0.027686,0,0,0,0
432,0.3609,11.284,0.027656,0,0,0,0
432.5,0.36283,11.294,0.027951,0,0,0,0
433,0.36422,11.304,0.027886,0,0,0,0
433.5,0.36608,11.312,0.028311,0,0,0,0
434,0.36777,11.319,0.028212,0,0,0,0
434.5,0.36949,11.328,0.028641,0,0,0,0
435,0.37101,11.338,0.028739,0,0,0,0
435.5,0.37247,11.349,0.028607,0,0,0,0
436,0.37416,11.358,0.02887,0,0,0,0
436.5,0.37544,11.364,0.028968,0,0,0,0
437,0.37727,11.37,0.029231,0,0,0,0
437.5,0.37842,11.378,0.029233,0,0,0,0
438,0.37997,11.388,0.029329,0,0,0,0
438.5,0.38163,11.396,0.029757,0,0,0,0
439,0.38318,11.403,0.029792,0,0,0,0
439.5,0.38491,11.411,0.029659,0,0,0,0
440,0.38667,11.418,0.03002,0,0,0,0
440.5,0.3889,11.424,0.03025,0,0,0,0
441,0.39042,11.43,0.030381,0,0,0,0
441.5,0.39228,11.44,0.030414,0,0,0,0
442,0.39366,11.449,0.030841,0,0,0,0
442.5,0.39546,11.457,0.030708,0,0,0,0
443,0.39704,11.464,0.030904,0,0,0,0
443.5,0.39819,11.474,0.031068,0,0,0,0
444,0.39995,11.482,0.031363,0,0,0,0
444.5,0.40137,11.489,0.031528,0,0,0,0
445,0.40293,11.496,0.031494,0,0,0,0
445.5,0.40441,11.505,0.03156,0,0,0,0
446,0.40587,11.514,0.031821,0,0,0,0
446.5,0.40776,11.52,0.031919,0,0,0,0
447,0.40931,11.527,0.032279,0,0,0,0
447.5,0.41117,11.536,0.032312,0,0,0,0
448,0.413,11.544,0.032279,0,0,0,0
448.5,0.41493,11.552,0.032673,0,0,0,0
449,0.41652,11.559,0.032804,0,0,0,0
449.5,0.4178,11.566,0.032903,0,0,0,0
450,0.41963,11.575,0.033131,0,0,0,0
450.5,0.42084,11.584,0.033133,0,0,0,0
451,0.42223,11.591,0.033525,0,0,0,0
451.5,0.42389,11.597,0.033556,0,0,0,0
452,0.42537,11.604,0.033916,0,0,0,0
452.5,0.42659,11.612,0.033981,0,0,0,0
453,0.42848,11.621,0.034142,0,0,0,0
453.5,0.43031,11.63,0.034241,0,0,0,0
454,0.43183,11.635,0.034534,0,0,0,0
454.5,0.43389,11.64,0.034536,0,0,0,0
455,0.43578,11.647,0.034861,0,0,0,0
455.5,0.43771,11.655,0.034926,0,0,0,0
456,0.43923,11.663,0.035058,0,0,0,0
456.5,0.44086,11.671,0.035252,0,0,0,0
457,0.44248,11.678,0.035513,0,0,0,0
457.5,0.4443,11.685,0.035742,0,0,0,0
458,0.44576,11.692,0.035678,0,0,0,0
458.5,0.44751,11.701,0.035937,0,0,0,0
459,0.44904,11.708,0.03607,0,0,0,0
459.5,0.45076,11.716,0.036297,0,0,0,0
460,0.45268,11.721,0.036362,0,0,0,0
460.5,0.45468,11.726,0.036492,0,0,0,0
461,0.45634,11.733,0.03672,0,0,0,0
461.5,0.4585,11.741,0.036753,0,0,0,0
462,0.46063,11.749,0.037111,0,0,0,0
462.5,0.46215,11.757,0.037241,0,0,0,0
463,0.46394,11.765,0.037468,0,0,0,0
463.5,0.46587,11.772,0.037728,0,0,0,0
464,0.46756,11.78,0.03763,0,0,0,0
464.5,0.46911,11.787,0.037826,0,0,0,0
465,0.4705,11.793,0.038085,0,0,0,0
465.5,0.47243,11.801,0.038411,0,0,0,0
466,0.47398,11.808,0.038315,0,0,0,0
466.5,0.47581,11.815,0.038704,0,0,0,0
467,0.47756,11.821,0.038703,0,0,0,0
467.5,0.47966,11.828,0.038965,0,0,0,0
468,0.48148,11.836,0.039224,0,0,0,0
468.5,0.48331,11.842,0.039549,0,0,0,0
469,0.4853,11.847,0.039711,0,0,0,0
469.5,0.48737,11.852,0.039873,0,0,0,0
470,0.48889,11.86,0.040133,0,0,0,0
470.5,0.49071,11.868,0.040134,0,0,0,0
471,0.49227,11.875,0.040362,0,0,0,0
471.5,0.49386,11.881,0.040491,0,0,0,0
472,0.49528,11.887,0.040784,0,0,0,0
472.5,0.49707,11.896,0.040782,0,0,0,0
473,0.49869,11.903,0.041107,0,0,0,0
473.5,0.50052,11.909,0.041269,0,0,0,0
474,0.50217,11.914,0.041399,0,0,0,0
474.5,0.5043,11.92,0.041722,0,0,0,0
475,0.50609,11.927,0.041689,0,0,0,0
475.5,0.50815,11.933,0.041884,0,0,0,0
476,0.51015,11.939,0.042176,0,0,0,0
476.5,0.51177,11.946,0.0425,0,0,0,0
477,0.51363,11.953,0.042598,0,0,0,0
477.5,0.51532,11.959,0.042889,0,0,0,0
478,0.51694,11.965,0.043309,0,0,0,0
478.5,0.51867,11.972,0.043632,0,0,0,0
479,0.52036,11.978,0.043795,0,0,0,0
479.5,0.52212,11.984,0.044054,0,0,0,0
480,0.52414,11.992,0.044442,0,0,0,0
480.5,0.52617,11.999,0.044538,0,0,0,0
481,0.5286,12.005,0.044731,0,0,0,0
481.5,0.53019,12.013,0.044797,0,0,0,0
482,0.53269,12.021,0.045087,0,0,0,0
482.5,0.53462,12.026,0.04525,0,0,0,0
483,0.53644,12.03,0.045184,0,0,0,0
483.5,0.53844,12.036,0.045379,0,0,0,0
484,0.5403,12.044,0.045508,0,0,0,0
484.5,0.54216,12.052,0.045863,0,0,0,0
485,0.54385,12.058,0.045992,0,0,0,0
485.5,0.54561,12.062,0.046056,0,0,0,0
486,0.54767,12.068,0.046314,0,0,0,0
486.5,0.54959,12.074,0.046508,0,0,0,0
487,0.55169,12.081,0.04683,0,0,0,0
487.5,0.55382,12.086,0.046991,0,0,0,0
488,0.55578,12.092,0.04754,0,0,0,0
488.5,0.55801,12.098,0.047635,0,0,0,0
489,0.56001,12.103,0.047926,0,0,0,0
489.5,0.56207,12.108,0.048248,0,0,0,0
490,0.56423,12.115,0.04857,0,0,0,0
490.5,0.56612,12.122,0.048795,0,0,0,0
491,0.56785,12.128,0.049214,0,0,0,0
491.5,0.56957,12.134,0.049309,0,0,0,0
492,0.57147,12.141,0.049213,0,0,0,0
492.5,0.57339,12.147,0.049695,0,0,0,0
493,0.57532,12.152,0.049855,0,0,0,0
493.5,0.57768,12.158,0.049856,0,0,0,0
494,0.57951,12.166,0.050145,0,0,0,0
494.5,0.58181,12.173,0.050017,0,0,0,0
495,0.584,12.178,0.050435,0,0,0,0
495.5,0.58624,12.184,0.050594,0,0,0,0
496,0.58813,12.189,0.050757,0,0,0,0
496.5,0.59016,12.195,0.051013,0,0,0,0
497,0.59175,12.2,0.051398,0,0,0,0
497.5,0.59377,12.208,0.051656,0,0,0,0
498,0.59523,12.214,0.051881,0,0,0,0
498.5,0.59732,12.22,0.052361,0,0,0,0
499,0.59891,12.224,0.052585,0,0,0,0
499.5,0.60172,12.228,0.052809,0,0,0,0
500,0.60357,12.233,0.053162,0,0,0,0
500.5,0.60567,12.241,0.053418,0,0,0,0
501,0.60773,12.247,0.053675,0,0,0,0
501.5,0.6103,12.253,0.053899,0,0,0,0
502,0.61216,12.258,0.054378,0,0,0,0
502.5,0.61425,12.263,0.054443,0,0,0,0
503,0.61625,12.268,0.054539,0,0,0,0
503.5,0.61814,12.275,0.054666,0,0,0,0
504,0.61993,12.282,0.054892,0,0,0,0
504.5,0.62176,12.286,0.055243,0,0,0,0
505,0.62392,12.291,0.055499,0,0,0,0
505.5,0.62578,12.298,0.055787,0,0,0,0
506,0.62798,12.303,0.055915,0,0,0,0
506.5,0.63024,12.307,0.056075,0,0,0,0
507,0.6323,12.311,0.056202,0,0,0,0
507.5,0.63494,12.316,0.056489,0,0,0,0
508,0.63724,12.322,0.056937,0,0,0,0
508.5,0.6397,12.328,0.057224,0,0,0,0
509,0.64102,12.332,0.057448,0,0,0,0
509.5,0.64363,12.336,0.057831,0,0,0,0
510,0.64555,12.34,0.058277,0,0,0,0
510.5,0.64744,12.346,0.058467,0,0,0,0
511,0.64974,12.353,0.058914,0,0,0,0
511.5,0.65167,12.359,0.059041,0,0,0,0
512,0.65383,12.365,0.059359,0,0,0,0
512.5,0.65617,12.369,0.059678,0,0,0,0
513,0.65846,12.374,0.059901,0,0,0,0
513.5,0.66107,12.379,0.060251,0,0,0,0
514,0.6634,12.385,0.060378,0,0,0,0
514.5,0.66573,12.389,0.06041,0,0,0,0
515,0.66759,12.393,0.061015,0,0,0,0
515.5,0.67009,12.398,0.061046,0,0,0,0
516,0.67212,12.403,0.061491,0,0,0,0
516.5,0.67374,12.408,0.061555,0,0,0,0
517,0.67607,12.415,0.061809,0,0,0,0
517.5,0.67827,12.42,0.062222,0,0,0,0
518,0.68047,12.423,0.062444,0,0,0,0
518.5,0.68273,12.427,0.062984,0,0,0,0
519,0.68496,12.432,0.063143,0,0,0,0
519.5,0.6876,12.438,0.06346,0,0,0,0
520,0.68983,12.443,0.063872,0,0,0,0
520.5,0.69229,12.447,0.064093,0,0,0,0
521,0.69466,12.45,0.064759,0,0,0,0
521.5,0.69672,12.455,0.064886,0,0,0,0
522,0.69912,12.459,0.065393,0,0,0,0
522.5,0.70139,12.464,0.065835,0,0,0,0
523,0.70338,12.469,0.065994,0,0,0,0
523.5,0.70514,12.473,0.066247,0,0,0,0
524,0.7074,12.478,0.066436,0,0,0,0
524.5,0.70946,12.483,0.066753,0,0,0,0
525,0.7121,12.488,0.06707,0,0,0,0
525.5,0.71426,12.492,0.067321,0,0,0,0
526,0.71707,12.499,0.067732,0,0,0,0
526.5,0.71947,12.504,0.06789,0,0,0,0
527,0.72163,12.506,0.068269,0,0,0,0
527.5,0.72389,12.508,0.068489,0,0,0,0
528,0.72619,12.514,0.068774,0,0,0,0
528.5,0.72808,12.519,0.069246,0,0,0,0
529,0.73025,12.524,0.06953,0,0,0,0
529.5,0.73204,12.528,0.069846,0,0,0,0
530,0.73461,12.533,0.070035,0,0,0,0
530.5,0.73698,12.536,0.070823,0,0,0,0
531,0.7388,12.539,0.070949,0,0,0,0
531.5,0.74144,12.544,0.071547,0,0,0,0
532,0.74428,12.548,0.071766,0,0,0,0
532.5,0.74654,12.552,0.072144,0,0,0,0
533,0.74887,12.557,0.072365,0,0,0,0
533.5,0.75097,12.561,0.072741,0,0,0,0
534,0.75334,12.567,0.073025,0,0,0,0
534.5,0.75529,12.572,0.073401,0,0,0,0
535,0.75739,12.575,0.073652,0,0,0,0
535.5,0.75972,12.576,0.073778,0,0,0,0
536,0.76195,12.58,0.074061,0,0,0,0
536.5,0.76425,12.583,0.074373,0,0,0,0
537,0.76645,12.588,0.074719,0,0,0,0
537.5,0.76925,12.593,0.07519,0,0,0,0
538,0.77175,12.598,0.075471,0,0,0,0
538.5,0.77405,12.601,0.075753,0,0,0,0
539,0.77679,12.603,0.076066,0,0,0,0
539.5,0.77942,12.608,0.076755,0,0,0,0
540,0.78159,12.612,0.07713,0,0,0,0
540.5,0.78412,12.616,0.077412,0,0,0,0
541,0.78619,12.62,0.077756,0,0,0,0
541.5,0.78842,12.624,0.0781,0,0,0,0
542,0.79075,12.629,0.078506,0,0,0,0
542.5,0.79345,12.634,0.079039,0,0,0,0
543,0.79544,12.636,0.079287,0,0,0,0
543.5,0.79812,12.637,0.079755,0,0,0,0
544,0.80085,12.64,0.080161,0,0,0,0
544.5,0.80329,12.645,0.080099,0,0,0,0
545,0.80599,12.649,0.080661,0,0,0,0
545.5,0.80852,12.653,0.08119,0,0,0,0
546,0.81086,12.657,0.081315,0,0,0,0
546.5,0.81342,12.66,0.081938,0,0,0,0
547,0.81549,12.664,0.082342,0,0,0,0
547.5,0.81789,12.666,0.082591,0,0,0,0
548,0.82008,12.668,0.083182,0,0,0,0
548.5,0.82285,12.671,0.083307,0,0,0,0
549,0.82525,12.674,0.083835,0,0,0,0
549.5,0.82806,12.679,0.084332,0,0,0,0
550,0.83076,12.684,0.084797,0,0,0,0
550.5,0.83357,12.688,0.085139,0,0,0,0
551,0.83637,12.691,0.085449,0,0,0,0
551.5,0.83867,12.692,0.086039,0,0,0,0
552,0.84144,12.695,0.086473,0,0,0,0
552.5,0.84394,12.697,0.086907,0,0,0,0
553,0.84597,12.7,0.087155,0,0,0,0
553.5,0.84834,12.702,0.08762,0,0,0,0
554,0.85067,12.704,0.088145,0,0,0,0
554.5,0.85357,12.707,0.08861,0,0,0,0
555,0.85642,12.713,0.088919,0,0,0,0
555.5,0.85905,12.719,0.08929,0,0,0,0
556,0.86169,12.723,0.089815,0,0,0,0
556.5,0.86459,12.724,0.090217,0,0,0,0
557,0.86713,12.726,0.090988,0,0,0,0
557.5,0.86959,12.728,0.091204,0,0,0,0
558,0.87219,12.732,0.091759,0,0,0,0
558.5,0.87466,12.736,0.092284,0,0,0,0
559,0.8772,12.738,0.092777,0,0,0,0
559.5,0.87949,12.74,0.093115,0,0,0,0
560,0.88196,12.742,0.093485,0,0,0,0
560.5,0.8845,12.745,0.094039,0,0,0,0
561,0.8873,12.748,0.094408,0,0,0,0
561.5,0.8899,12.75,0.094992,0,0,0,0
562,0.89278,12.754,0.095146,0,0,0,0
562.5,0.89588,12.758,0.09576,0,0,0,0
563,0.89845,12.759,0.096313,0,0,0,0
563.5,0.90109,12.76,0.096528,0,0,0,0
564,0.90332,12.761,0.097202,0,0,0,0
564.5,0.90609,12.763,0.097815,0,0,0,0
565,0.90866,12.764,0.098337,0,0,0,0
565.5,0.91102,12.768,0.098765,0,0,0,0
566,0.91387,12.772,0.099224,0,0,0,0
566.5,0.91633,12.773,0.099683,0,0,0,0
567,0.91961,12.774,0.10017,0,0,0,0
567.5,0.92225,12.778,0.10063,0,0,0,0
568,0.92509,12.782,0.10133,0,0,0,0
568.5,0.92776,12.784,0.10198,0,0,0,0
569,0.93036,12.785,0.10219,0,0,0,0
569.5,0.93296,12.787,0.1028,0,0,0,0
570,0.93556,12.79,0.10347,0,0,0,0
570.5,0.93783,12.791,0.10374,0,0,0,0
571,0.94047,12.792,0.10457,0,0,0,0
571.5,0.94324,12.794,0.10472,0,0,0,0
572,0.9459,12.797,0.10521,0,0,0,0
572.5,0.94864,12.799,0.10575,0,0,0,0
573,0.95168,12.8,0.10627,0,0,0,0
573.5,0.95455,12.803,0.10694,0,0,0,0
574,0.95749,12.806,0.10767,0,0,0,0
574.5,0.9601,12.808,0.10797,0,0,0,0
575,0.96266,12.81,0.10846,0,0,0,0
575.5,0.9652,12.811,0.10885,0,0,0,0
576,0.9676,12.811,0.10943,0,0,0,0
576.5,0.97044,12.812,0.10991,0,0,0,0
577,0.97325,12.813,0.11036,0,0,0,0
577.5,0.97571,12.814,0.11106,0,0,0,0
578,0.97879,12.815,0.11133,0,0,0,0
578.5,0.98132,12.817,0.11206,0,0,0,0
579,0.98477,12.82,0.11275,0,0,0,0
579.5,0.98764,12.822,0.11336,0,0,0,0
580,0.99038,12.822,0.11402,0,0,0,0
580.5,0.99322,12.822,0.11426,0,0,0,0
581,0.99572,12.822,0.11523,0,0,0,0
581.5,0.99822,12.823,0.11568,0,0,0,0
582,1.001,12.824,0.11652,0,0,0,0
582.5,1.0037,12.826,0.11721,0,0,0,0
583,1.0065,12.828,0.11766,0,0,0,0
583.5,1.0097,12.83,0.11838,0,0,0,0
584,1.0126,12.83,0.11895,0,0,0,0
584.5,1.0153,12.832,0.11964,0,0,0,0
585,1.0185,12.834,0.12018,0,0,0,0
585.5,1.0215,12.835,0.12105,0,0,0,0
586,1.0245,12.834,0.12186,0,0,0,0
586.5,1.0272,12.834,0.12252,0,0,0,0
587,1.0296,12.836,0.1235,0,0,0,0
587.5,1.0322,12.839,0.12422,0,0,0,0
588,1.0352,12.841,0.12506,0,0,0,0
588.5,1.0384,12.841,0.12574,0,0,0,0
589,1.0411,12.841,0.12658,0,0,0,0
589.5,1.0444,12.842,0.12711,0,0,0,0
590,1.0476,12.843,0.12786,0,0,0,0
590.5,1.0508,12.843,0.12887,0,0,0,0
591,1.0536,12.844,0.12943,0,0,0,0
591.5,1.0565,12.844,0.13014,0,0,0,0
592,1.0597,12.843,0.13071,0,0,0,0
592.5,1.0624,12.842,0.13151,0,0,0,0
593,1.0651,12.841,0.13231,0,0,0,0
593.5,1.0678,12.841,0.13293,0,0,0,0
594,1.071,12.842,0.13393,0,0,0,0
594.5,1.0743,12.841,0.1347,0,0,0,0
595,1.0772,12.842,0.1355,0,0,0,0
595.5,1.0807,12.842,0.13615,0,0,0,0
596,1.0839,12.843,0.13715,0,0,0,0
596.5,1.0866,12.842,0.13777,0,0,0,0
597,1.0896,12.842,0.13871,0,0,0,0
597.5,1.0924,12.842,0.13962,0,0,0,0
598,1.0955,12.842,0.1403,0,0,0,0
598.5,1.0986,12.841,0.14118,0,0,0,0
599,1.1014,12.84,0.142,0,0,0,0
599.5,1.1044,12.84,0.14253,0,0,0,0
600,1.1078,12.84,0.14335,0,0,0,0
600.5,1.111,12.84,0.14437,0,0,0,0
601,1.1145,12.839,0.14528,0,0,0,0
601.5,1.1176,12.838,0.14604,0,0,0,0
602,1.1206,12.838,0.14709,0,0,0,0
602.5,1.1234,12.836,0.148,0,0,0,0
603,1.1265,12.834,0.14893,0,0,0,0
603.5,1.1295,12.833,0.14998,0,0,0,0
604,1.1325,12.834,0.15093,0,0,0,0
604.5,1.1356,12.832,0.15184,0,0,0,0
605,1.1388,12.83,0.15274,0,0,0,0
605.5,1.1422,12.828,0.15346,0,0,0,0
606,1.1457,12.827,0.15447,0,0,0,0
606.5,1.1492,12.826,0.15526,0,0,0,0
607,1.1525,12.825,0.15621,0,0,0,0
607.5,1.1553,12.825,0.15708,0,0,0,0
608,1.1583,12.822,0.15812,0,0,0,0
608.5,1.1613,12.82,0.15898,0,0,0,0
609,1.1643,12.82,0.15993,0,0,0,0
609.5,1.1675,12.82,0.16103,0,0,0,0
610,1.1712,12.818,0.16195,0,0,0,0
610.5,1.1742,12.815,0.16298,0,0,0,0
611,1.178,12.813,0.16413,0,0,0,0
611.5,1.1812,12.81,0.16525,0,0,0,0
612,1.1846,12.808,0.16634,0,0,0,0
612.5,1.1874,12.806,0.16739,0,0,0,0
613,1.1907,12.804,0.16814,0,0,0,0
613.5,1.1937,12.801,0.16911,0,0,0,0
614,1.197,12.799,0.17019,0,0,0,0
614.5,1.2001,12.796,0.17119,0,0,0,0
615,1.2033,12.793,0.1723,0,0,0,0
615.5,1.2069,12.791,0.17321,0,0,0,0
616,1.2104,12.79,0.17457,0,0,0,0
616.5,1.2139,12.786,0.1756,0,0,0,0
617,1.2173,12.782,0.17676,0,0,0,0
617.5,1.2206,12.777,0.17775,0,0,0,0
618,1.2235,12.773,0.17925,0,0,0,0
618.5,1.2268,12.771,0.18021,0,0,0,0
619,1.2302,12.768,0.18136,0,0,0,0
619.5,1.2332,12.766,0.18241,0,0,0,0
620,1.2367,12.763,0.18376,0,0,0,0
620.5,1.24,12.759,0.1848,0,0,0,0
621,1.2434,12.755,0.18581,0,0,0,0
621.5,1.2472,12.751,0.18707,0,0,0,0
622,1.2508,12.747,0.18839,0,0,0,0
622.5,1.2541,12.744,0.18965,0,0,0,0
623,1.2575,12.74,0.19082,0,0,0,0
623.5,1.2608,12.736,0.19208,0,0,0,0
624,1.2639,12.732,0.19331,0,0,0,0
624.5,1.2674,12.727,0.19459,0,0,0,0
625,1.2708,12.722,0.19598,0,0,0,0
625.5,1.2743,12.717,0.19706,0,0,0,0
626,1.2783,12.711,0.19847,0,0,0,0
626.5,1.282,12.706,0.19986,0,0,0,0
627,1.2857,12.703,0.20108,0,0,0,0
627.5,1.2893,12.7,0.20262,0,0,0,0
628,1.2925,12.695,0.20367,0,0,0,0
628.5,1.2956,12.69,0.20511,0,0,0,0
629,1.2994,12.686,0.20654,0,0,0,0
629.5,1.3024,12.682,0.20775,0,0,0,0
630,1.3063,12.676,0.20942,0,0,0,0
630.5,1.3102,12.668,0.21071,0,0,0,0
631,1.3141,12.662,0.21232,0,0,0,0
631.5,1.3179,12.656,0.2138,0,0,0,0
632,1.3214,12.651,0.21524,0,0,0,0
632.5,1.3249,12.645,0.21655,0,0,0,0
633,1.3287,12.64,0.21818,0,0,0,0
633.5,1.332,12.633,0.21957,0,0,0,0
634,1.3355,12.625,0.22117,0,0,0,0
634.5,1.3392,12.618,0.22258,0,0,0,0
635,1.3427,12.61,0.22398,0,0,0,0
635.5,1.3469,12.603,0.22555,0,0,0,0
636,1.351,12.595,0.22709,0,0,0,0
636.5,1.3546,12.588,0.22886,0,0,0,0
637,1.3583,12.581,0.23034,0,0,0,0
637.5,1.3617,12.575,0.23177,0,0,0,0
638,1.3653,12.57,0.23343,0,0,0,0
638.5,1.3689,12.564,0.23511,0,0,0,0
639,1.3726,12.555,0.23674,0,0,0,0
639.5,1.3764,12.546,0.23848,0,0,0,0
640,1.3803,12.538,0.23978,0,0,0,0
640.5,1.3844,12.53,0.24129,0,0,0,0
641,1.3884,12.521,0.24281,0,0,0,0
641.5,1.3924,12.512,0.24443,0,0,0,0
642,1.3959,12.502,0.24628,0,0,0,0
642.5,1.3995,12.492,0.24781,0,0,0,0
643,1.403,12.482,0.24937,0,0,0,0
643.5,1.4067,12.473,0.25118,0,0,0,0
644,1.4106,12.464,0.253,0,0,0,0
644.5,1.4146,12.455,0.25486,0,0,0,0
645,1.4187,12.446,0.25641,0,0,0,0
645.5,1.423,12.437,0.25818,0,0,0,0
646,1.4269,12.426,0.25998,0,0,0,0
646.5,1.4309,12.414,0.26155,0,0,0,0
647,1.4344,12.404,0.26308,0,0,0,0
647.5,1.4382,12.394,0.26495,0,0,0,0
648,1.4416,12.384,0.26661,0,0,0,0
648.5,1.4457,12.374,0.26861,0,0,0,0
649,1.4498,12.364,0.27034,0,0,0,0
649.5,1.4538,12.351,0.27225,0,0,0,0
650,1.4581,12.339,0.27418,0,0,0,0
650.5,1.4622,12.327,0.27649,0,0,0,0
651,1.4661,12.315,0.27818,0,0,0,0
651.5,1.4699,12.303,0.28017,0,0,0,0
652,1.4739,12.29,0.28188,0,0,0,0
652.5,1.4781,12.277,0.28377,0,0,0,0
653,1.4819,12.265,0.28584,0,0,0,0
653.5,1.4863,12.25,0.28787,0,0,0,0
654,1.4905,12.233,0.28969,0,0,0,0
654.5,1.4946,12.218,0.29192,0,0,0,0
655,1.499,12.203,0.29384,0,0,0,0
655.5,1.5028,12.187,0.29596,0,0,0,0
656,1.5072,12.17,0.29815,0,0,0,0
656.5,1.5115,12.151,0.30025,0,0,0,0
657,1.5159,12.127,0.30271,0,0,0,0