File: Template_Auto_Cali_large_DP600/_results/NT6_00_1.csv
Time[s],Displacement[mm],Force[kN],AxStrain_1,AxStrain_2,Thickness[mm],OuterWidth[mm],InnerWidth[mm]
0,0,-0.0017465,0,0,0.28924,4,2
0.5,-4.1937e-05,-0.001731,8.3014e-06,0,0,0,0
0.999,5.5858e-05,-0.001715,0.00022391,0,0,0,0
1.499,-2.9313e-05,-0.0016898,-7.2831e-05,0,0,0,0
2,4.2682e-05,-0.0016562,-0.00022505,0,0,0,0
2.5,0.00014093,-0.0015833,-6.8266e-05,0,0,0,0
2.999,0.00018836,-0.0014069,-3.6875e-05,0,0,0,0
3.499,0.00035304,-0.0010779,0.00038931,0,0,0,0
3.999,0.00039868,-0.000637,0.00028665,0,0,0,0
4.5,0.00048177,-0.00013716,-0.00047526,0,0,0,0
5,0.00049188,0.00038919,4.5798e-05,0,0,0,0
5.5,0.00048314,0.00091697,-0.00036598,0,0,0,0
6,0.00048007,0.0014182,-0.00032847,0,0,0,0
6.499,0.00044431,0.0018872,5.8811e-05,0,0,0,0
7,0.00059256,0.0022903,-7.0661e-05,0,0,0,0
7.5,0.00046458,0.0025773,0.00040197,0,0,0,0
7.999,0.00052035,0.002744,0.00013342,0,0,0,0
8.5,0.00062797,0.0028981,0.00019909,0,0,0,0
9,0.00065578,0.0031865,0.00013019,0,0,0,0
9.5,0.00076822,0.0036863,0.00035546,0,0,0,0
10,0.00095969,0.0043793,0.0002414,0,0,0,0
10.499,0.00087804,0.005194,0.00027604,0,0,0,0
11,0.0010354,0.0060901,0.00012963,0,0,0,0
11.499,0.0010043,0.0070111,0.00019042,0,0,0,0
12,0.0011137,0.0080096,0.00014941,0,0,0,0
12.5,0.0012386,0.0091127,0.00023775,0,0,0,0
13,0.0012893,0.010307,0.00017951,0,0,0,0
13.499,0.0014133,0.011483,0.00023852,0,0,0,0
14,0.0014942,0.012656,0.00018777,0,0,0,0
14.499,0.0015414,0.013938,0.00035831,0,0,0,0
15,0.0016924,0.015401,0.00022329,0,0,0,0
15.499,0.0016955,0.017079,0.0004115,0,0,0,0
16,0.001828,0.018963,0.00036623,0,0,0,0
16.5,0.0018523,0.021021,0.00033557,0,0,0,0
16.999,0.0020287,0.023052,0.00050055,0,0,0,0
17.499,0.0019901,0.025053,0.00030268,0,0,0,0
18,0.0021469,0.027089,0.00068035,0,0,0,0
18.5,0.0021992,0.029148,0.0008851,0,0,0,0
19,0.0022789,0.031095,0.0007627,0,0,0,0
19.5,0.0023527,0.03298,0.00089934,0,0,0,0
20,0.0024845,0.034858,0.00093166,0,0,0,0
20.5,0.002472,0.036682,0.00058571,0,0,0,0
20.999,0.0025651,0.038413,0.00081276,0,0,0,0
21.5,0.0027815,0.040125,0.0010206,0,0,0,0
22,0.0027404,0.041891,0.00087366,0,0,0,0
22.499,0.0028057,0.043622,0.0010412,0,0,0,0
22.999,0.0028838,0.045328,0.00063423,0,0,0,0
23.5,0.0028939,0.04709,0.00085877,0,0,0,0
23.999,0.0029474,0.048956,0.00076784,0,0,0,0
24.5,0.0030313,0.050761,0.0010997,0,0,0,0
25,0.0031976,0.052539,0.00086422,0,0,0,0
25.499,0.0032305,0.054373,0.00099426,0,0,0,0
26,0.0032843,0.056261,0.00099071,0,0,0,0
26.499,0.0034332,0.058091,0.00099316,0,0,0,0
27,0.0035283,0.059923,0.0011497,0,0,0,0
27.499,0.0035309,0.061768,0.00092552,0,0,0,0
27.999,0.0036508,0.063622,0.0008893,0,0,0,0
28.5,0.0036438,0.065487,0.00093486,0,0,0,0
29,0.0036881,0.067389,0.0011152,0,0,0,0
29.5,0.0038328,0.069205,0.00092002,0,0,0,0
29.999,0.003884,0.071017,0.0010973,0,0,0,0
30.499,0.0040366,0.072848,0.0011805,0,0,0,0
31,0.004027,0.074676,0.001181,0,0,0,0
31.5,0.003996,0.076417,0.0010955,0,0,0,0
31.999,0.0041932,0.078242,0.00090688,0,0,0,0
32.5,0.0042951,0.080143,0.0010123,0,0,0,0
32.999,0.0043745,0.081982,0.0010482,0,0,0,0
33.499,0.0043997,0.083741,0.0011811,0,0,0,0
33.999,0.0043852,0.085539,0.0012734,0,0,0,0
34.5,0.0045636,0.087367,0.0014118,0,0,0,0
35,0.0045285,0.089134,0.0011889,0,0,0,0
35.5,0.0046504,0.090908,0.0013057,0,0,0,0
35.999,0.0047544,0.092747,0.0014927,0,0,0,0
36.5,0.0048208,0.094589,0.0013961,0,0,0,0
37,0.004876,0.096362,0.0013876,0,0,0,0
37.499,0.005048,0.098126,0.00118,0,0,0,0
37.999,0.0050411,0.099949,0.0011845,0,0,0,0
38.5,0.0051378,0.10178,0.0015177,0,0,0,0
38.999,0.0051791,0.10358,0.0016472,0,0,0,0
39.499,0.0052398,0.10536,0.001519,0,0,0,0
40,0.0053227,0.10711,0.001351,0,0,0,0
40.5,0.0053949,0.10885,0.0016688,0,0,0,0
40.999,0.0054506,0.11062,0.0015571,0,0,0,0
41.5,0.0056797,0.11242,0.0014685,0,0,0,0
42,0.0056842,0.11424,0.0014918,0,0,0,0
42.499,0.0058249,0.11603,0.001379,0,0,0,0
43,0.0058926,0.11779,0.0016179,0,0,0,0
43.499,0.0059055,0.1196,0.001889,0,0,0,0
43.999,0.0060293,0.12145,0.00149,0,0,0,0
44.499,0.0062047,0.12325,0.0018652,0,0,0,0
45,0.0063057,0.1251,0.001381,0,0,0,0
45.5,0.0061915,0.12704,0.0015941,0,0,0,0
46,0.0065157,0.1289,0.0012762,0,0,0,0
46.499,0.0064205,0.13068,0.0016733,0,0,0,0
46.999,0.006585,0.13247,0.0015363,0,0,0,0
47.499,0.0065142,0.13435,0.0015818,0,0,0,0
48,0.0068294,0.13622,0.0018154,0,0,0,0
48.499,0.00684,0.13815,0.0017545,0,0,0,0
49,0.0069737,0.14013,0.0015645,0,0,0,0
49.5,0.0069584,0.14218,0.001618,0,0,0,0
49.999,0.0071738,0.14418,0.0015435,0,0,0,0
50.499,0.0072944,0.14617,0.001651,0,0,0,0
50.999,0.0072699,0.14823,0.0021155,0,0,0,0
51.499,0.0074386,0.15037,0.0022104,0,0,0,0
52,0.0075186,0.15246,0.0017115,0,0,0,0
52.5,0.0076242,0.15456,0.0018907,0,0,0,0
52.999,0.0077145,0.15671,0.0021016,0,0,0,0
53.5,0.0078667,0.15889,0.0023582,0,0,0,0
54,0.0079849,0.1611,0.0021459,0,0,0,0
54.499,0.0080661,0.16326,0.0021897,0,0,0,0
55,0.0081081,0.16538,0.002296,0,0,0,0
55.5,0.0083657,0.16755,0.0023175,0,0,0,0
55.999,0.0083889,0.16976,0.0021219,0,0,0,0
56.499,0.0085174,0.17195,0.0021624,0,0,0,0
57,0.0087189,0.17418,0.0023905,0,0,0,0
57.499,0.0089566,0.17642,0.0025318,0,0,0,0
58,0.0089777,0.17865,0.0027935,0,0,0,0
58.499,0.0092588,0.18082,0.002561,0,0,0,0
58.999,0.0092424,0.183,0.002297,0,0,0,0
59.499,0.0094132,0.18529,0.0024946,0,0,0,0
60,0.009595,0.18762,0.0026225,0,0,0,0
60.499,0.0097368,0.18989,0.0023313,0,0,0,0
60.999,0.0099031,0.19216,0.0024084,0,0,0,0
61.5,0.010048,0.19442,0.0028522,0,0,0,0
62,0.010257,0.19664,0.0027059,0,0,0,0
62.5,0.010376,0.1989,0.002923,0,0,0,0
62.999,0.010516,0.20126,0.0027327,0,0,0,0
63.5,0.010702,0.20356,0.0032702,0,0,0,0
64,0.010929,0.20582,0.0031754,0,0,0,0
64.5,0.011056,0.20805,0.0032401,0,0,0,0
65,0.011192,0.21029,0.0033927,0,0,0,0
65.499,0.011421,0.21244,0.003418,0,0,0,0
66,0.011704,0.21459,0.0034701,0,0,0,0
66.499,0.011845,0.2168,0.0034657,0,0,0,0
66.999,0.012244,0.2191,0.0037487,0,0,0,0
67.5,0.012238,0.22136,0.0037012,0,0,0,0
68,0.012577,0.22355,0.0037919,0,0,0,0
68.499,0.01281,0.22573,0.0039545,0,0,0,0
68.999,0.013004,0.22793,0.003823,0,0,0,0
69.5,0.013317,0.23014,0.0041035,0,0,0,0
69.999,0.013462,0.23229,0.0040306,0,0,0,0
70.5,0.013866,0.23444,0.0045402,0,0,0,0
70.999,0.014069,0.23652,0.0040518,0,0,0,0
71.5,0.014385,0.23853,0.004452,0,0,0,0
72,0.014666,0.24056,0.0048514,0,0,0,0
72.5,0.014942,0.2426,0.0047086,0,0,0,0
73,0.015184,0.24456,0.0052594,0,0,0,0
73.5,0.015555,0.24645,0.0052574,0,0,0,0
73.999,0.015779,0.24839,0.0053718,0,0,0,0
74.499,0.016129,0.25029,0.0056031,0,0,0,0
74.999,0.016438,0.25214,0.0057975,0,0,0,0
75.499,0.016773,0.25394,0.005792,0,0,0,0
76,0.017067,0.25571,0.0062184,0,0,0,0
76.5,0.017464,0.25742,0.0063198,0,0,0,0
76.999,0.01787,0.25907,0.0066303,0,0,0,0
77.499,0.018262,0.26069,0.0066606,0,0,0,0
78.008,0.018537,0.26232,0.0067589,0,0,0,0
78.499,0.018918,0.26395,0.0071314,0,0,0,0
79,0.019395,0.26548,0.0078192,0,0,0,0
79.499,0.019628,0.26695,0.0077017,0,0,0,0
79.999,0.020038,0.2684,0.007788,0,0,0,0
80.5,0.020488,0.26984,0.0080539,0,0,0,0
81,0.020929,0.27124,0.008752,0,0,0,0
81.499,0.021346,0.27265,0.0087699,0,0,0,0
81.999,0.021663,0.27402,0.0092149,0,0,0,0
82.499,0.022211,0.27534,0.0095695,0,0,0,0
82.999,0.022484,0.27662,0.0094006,0,0,0,0
83.499,0.023048,0.27789,0.0095081,0,0,0,0
83.999,0.023362,0.27911,0.01011,0,0,0,0
84.499,0.02389,0.28032,0.010442,0,0,0,0
84.999,0.024388,0.28152,0.010642,0,0,0,0
85.499,0.024815,0.28271,0.011013,0,0,0,0
85.999,0.025302,0.28383,0.011182,0,0,0,0
86.499,0.025588,0.28494,0.011593,0,0,0,0
87,0.025934,0.28603,0.01173,0,0,0,0
87.5,0.026437,0.2871,0.011985,0,0,0,0
88,0.026961,0.28815,0.012136,0,0,0,0
88.499,0.027393,0.28919,0.012746,0,0,0,0
88.999,0.027798,0.29023,0.012752,0,0,0,0
89.499,0.028232,0.29126,0.013067,0,0,0,0
90,0.028762,0.29223,0.013101,0,0,0,0
90.499,0.029197,0.29319,0.013455,0,0,0,0
90.999,0.029677,0.29417,0.013484,0,0,0,0
91.499,0.030261,0.29515,0.013586,0,0,0,0
92,0.030741,0.2961,0.014096,0,0,0,0
92.499,0.031147,0.29703,0.014409,0,0,0,0
92.999,0.031653,0.29794,0.014476,0,0,0,0
93.5,0.032149,0.29881,0.01451,0,0,0,0
94,0.032582,0.29971,0.014949,0,0,0,0
94.499,0.033093,0.30064,0.015262,0,0,0,0
94.999,0.033543,0.30156,0.015468,0,0,0,0
95.499,0.034065,0.30241,0.015827,0,0,0,0
95.999,0.03453,0.30325,0.016041,0,0,0,0
96.5,0.035059,0.30414,0.016256,0,0,0,0
96.999,0.035532,0.30502,0.016814,0,0,0,0
97.499,0.036066,0.30586,0.016812,0,0,0,0
97.999,0.036553,0.30669,0.017059,0,0,0,0
98.5,0.037102,0.30752,0.017196,0,0,0,0
98.999,0.037605,0.30831,0.017529,0,0,0,0
99.5,0.038025,0.3091,0.017738,0,0,0,0
99.999,0.038525,0.3099,0.017907,0,0,0,0
100.5,0.03902,0.31069,0.018073,0,0,0,0
101,0.039773,0.31144,0.018396,0,0,0,0
101.5,0.040006,0.31219,0.018916,0,0,0,0
102,0.040668,0.31295,0.018996,0,0,0,0
102.5,0.04118,0.31371,0.019132,0,0,0,0
103,0.041587,0.31444,0.019689,0,0,0,0
103.5,0.042124,0.31516,0.019401,0,0,0,0
104,0.042525,0.31589,0.019892,0,0,0,0
104.5,0.043196,0.31661,0.020178,0,0,0,0
105,0.043692,0.31731,0.0202,0,0,0,0
105.5,0.044139,0.31801,0.020731,0,0,0,0
106,0.044641,0.31871,0.020695,0,0,0,0
106.5,0.04521,0.31939,0.020935,0,0,0,0
107,0.045747,0.32009,0.021425,0,0,0,0
107.5,0.046132,0.3208,0.021596,0,0,0,0
108,0.046789,0.32148,0.021734,0,0,0,0
108.5,0.047256,0.32213,0.022154,0,0,0,0
109,0.047764,0.32279,0.022122,0,0,0,0
109.5,0.048268,0.32344,0.022671,0,0,0,0
110,0.048862,0.32406,0.022813,0,0,0,0
110.5,0.049385,0.32469,0.022733,0,0,0,0
111,0.050109,0.32535,0.023293,0,0,0,0
111.5,0.050402,0.32596,0.023602,0,0,0,0
112,0.050915,0.32656,0.023946,0,0,0,0
112.5,0.051447,0.32717,0.024395,0,0,0,0
113,0.051971,0.3278,0.024187,0,0,0,0
113.5,0.052407,0.32841,0.024619,0,0,0,0
114,0.052904,0.329,0.025049,0,0,0,0
114.5,0.053488,0.32958,0.025726,0,0,0,0
115,0.054116,0.33018,0.025624,0,0,0,0
115.5,0.054764,0.33077,0.025853,0,0,0,0
116,0.055253,0.33134,0.026229,0,0,0,0
116.5,0.055816,0.33191,0.026629,0,0,0,0
117,0.056261,0.3325,0.026723,0,0,0,0
117.5,0.056793,0.33308,0.026941,0,0,0,0
118,0.05728,0.33366,0.026837,0,0,0,0
118.5,0.057783,0.33424,0.027206,0,0,0,0
119,0.05838,0.33481,0.027319,0,0,0,0
119.5,0.058944,0.33536,0.027853,0,0,0,0
120,0.059546,0.33591,0.027916,0,0,0,0
120.5,0.059968,0.33646,0.028716,0,0,0,0
121,0.060636,0.337,0.028726,0,0,0,0
121.5,0.061117,0.33752,0.028784,0,0,0,0
122,0.061635,0.33804,0.029183,0,0,0,0
122.5,0.062245,0.33858,0.029357,0,0,0,0
123,0.062809,0.33911,0.029948,0,0,0,0
123.5,0.063264,0.33961,0.030188,0,0,0,0
124,0.063836,0.34012,0.030195,0,0,0,0
124.5,0.064456,0.34064,0.030252,0,0,0,0
125,0.064923,0.34117,0.030876,0,0,0,0
125.5,0.065501,0.34169,0.031159,0,0,0,0
126,0.066044,0.34219,0.031468,0,0,0,0
126.5,0.066655,0.34268,0.031551,0,0,0,0
127,0.067078,0.34316,0.032209,0,0,0,0
127.5,0.067722,0.34363,0.032101,0,0,0,0
128,0.068266,0.34411,0.03254,0,0,0,0
128.5,0.06878,0.34459,0.033105,0,0,0,0
129,0.069333,0.34504,0.033074,0,0,0,0
129.5,0.069917,0.34549,0.033411,0,0,0,0
130,0.070421,0.34596,0.033634,0,0,0,0
130.5,0.071027,0.34643,0.03425,0,0,0,0
131,0.071499,0.34688,0.034116,0,0,0,0
131.5,0.072092,0.34733,0.034795,0,0,0,0
132,0.072566,0.34779,0.034671,0,0,0,0
132.5,0.073151,0.34825,0.034905,0,0,0,0
133,0.07387,0.3487,0.035135,0,0,0,0
133.5,0.074317,0.34914,0.03588,0,0,0,0
134,0.074845,0.34959,0.036003,0,0,0,0
134.5,0.075421,0.35002,0.036447,0,0,0,0
135,0.076016,0.35043,0.036647,0,0,0,0
135.5,0.076564,0.35085,0.036829,0,0,0,0
136,0.077069,0.35128,0.036909,0,0,0,0
136.5,0.07774,0.3517,0.037497,0,0,0,0
137,0.07811,0.35211,0.037885,0,0,0,0
137.5,0.078645,0.35251,0.038124,0,0,0,0
138,0.07932,0.35292,0.038299,0,0,0,0
138.5,0.079832,0.35332,0.038345,0,0,0,0
139,0.080413,0.35373,0.038954,0,0,0,0
139.5,0.080967,0.35414,0.039225,0,0,0,0
140,0.081489,0.35454,0.039405,0,0,0,0
140.5,0.08208,0.35494,0.039933,0,0,0,0
141,0.082564,0.35534,0.040082,0,0,0,0
141.5,0.083135,0.35573,0.040469,0,0,0,0
142,0.083801,0.35613,0.040664,0,0,0,0
142.5,0.084373,0.35654,0.041287,0,0,0,0
143,0.085069,0.35693,0.041279,0,0,0,0
143.5,0.085427,0.3573,0.041534,0,0,0,0
144,0.086042,0.35767,0.041781,0,0,0,0
144.5,0.086588,0.35805,0.042166,0,0,0,0
145,0.087116,0.35844,0.042517,0,0,0,0
145.5,0.087653,0.35881,0.042826,0,0,0,0
146,0.08825,0.35918,0.042889,0,0,0,0
146.5,0.088789,0.35955,0.043232,0,0,0,0
147,0.089392,0.35991,0.043456,0,0,0,0
147.5,0.089904,0.36026,0.04379,0,0,0,0
148,0.090459,0.36061,0.044092,0,0,0,0
148.5,0.091042,0.36097,0.044351,0,0,0,0
149,0.091624,0.36133,0.044459,0,0,0,0
149.5,0.092179,0.36167,0.045006,0,0,0,0
150,0.09273,0.36203,0.045325,0,0,0,0
150.5,0.093338,0.36237,0.045546,0,0,0,0
151,0.093984,0.36272,0.045894,0,0,0,0
151.5,0.094424,0.36305,0.045987,0,0,0,0
152,0.095072,0.3634,0.046,0,0,0,0
152.5,0.095677,0.36376,0.046569,0,0,0,0
153,0.096104,0.3641,0.046625,0,0,0,0
153.5,0.096721,0.36442,0.046873,0,0,0,0
154,0.097301,0.36474,0.047063,0,0,0,0
154.5,0.097985,0.36508,0.04775,0,0,0,0
155,0.098524,0.36541,0.047682,0,0,0,0
155.5,0.099072,0.36573,0.047996,0,0,0,0
156,0.099518,0.36606,0.048308,0,0,0,0
156.5,0.10028,0.3664,0.048672,0,0,0,0
157,0.1008,0.36672,0.048826,0,0,0,0
157.5,0.10137,0.36704,0.048864,0,0,0,0
158,0.10197,0.36736,0.049245,0,0,0,0
158.5,0.10252,0.36768,0.049764,0,0,0,0
159,0.1032,0.368,0.050082,0,0,0,0
159.5,0.10372,0.36831,0.050291,0,0,0,0
160,0.10437,0.36862,0.050444,0,0,0,0
160.5,0.10491,0.36892,0.051109,0,0,0,0
161,0.10551,0.36924,0.051023,0,0,0,0
161.5,0.10608,0.36953,0.051133,0,0,0,0
162,0.10662,0.36982,0.051513,0,0,0,0
162.5,0.10724,0.37011,0.051973,0,0,0,0
163,0.10767,0.37042,0.051935,0,0,0,0
163.5,0.1082,0.3707,0.052363,0,0,0,0
164,0.10885,0.37098,0.0526,0,0,0,0
164.5,0.1094,0.37126,0.052586,0,0,0,0
165,0.11014,0.37154,0.053164,0,0,0,0
165.5,0.11071,0.37182,0.053292,0,0,0,0
166,0.1111,0.37209,0.053586,0,0,0,0
166.5,0.11197,0.37237,0.054027,0,0,0,0
167,0.11213,0.37265,0.05415,0,0,0,0
167.5,0.11287,0.37293,0.054306,0,0,0,0
168,0.11343,0.37322,0.054425,0,0,0,0
168.5,0.114,0.37351,0.054898,0,0,0,0
169,0.11479,0.3738,0.055125,0,0,0,0
169.5,0.11529,0.37407,0.055423,0,0,0,0
170,0.11591,0.37433,0.056185,0,0,0,0
170.5,0.11653,0.37461,0.056303,0,0,0,0
171,0.11705,0.37489,0.05686,0,0,0,0
171.5,0.11759,0.37515,0.056652,0,0,0,0
172,0.1182,0.37541,0.057191,0,0,0,0
172.5,0.11852,0.37568,0.057436,0,0,0,0
173,0.11929,0.37593,0.057913,0,0,0,0
173.5,0.11997,0.37619,0.058314,0,0,0,0
174,0.12052,0.37645,0.058319,0,0,0,0
174.5,0.12111,0.3767,0.058592,0,0,0,0
175,0.12175,0.37694,0.0588,0,0,0,0
175.5,0.12229,0.37718,0.059252,0,0,0,0
176,0.12283,0.37744,0.059578,0,0,0,0
176.5,0.1235,0.37769,0.059794,0,0,0,0
177,0.12403,0.37793,0.060185,0,0,0,0
177.5,0.12453,0.37817,0.060463,0,0,0,0
178,0.12522,0.37841,0.060759,0,0,0,0
178.5,0.12576,0.37866,0.061013,0,0,0,0
179,0.1263,0.3789,0.061611,0,0,0,0
179.5,0.12706,0.37916,0.061756,0,0,0,0
180,0.12755,0.37941,0.061954,0,0,0,0
180.5,0.12811,0.37965,0.062156,0,0,0,0
181,0.12877,0.37989,0.062757,0,0,0,0
181.5,0.12942,0.38012,0.062959,0,0,0,0
182,0.12994,0.38035,0.063217,0,0,0,0
182.5,0.13049,0.38059,0.063574,0,0,0,0
183,0.13104,0.38081,0.063837,0,0,0,0
183.5,0.13178,0.38104,0.06439,0,0,0,0
184,0.13226,0.38126,0.064503,0,0,0,0
184.5,0.13296,0.38148,0.064962,0,0,0,0
185,0.13343,0.3817,0.065191,0,0,0,0
185.5,0.13407,0.38192,0.065627,0,0,0,0
186,0.13472,0.38214,0.065903,0,0,0,0
186.5,0.13525,0.38235,0.066591,0,0,0,0
187,0.13601,0.38256,0.066343,0,0,0,0
187.5,0.13644,0.38278,0.06711,0,0,0,0
188,0.13712,0.383,0.06711,0,0,0,0
188.5,0.13768,0.38321,0.067302,0,0,0,0
189,0.13835,0.38343,0.067924,0,0,0,0
189.5,0.13892,0.38366,0.067751,0,0,0,0
190,0.13948,0.38388,0.068325,0,0,0,0
190.5,0.14003,0.38409,0.068848,0,0,0,0
191,0.14067,0.3843,0.068923,0,0,0,0
191.5,0.14126,0.38451,0.069497,0,0,0,0
192,0.14189,0.38471,0.069581,0,0,0,0
192.5,0.14254,0.38492,0.069958,0,0,0,0
193,0.14307,0.38513,0.070369,0,0,0,0
193.5,0.14362,0.38533,0.070877,0,0,0,0
194,0.14427,0.38553,0.071501,0,0,0,0
194.5,0.14494,0.38573,0.071528,0,0,0,0
195,0.14548,0.38592,0.071659,0,0,0,0
195.5,0.14607,0.38611,0.072217,0,0,0,0
196,0.14679,0.38631,0.072375,0,0,0,0
196.5,0.14712,0.38651,0.072915,0,0,0,0
197,0.14788,0.38671,0.073026,0,0,0,0
197.5,0.14846,0.38688,0.073932,0,0,0,0
198,0.14902,0.38707,0.074123,0,0,0,0
198.5,0.14972,0.38725,0.074619,0,0,0,0
199,0.1502,0.38744,0.074745,0,0,0,0
199.5,0.151,0.38762,0.075032,0,0,0,0
200,0.15145,0.38781,0.075973,0,0,0,0
200.5,0.15211,0.388,0.076029,0,0,0,0
201,0.1526,0.38818,0.076571,0,0,0,0
201.5,0.15331,0.38836,0.076955,0,0,0,0
202,0.15385,0.38854,0.077455,0,0,0,0
202.5,0.15453,0.38873,0.077714,0,0,0,0
203,0.15508,0.38891,0.078001,0,0,0,0
203.5,0.1556,0.38908,0.078302,0,0,0,0
204,0.15627,0.38926,0.078829,0,0,0,0
204.5,0.15682,0.38943,0.079305,0,0,0,0
205,0.15757,0.3896,0.07942,0,0,0,0
205.5,0.15809,0.38977,0.080094,0,0,0,0
206,0.15868,0.38994,0.079873,0,0,0,0
206.5,0.1592,0.3901,0.080708,0,0,0,0
207,0.15978,0.39026,0.081141,0,0,0,0
207.5,0.16048,0.39042,0.081478,0,0,0,0
208,0.16119,0.39058,0.082266,0,0,0,0
208.5,0.16176,0.39074,0.082445,0,0,0,0
209,0.16238,0.39091,0.082722,0,0,0,0
209.5,0.16308,0.39106,0.083274,0,0,0,0
210,0.16371,0.39122,0.083416,0,0,0,0
210.5,0.1642,0.39137,0.083968,0,0,0,0
211,0.16489,0.39154,0.084074,0,0,0,0
211.5,0.16539,0.39169,0.084644,0,0,0,0
212,0.16593,0.39184,0.084952,0,0,0,0
212.5,0.16662,0.39198,0.085746,0,0,0,0
213,0.1673,0.39213,0.086003,0,0,0,0
213.5,0.16783,0.39227,0.08664,0,0,0,0
214,0.16843,0.39241,0.086773,0,0,0,0
214.5,0.16909,0.39255,0.087268,0,0,0,0
215,0.16966,0.39269,0.087969,0,0,0,0
215.5,0.17031,0.39284,0.088267,0,0,0,0
216,0.17093,0.39297,0.088587,0,0,0,0
216.5,0.17173,0.39311,0.088821,0,0,0,0
217,0.17217,0.39325,0.090051,0,0,0,0
217.5,0.17277,0.39338,0.089589,0,0,0,0
218,0.17334,0.39351,0.090247,0,0,0,0
218.5,0.17384,0.39364,0.090841,0,0,0,0
219,0.17458,0.39378,0.091124,0,0,0,0
219.5,0.17507,0.3939,0.091489,0,0,0,0
220,0.1757,0.39404,0.0919,0,0,0,0
220.5,0.17636,0.39417,0.092333,0,0,0,0
221,0.17699,0.39431,0.092948,0,0,0,0
221.5,0.17754,0.39444,0.093135,0,0,0,0
222,0.17812,0.39458,0.093531,0,0,0,0
222.5,0.17876,0.39471,0.093982,0,0,0,0
223,0.17938,0.39484,0.094455,0,0,0,0
223.5,0.17994,0.39496,0.094946,0,0,0,0
224,0.18055,0.39508,0.095415,0,0,0,0
224.5,0.18115,0.39521,0.095792,0,0,0,0
225,0.18173,0.39534,0.096219,0,0,0,0
225.5,0.18237,0.39546,0.096705,0,0,0,0
226,0.18309,0.39558,0.096904,0,0,0,0
226.5,0.18358,0.3957,0.09773,0,0,0,0
227,0.18431,0.39583,0.098066,0,0,0,0
227.5,0.1847,0.39596,0.098451,0,0,0,0
228,0.18536,0.39608,0.099008,0,0,0,0
228.5,0.18609,0.3962,0.099248,0,0,0,0
229,0.18671,0.39632,0.099714,0,0,0,0
229.5,0.18704,0.39644,0.10018,0,0,0,0
230,0.18782,0.39655,0.1009,0,0,0,0
230.5,0.18843,0.39666,0.10113,0,0,0,0
231,0.18904,0.39677,0.10164,0,0,0,0
231.5,0.18954,0.39688,0.1022,0,0,0,0
232,0.19022,0.397,0.10304,0,0,0,0
232.5,0.19091,0.3971,0.10321,0,0,0,0
233,0.19177,0.3972,0.10399,0,0,0,0
233.5,0.19203,0.3973,0.10409,0,0,0,0
234,0.19284,0.39742,0.10481,0,0,0,0
234.5,0.19311,0.39753,0.10515,0,0,0,0
235,0.19408,0.39764,0.10592,0,0,0,0
235.5,0.19465,0.39774,0.10601,0,0,0,0
236,0.19528,0.39785,0.10675,0,0,0,0
236.5,0.19594,0.39796,0.1073,0,0,0,0
237,0.19652,0.39807,0.10766,0,0,0,0
237.5,0.19712,0.39817,0.1081,0,0,0,0
238,0.19773,0.39827,0.10856,0,0,0,0
238.5,0.19832,0.39837,0.10913,0,0,0,0
239,0.19893,0.39847,0.10977,0,0,0,0
239.5,0.19954,0.39856,0.11008,0,0,0,0
240,0.2002,0.39865,0.11033,0,0,0,0
240.5,0.20091,0.39875,0.11115,0,0,0,0
241,0.20143,0.39884,0.1113,0,0,0,0
241.5,0.20208,0.39894,0.11215,0,0,0,0
242,0.20273,0.39902,0.11254,0,0,0,0
242.5,0.20336,0.39911,0.11308,0,0,0,0
243,0.20397,0.39919,0.11367,0,0,0,0
243.5,0.20448,0.39928,0.11418,0,0,0,0
244,0.20516,0.39936,0.11472,0,0,0,0
244.5,0.20584,0.39945,0.11549,0,0,0,0
245,0.20639,0.39953,0.11603,0,0,0,0
245.5,0.20733,0.39961,0.11683,0,0,0,0
246,0.2077,0.39969,0.11685,0,0,0,0
246.5,0.20836,0.39978,0.11769,0,0,0,0
247,0.20896,0.39986,0.11838,0,0,0,0
247.5,0.20955,0.39995,0.11908,0,0,0,0
248,0.2102,0.40003,0.11949,0,0,0,0
248.5,0.21064,0.40011,0.12018,0,0,0,0
249,0.21164,0.40018,0.12087,0,0,0,0
249.5,0.21243,0.40027,0.12168,0,0,0,0
250,0.21284,0.40034,0.12235,0,0,0,0
250.5,0.21336,0.40042,0.12288,0,0,0,0
251,0.21405,0.4005,0.12327,0,0,0,0
251.5,0.21465,0.40057,0.12435,0,0,0,0
252,0.2154,0.40064,0.12492,0,0,0,0
252.5,0.21587,0.40071,0.1255,0,0,0,0
253,0.21642,0.40078,0.12616,0,0,0,0
253.5,0.21711,0.40084,0.12709,0,0,0,0
254,0.21768,0.40091,0.12738,0,0,0,0
254.5,0.21846,0.40098,0.1281,0,0,0,0
255,0.21907,0.40105,0.12879,0,0,0,0
255.5,0.21972,0.40112,0.12932,0,0,0,0
256,0.22036,0.40118,0.13017,0,0,0,0
256.5,0.22102,0.40125,0.13046,0,0,0,0
257,0.22167,0.40131,0.13149,0,0,0,0
257.5,0.22222,0.40137,0.13204,0,0,0,0
258,0.22294,0.40143,0.13266,0,0,0,0
258.5,0.22339,0.40148,0.13348,0,0,0,0
259,0.22416,0.40154,0.13396,0,0,0,0
259.5,0.22487,0.40159,0.13464,0,0,0,0
260,0.2255,0.40163,0.13522,0,0,0,0
260.5,0.22603,0.40168,0.13617,0,0,0,0
261,0.22677,0.40172,0.13665,0,0,0,0
261.5,0.22732,0.40177,0.13751,0,0,0,0
262,0.22804,0.40183,0.13844,0,0,0,0
262.5,0.22852,0.40189,0.13893,0,0,0,0
263,0.22919,0.40194,0.13932,0,0,0,0
263.5,0.22992,0.40199,0.14047,0,0,0,0
264,0.23064,0.40204,0.14122,0,0,0,0
264.5,0.23118,0.4021,0.14233,0,0,0,0
265,0.2318,0.40215,0.14312,0,0,0,0
265.5,0.23256,0.40221,0.14389,0,0,0,0
266,0.23302,0.40226,0.14496,0,0,0,0
266.5,0.2337,0.40231,0.14555,0,0,0,0
267,0.23427,0.40236,0.14659,0,0,0,0
267.5,0.23494,0.4024,0.14746,0,0,0,0
268,0.23585,0.40244,0.14825,0,0,0,0
268.5,0.23631,0.40248,0.14918,0,0,0,0
269,0.23699,0.40251,0.15017,0,0,0,0
269.5,0.23756,0.40253,0.15122,0,0,0,0
270,0.23808,0.40256,0.15195,0,0,0,0
270.5,0.23871,0.4026,0.15336,0,0,0,0
271,0.23957,0.40263,0.15396,0,0,0,0
271.5,0.23996,0.40267,0.15497,0,0,0,0
272,0.24052,0.4027,0.15575,0,0,0,0
272.5,0.24144,0.40273,0.15649,0,0,0,0
273,0.24202,0.40276,0.15772,0,0,0,0
273.5,0.24268,0.40278,0.15874,0,0,0,0
274,0.24319,0.40281,0.15943,0,0,0,0
274.5,0.24397,0.40283,0.16031,0,0,0,0
275,0.24453,0.40286,0.16125,0,0,0,0
275.5,0.24513,0.40288,0.16245,0,0,0,0
276,0.2458,0.40291,0.16313,0,0,0,0
276.5,0.24647,0.40294,0.16388,0,0,0,0
277,0.24711,0.40297,0.16498,0,0,0,0
277.5,0.24766,0.40299,0.16593,0,0,0,0
278,0.24839,0.403,0.16692,0,0,0,0
278.5,0.24897,0.40301,0.16774,0,0,0,0
279,0.2496,0.40302,0.16841,0,0,0,0
279.5,0.25032,0.40303,0.16931,0,0,0,0
280,0.25097,0.40304,0.17021,0,0,0,0
280.5,0.2517,0.40305,0.17101,0,0,0,0
281,0.25224,0.40306,0.17193,0,0,0,0
281.5,0.25287,0.40308,0.17284,0,0,0,0
282,0.25352,0.4031,0.17362,0,0,0,0
282.5,0.25418,0.40312,0.17457,0,0,0,0
283,0.25489,0.40313,0.17532,0,0,0,0
283.5,0.25542,0.40314,0.17622,0,0,0,0
284,0.25615,0.40316,0.17693,0,0,0,0
284.5,0.25677,0.40317,0.17779,0,0,0,0
285,0.25744,0.40318,0.17857,0,0,0,0
285.5,0.25809,0.40319,0.17954,0,0,0,0
286,0.25876,0.40319,0.18031,0,0,0,0
286.5,0.25937,0.4032,0.181,0,0,0,0
287,0.26007,0.40321,0.18218,0,0,0,0
287.5,0.26065,0.40321,0.18293,0,0,0,0
288,0.2613,0.40321,0.18373,0,0,0,0
288.5,0.262,0.40322,0.18439,0,0,0,0
289,0.26256,0.40322,0.18507,0,0,0,0
289.5,0.26359,0.40322,0.18591,0,0,0,0
290,0.26382,0.40322,0.18678,0,0,0,0
290.5,0.26452,0.40322,0.18738,0,0,0,0
291,0.26516,0.40321,0.18823,0,0,0,0
291.5,0.26585,0.40321,0.18889,0,0,0,0
292,0.26657,0.4032,0.19,0,0,0,0
292.5,0.26718,0.40319,0.19086,0,0,0,0
293,0.26777,0.40318,0.19114,0,0,0,0
293.5,0.26847,0.40317,0.19223,0,0,0,0
294,0.26904,0.40316,0.19308,0,0,0,0
294.5,0.26963,0.40315,0.19388,0,0,0,0
295,0.27048,0.40314,0.19478,0,0,0,0
295.5,0.27111,0.40313,0.19536,0,0,0,0
296,0.27174,0.40313,0.19633,0,0,0,0
296.5,0.27245,0.40312,0.19717,0,0,0,0
297,0.273,0.40311,0.19802,0,0,0,0
297.5,0.27361,0.40311,0.19916,0,0,0,0
298,0.27435,0.4031,0.19983,0,0,0,0
298.5,0.27499,0.40309,0.20076,0,0,0,0
299,0.27558,0.40308,0.20167,0,0,0,0
299.5,0.27622,0.40307,0.20234,0,0,0,0
300,0.27694,0.40306,0.20333,0,0,0,0
300.5,0.2775,0.40304,0.20419,0,0,0,0
301,0.27815,0.40303,0.2053,0,0,0,0
301.5,0.27894,0.40302,0.20639,0,0,0,0
302,0.27952,0.40301,0.20695,0,0,0,0
302.5,0.28023,0.403,0.20805,0,0,0,0
303,0.28071,0.40299,0.20865,0,0,0,0
303.5,0.28153,0.40297,0.21005,0,0,0,0
304,0.28222,0.40296,0.21094,0,0,0,0
304.5,0.28278,0.40295,0.21162,0,0,0,0
305,0.28339,0.40294,0.21266,0,0,0,0
305.5,0.28414,0.40293,0.21358,0,0,0,0
306,0.28474,0.40291,0.21473,0,0,0,0
306.5,0.28545,0.4029,0.2157,0,0,0,0
307,0.28608,0.40289,0.21632,0,0,0,0
307.5,0.28664,0.40288,0.21737,0,0,0,0
308,0.28732,0.40287,0.21847,0,0,0,0
308.5,0.28809,0.40286,0.21933,0,0,0,0
309,0.28868,0.40285,0.22024,0,0,0,0
309.5,0.28936,0.40284,0.22137,0,0,0,0
310,0.29008,0.40283,0.22272,0,0,0,0
310.5,0.29063,0.40282,0.22336,0,0,0,0
311,0.29128,0.4028,0.22428,0,0,0,0
311.5,0.29198,0.40278,0.22545,0,0,0,0
312,0.29267,0.40276,0.22622,0,0,0,0
312.5,0.29328,0.40275,0.22694,0,0,0,0
313,0.29391,0.40273,0.22839,0,0,0,0
313.5,0.29455,0.40271,0.22938,0,0,0,0
314,0.29527,0.40269,0.23034,0,0,0,0
314.5,0.29591,0.40268,0.23138,0,0,0,0
315,0.29645,0.40267,0.2325,0,0,0,0
315.5,0.29711,0.40265,0.23322,0,0,0,0
316,0.29782,0.40264,0.2343,0,0,0,0
316.5,0.29852,0.40262,0.23532,0,0,0,0
317,0.29918,0.4026,0.23662,0,0,0,0
317.5,0.29981,0.40259,0.23763,0,0,0,0
318,0.30049,0.40257,0.2387,0,0,0,0
318.5,0.30116,0.40255,0.23968,0,0,0,0
319,0.30184,0.40254,0.24073,0,0,0,0
319.5,0.30248,0.40253,0.24193,0,0,0,0
320,0.30318,0.40251,0.243,0,0,0,0
320.5,0.30387,0.40249,0.24396,0,0,0,0
321,0.30438,0.40247,0.24508,0,0,0,0
321.5,0.30475,0.40245,0.24646,0,0,0,0
322,0.30574,0.40243,0.24741,0,0,0,0
322.5,0.30647,0.40241,0.24865,0,0,0,0
323,0.30719,0.4024,0.24983,0,0,0,0
323.5,0.3078,0.40238,0.2508,0,0,0,0
324,0.30857,0.40236,0.25206,0,0,0,0
324.5,0.3091,0.40234,0.25299,0,0,0,0
325,0.3099,0.40232,0.25427,0,0,0,0
325.5,0.3106,0.40231,0.25561,0,0,0,0
326,0.31114,0.40229,0.25657,0,0,0,0
326.5,0.31182,0.40227,0.25773,0,0,0,0
327,0.31255,0.40225,0.259,0,0,0,0
327.5,0.31316,0.40224,0.25988,0,0,0,0
328,0.31384,0.40222,0.26108,0,0,0,0
328.5,0.31447,0.40221,0.26245,0,0,0,0
329,0.31519,0.40219,0.26351,0,0,0,0
329.5,0.31587,0.40217,0.26491,0,0,0,0
330,0.31642,0.40215,0.26608,0,0,0,0
330.5,0.31716,0.40213,0.26728,0,0,0,0
331,0.31778,0.4021,0.26842,0,0,0,0
331.5,0.31881,0.40208,0.26995,0,0,0,0
332,0.31899,0.40206,0.27109,0,0,0,0
332.5,0.31999,0.40204,0.27192,0,0,0,0
333,0.32056,0.40201,0.27342,0,0,0,0
333.5,0.32121,0.40198,0.2748,0,0,0,0
334,0.32186,0.40195,0.27603,0,0,0,0
334.5,0.3225,0.40192,0.27733,0,0,0,0
335,0.32309,0.4019,0.27862,0,0,0,0
335.5,0.32382,0.40187,0.27995,0,0,0,0
336,0.32446,0.40184,0.28139,0,0,0,0
336.5,0.32515,0.40181,0.28264,0,0,0,0
337,0.32605,0.40179,0.2843,0,0,0,0
337.5,0.32661,0.40176,0.28556,0,0,0,0
338,0.32728,0.40174,0.28705,0,0,0,0
338.5,0.32792,0.40171,0.28879,0,0,0,0
339,0.32859,0.40168,0.29018,0,0,0,0
339.5,0.32922,0.40165,0.29171,0,0,0,0
340,0.32999,0.40161,0.29308,0,0,0,0
340.5,0.33049,0.40158,0.29467,0,0,0,0
341,0.33105,0.40155,0.29636,0,0,0,0
341.5,0.33198,0.40153,0.29804,0,0,0,0
342,0.33262,0.4015,0.29962,0,0,0,0
342.5,0.33352,0.40146,0.30134,0,0,0,0
343,0.33414,0.40143,0.3028,0,0,0,0
343.5,0.33469,0.4014,0.3045,0,0,0,0
344,0.3352,0.40136,0.306,0,0,0,0
344.5,0.33612,0.40132,0.30766,0,0,0,0
345,0.33679,0.40127,0.30952,0,0,0,0
345.5,0.33749,0.40122,0.31126,0,0,0,0
346,0.33822,0.40117,0.31317,0,0,0,0
346.5,0.33877,0.40113,0.31467,0,0,0,0
347,0.33949,0.40108,0.31645,0,0,0,0
347.5,0.3402,0.40103,0.31793,0,0,0,0
348,0.34092,0.40097,0.31987,0,0,0,0
348.5,0.34152,0.40092,0.32124,0,0,0,0
349,0.34236,0.40086,0.32322,0,0,0,0
349.5,0.34296,0.40081,0.32477,0,0,0,0
350,0.34362,0.40075,0.32697,0,0,0,0
350.5,0.34432,0.40069,0.32841,0,0,0,0
351,0.34498,0.40063,0.33054,0,0,0,0
351.5,0.34582,0.40057,0.33222,0,0,0,0
352,0.34648,0.40052,0.3337,0,0,0,0
352.5,0.34732,0.40045,0.3356,0,0,0,0
353,0.34788,0.40039,0.33751,0,0,0,0
353.5,0.34843,0.40032,0.33928,0,0,0,0
354,0.34927,0.40025,0.34114,0,0,0,0
354.5,0.34994,0.40018,0.34324,0,0,0,0
355,0.3506,0.40009,0.34524,0,0,0,0
355.5,0.35133,0.40001,0.34703,0,0,0,0
356,0.35199,0.39992,0.34879,0,0,0,0
356.5,0.35279,0.39983,0.35079,0,0,0,0
357,0.35349,0.39973,0.35314,0,0,0,0
357.5,0.35417,0.39963,0.35472,0,0,0,0
358,0.35491,0.39952,0.35681,0,0,0,0
358.5,0.35563,0.39941,0.35836,0,0,0,0
359,0.35638,0.39928,0.36031,0,0,0,0
359.5,0.35711,0.39916,0.3621,0,0,0,0
360,0.35789,0.39902,0.36385,0,0,0,0
360.5,0.35859,0.39888,0.36544,0,0,0,0
361,0.35928,0.39873,0.36731,0,0,0,0
361.5,0.36009,0.39858,0.36889,0,0,0,0
362,0.36075,0.39843,0.37052,0,0,0,0
362.5,0.36155,0.39827,0.37189,0,0,0,0
363,0.36238,0.3981,0.37354,0,0,0,0
363.5,0.36307,0.39792,0.37515,0,0,0,0
364,0.36388,0.39774,0.3768,0,0,0,0
364.5,0.3646,0.39754,0.37865,0,0,0,0
365,0.36539,0.39735,0.3801,0,0,0,0
365.5,0.36613,0.39715,0.38174,0,0,0,0
366,0.36691,0.39693,0.38358,0,0,0,0
366.5,0.36771,0.39671,0.38546,0,0,0,0
367,0.36844,0.39648,0.38744,0,0,0,0
367.5,0.36925,0.39625,0.38921,0,0,0,0
368,0.36998,0.39601,0.39096,0,0,0,0
368.5,0.37076,0.39576,0.3931,0,0,0,0
369,0.37147,0.39552,0.39511,0,0,0,0
369.5,0.37227,0.39526,0.39746,0,0,0,0
370,0.37308,0.39498,0.39949,0,0,0,0
370.5,0.37382,0.39471,0.40175,0,0,0,0
371,0.37451,0.39444,0.404,0,0,0,0
371.5,0.37539,0.39415,0.40645,0,0,0,0
372,0.37615,0.39384,0.40864,0,0,0,0
372.5,0.3768,0.39353,0.41093,0,0,0,0
373,0.37772,0.39322,0.41319,0,0,0,0
373.5,0.37831,0.3929,0.41537,0,0,0,0
374,0.37915,0.39258,0.41748,0,0,0,0
374.5,0.37975,0.39224,0.41942,0,0,0,0
375,0.38046,0.39189,0.42136,0,0,0,0
375.5,0.38133,0.39153,0.42322,0,0,0,0
376,0.38203,0.39116,0.42525,0,0,0,0
376.5,0.38296,0.39078,0.42744,0,0,0,0
377,0.38377,0.3904,0.42907,0,0,0,0
377.5,0.38438,0.39001,0.43092,0,0,0,0
378,0.38511,0.38961,0.43284,0,0,0,0
378.5,0.38584,0.38922,0.43469,0,0,0,0
379,0.38668,0.38883,0.43656,0,0,0,0
379.5,0.38734,0.38842,0.43853,0,0,0,0
380,0.38815,0.38799,0.44024,0,0,0,0
380.5,0.38889,0.38757,0.44223,0,0,0,0
381,0.3897,0.38715,0.44454,0,0,0,0
381.5,0.39034,0.38673,0.44666,0,0,0,0
382,0.39099,0.3863,0.44861,0,0,0,0
382.5,0.39178,0.38585,0.45093,0,0,0,0
383,0.39259,0.38538,0.45313,0,0,0,0
383.5,0.39338,0.3849,0.45523,0,0,0,0
384,0.39391,0.38444,0.45741,0,0,0,0
384.5,0.39475,0.38398,0.45915,0,0,0,0
385,0.39538,0.38351,0.46149,0,0,0,0
385.5,0.39631,0.38303,0.4635,0,0,0,0
386,0.39673,0.38255,0.46557,0,0,0,0
386.5,0.39787,0.38206,0.46764,0,0,0,0
387,0.39845,0.38154,0.4693,0,0,0,0
387.5,0.39921,0.38103,0.47121,0,0,0,0
388,0.40015,0.38052,0.47296,0,0,0,0
388.5,0.40086,0.38,0.47501,0,0,0,0
389,0.40145,0.37944,0.47678,0,0,0,0
389.5,0.40219,0.37889,0.47889,0,0,0,0
390,0.40304,0.37834,0.48062,0,0,0,0
390.5,0.40375,0.37778,0.48266,0,0,0,0
391,0.40446,0.37721,0.4847,0,0,0,0
391.5,0.40508,0.37664,0.48657,0,0,0,0
392,0.40595,0.37606,0.48872,0,0,0,0
392.5,0.40672,0.37546,0.49084,0,0,0,0
393,0.40753,0.37484,0.49288,0,0,0,0
393.5,0.40825,0.3742,0.49481,0,0,0,0
394,0.40903,0.37356,0.49679,0,0,0,0
394.5,0.4098,0.37292,0.49879,0,0,0,0
395,0.41051,0.37228,0.50119,0,0,0,0
395.5,0.41121,0.37162,0.50322,0,0,0,0
396,0.41207,0.37094,0.50527,0,0,0,0
396.5,0.41279,0.37024,0.50723,0,0,0,0
397,0.41347,0.36956,0.50933,0,0,0,0
397.5,0.41435,0.36886,0.5115,0,0,0,0
398,0.41516,0.36813,0.5135,0,0,0,0
398.5,0.41591,0.36739,0.51565,0,0,0,0
399,0.41665,0.36667,0.51768,0,0,0,0
399.5,0.41741,0.36592,0.51956,0,0,0,0
400,0.41823,0.36514,0.52187,0,0,0,0
400.5,0.41913,0.36433,0.52401,0,0,0,0
401,0.41981,0.36352,0.52614,0,0,0,0
401.5,0.42065,0.36269,0.52826,0,0,0,0
402,0.42156,0.36186,0.53071,0,0,0,0
402.5,0.42233,0.36098,0.53297,0,0,0,0
403,0.42355,0.36,0.53572,0,0,0,0
403.5,0.42375,0.35896,0.53821,0,0,0,0
404,0.42506,0.35787,0.54147,0,0,0,0
404.5,0.42653,0.35678,0.54615,0,0,0,0