File: Template_Auto_Cali_large_DP600/_results/NT6_00_4.csv
Time[s],Displacement[mm],Force[kN],AxStrain_1,AxStrain_2,Thickness[mm],OuterWidth[mm],InnerWidth[mm]
0,0,0.0017725,0,0,0.14143,2,1
0.501,7.6631e-05,0.0018016,-0.00018733,0,0,0,0
1,0.0001205,0.0018329,-0.00018468,0,0,0,0
1.501,0.00052275,0.00188,0.00063544,0,0,0,0
2.001,6.2231e-05,0.00193,0.00063122,0,0,0,0
2.5,0.00013378,0.0019743,0.00051003,0,0,0,0
3.001,3.0984e-05,0.0020186,0.00035847,0,0,0,0
3.5,0.00019658,0.0020671,0.0004896,0,0,0,0
4,0.0001472,0.00212,-3.3394e-05,0,0,0,0
4.5,0.00015498,0.0021614,-9.4373e-06,0,0,0,0
5.001,0.00025281,0.00219,0.00033764,0,0,0,0
5.5,0.00022548,0.0022043,-0.00031672,0,0,0,0
6.001,0.00023001,0.00221,9.1201e-05,0,0,0,0
6.501,0.00015996,0.0022157,-0.0002494,0,0,0,0
7,0.00023468,0.0022243,-0.00032117,0,0,0,0
7.501,0.00021127,0.0022329,-0.00046145,0,0,0,0
8,0.00021612,0.00224,-0.00046584,0,0,0,0
8.501,0.00017455,0.0022529,0.00039478,0,0,0,0
9,0.00021664,0.0022671,5.2841e-05,0,0,0,0
9.501,0.00018475,0.0022829,0.00060656,0,0,0,0
10.001,0.00030685,0.0023,0.00059662,0,0,0,0
10.501,0.00015707,0.00232,0.00055425,0,0,0,0
11,0.00023348,0.00234,0.00057055,0,0,0,0
11.5,0.00019106,0.0023571,0.00047083,0,0,0,0
12,0.00020252,0.0023757,6.045e-05,0,0,0,0
12.5,0.00021133,0.0023971,0.00071804,0,0,0,0
13,0.00025985,0.0024229,0.0002599,0,0,0,0
13.5,0.0002776,0.0024471,0.00042093,0,0,0,0
14,0.00021786,0.0024729,0.00042631,0,0,0,0
14.5,0.00021585,0.0025,0.00069226,0,0,0,0
15,0.00014341,0.0025271,0.00066062,0,0,0,0
15.501,0.00014664,0.0025557,0.00067281,0,0,0,0
16,0.00015352,0.0025871,0.00075557,0,0,0,0
16.501,0.00025577,0.00262,0.00053203,0,0,0,0
17.001,0.00018044,0.0026529,0.0010509,0,0,0,0
17.501,0.00012849,0.00269,0.00065112,0,0,0,0
18,9.4655e-05,0.0027329,0.00074757,0,0,0,0
18.5,0.00025283,0.0027829,0.00051555,0,0,0,0
19,0.00019817,0.00284,0.00081537,0,0,0,0
19.501,0.00017042,0.0029029,0.0010424,0,0,0,0
20,0.0002131,0.0029729,0.00092183,0,0,0,0
20.5,0.00022789,0.0030471,0.00067338,0,0,0,0
21.001,0.00022695,0.0031229,0.00061925,0,0,0,0
21.501,0.00020159,0.0032,0.00035017,0,0,0,0
22.001,0.00018956,0.0032857,0.00047018,0,0,0,0
22.5,0.00023795,0.0033771,0.00090168,0,0,0,0
23,0.0002487,0.0034872,0.0004693,0,0,0,0
23.5,0.00021153,0.0036257,6.9516e-06,0,0,0,0
24,0.00022583,0.0037871,-2.2816e-05,0,0,0,0
24.501,0.00023488,0.0039672,0.00017544,0,0,0,0
25.001,0.00028388,0.0041843,0.00054075,0,0,0,0
25.5,0.00028381,0.0044257,0.00087314,0,0,0,0
26,0.00026029,0.0046772,0.00061313,0,0,0,0
26.5,0.00021943,0.00494,-0.00046921,0,0,0,0
27.001,0.0002571,0.0052085,8.0268e-05,0,0,0,0
27.501,0.00026539,0.0054686,2.9166e-05,0,0,0,0
28.001,0.000269,0.0057271,0.00020432,0,0,0,0
28.5,0.00030592,0.0059814,0.00024743,0,0,0,0
29,0.00023216,0.0062257,0.00025191,0,0,0,0
29.5,0.00037449,0.0064671,0.00033943,0,0,0,0
30,0.00037052,0.0066985,2.3323e-05,0,0,0,0
30.501,0.00040292,0.0069272,0.00028629,0,0,0,0
31,0.00034137,0.0071557,0.00044365,0,0,0,0
31.501,0.00036748,0.0073857,0.00043045,0,0,0,0
32.001,0.00050548,0.00761,0.001019,0,0,0,0
32.501,0.00046201,0.0078429,0.0006215,0,0,0,0
33,0.00043148,0.0080714,0.0010437,0,0,0,0
33.5,0.00052774,0.0082986,0.00096862,0,0,0,0
34,0.00047845,0.0085357,0.0015621,0,0,0,0
34.5,0.00049248,0.0087814,0.0014738,0,0,0,0
35.001,0.00055699,0.0090286,0.0012253,0,0,0,0
35.5,0.00045319,0.00928,0.0012555,0,0,0,0
36,0.00060424,0.0095257,0.0012778,0,0,0,0
36.501,0.00054132,0.0097643,0.00084094,0,0,0,0
37.001,0.00073689,0.01001,0.00095832,0,0,0,0
37.5,0.00064613,0.010264,0.00061463,0,0,0,0
38.001,0.00058269,0.010519,0.00047599,0,0,0,0
38.501,0.00062948,0.01078,0.0007909,0,0,0,0
39.001,0.00072694,0.011039,0.00067681,0,0,0,0
39.5,0.00073829,0.011297,0.0007864,0,0,0,0
40.001,0.00077178,0.01157,0.0010669,0,0,0,0
40.5,0.00073017,0.011854,0.0010941,0,0,0,0
41.001,0.00074171,0.01213,0.00098501,0,0,0,0
41.5,0.00069805,0.012411,0.00078495,0,0,0,0
42,0.00078138,0.012707,0.0010847,0,0,0,0
42.5,0.00071886,0.01301,0.0012145,0,0,0,0
43,0.00079069,0.013316,0.00087038,0,0,0,0
43.5,0.00078973,0.013627,0.0011435,0,0,0,0
44,0.00079025,0.013946,0.0011291,0,0,0,0
44.5,0.00085018,0.014276,0.0013112,0,0,0,0
45,0.00084616,0.014609,0.0012106,0,0,0,0
45.501,0.0009363,0.01495,0.0008037,0,0,0,0
46,0.00092045,0.015313,0.00041414,0,0,0,0
46.501,0.00093016,0.015689,0.0013304,0,0,0,0
47.001,0.0010026,0.016056,0.00045715,0,0,0,0
47.501,0.00098611,0.016429,0.0011212,0,0,0,0
48,0.0012071,0.016814,0.001181,0,0,0,0
48.5,0.0010416,0.0172,0.00089986,0,0,0,0
49,0.0011248,0.017594,0.0010846,0,0,0,0
49.5,0.0010717,0.017999,0.0016281,0,0,0,0
50,0.0012549,0.018411,0.00089167,0,0,0,0
50.5,0.0011187,0.018824,0.0016353,0,0,0,0
51,0.0011623,0.019254,0.0013021,0,0,0,0
51.5,0.0011785,0.019689,0.0014357,0,0,0,0
52.001,0.0012115,0.020131,0.0013437,0,0,0,0
52.501,0.0012325,0.020574,0.0016118,0,0,0,0
53,0.0012312,0.021029,0.001203,0,0,0,0
53.5,0.0012748,0.021496,0.0011723,0,0,0,0
54,0.0012685,0.02196,0.00094096,0,0,0,0
54.5,0.0013363,0.022423,0.0013506,0,0,0,0
55,0.001401,0.02292,0.00045033,0,0,0,0
55.5,0.0014332,0.023436,0.00054257,0,0,0,0
56,0.0014746,0.023943,0.00087436,0,0,0,0
56.5,0.0014973,0.024441,0.00102,0,0,0,0
57,0.0015952,0.024953,0.0010512,0,0,0,0
57.5,0.0016427,0.025474,0.00078619,0,0,0,0
58,0.0015863,0.026011,0.00062721,0,0,0,0
58.5,0.0016734,0.026579,0.001274,0,0,0,0
59,0.0017801,0.027151,0.0013667,0,0,0,0
59.499,0.0017708,0.027716,0.0020353,0,0,0,0
60,0.0018481,0.028277,0.0021512,0,0,0,0
60.5,0.0018001,0.02887,0.0016337,0,0,0,0
61,0.0019181,0.029471,0.0011762,0,0,0,0
61.501,0.0019428,0.030057,0.0015406,0,0,0,0
62.001,0.0020198,0.030647,0.0015439,0,0,0,0
62.501,0.0019993,0.031243,0.0020316,0,0,0,0
63,0.0020755,0.031833,0.0011887,0,0,0,0
63.5,0.0021212,0.032424,0.001501,0,0,0,0
64,0.0021592,0.033051,0.00072967,0,0,0,0
64.5,0.0021999,0.033673,0.00089301,0,0,0,0
65,0.002267,0.034273,0.0002357,0,0,0,0
65.5,0.0022877,0.034859,0.00019774,0,0,0,0
66.001,0.0024072,0.035453,0.00072646,0,0,0,0
66.501,0.0024328,0.036054,0.00030155,0,0,0,0
67,0.0024748,0.03668,0.00047301,0,0,0,0
67.5,0.0025118,0.037311,0.00058657,0,0,0,0
68,0.002504,0.037944,0.00033262,0,0,0,0
68.501,0.0025883,0.038584,0.0014542,0,0,0,0
69,0.0026971,0.039219,0.0012151,0,0,0,0
69.5,0.0026782,0.039833,0.0011692,0,0,0,0
70,0.0028012,0.040451,0.00085935,0,0,0,0
70.5,0.0028302,0.04109,0.00086547,0,0,0,0
71.001,0.0028749,0.041709,0.00047685,0,0,0,0
71.5,0.0029764,0.042323,0.0010691,0,0,0,0
72,0.0029836,0.042927,0.0011227,0,0,0,0
72.5,0.0030538,0.043541,0.0011049,0,0,0,0
73,0.0031936,0.044157,0.00090905,0,0,0,0
73.5,0.0032885,0.044783,0.00085788,0,0,0,0
74,0.0033411,0.045397,0.0011164,0,0,0,0
74.5,0.0034251,0.046006,0.0014979,0,0,0,0
75,0.0034366,0.046624,0.00165,0,0,0,0
75.499,0.0035983,0.047233,0.001554,0,0,0,0
76,0.0036418,0.047841,0.001078,0,0,0,0
76.5,0.0036899,0.048436,0.0016455,0,0,0,0
77,0.0038024,0.049031,0.0015413,0,0,0,0
77.501,0.0038658,0.049619,0.0019495,0,0,0,0
78,0.0039683,0.050194,0.0011488,0,0,0,0
78.5,0.0041291,0.050764,0.0019235,0,0,0,0
79,0.0041661,0.051347,0.002045,0,0,0,0
79.5,0.0042123,0.051946,0.0017842,0,0,0,0
80,0.0043671,0.052536,0.0014055,0,0,0,0
80.5,0.0045138,0.053116,0.0017771,0,0,0,0
81,0.0046405,0.053673,0.0021053,0,0,0,0
81.5,0.0047214,0.054207,0.0021793,0,0,0,0
82,0.0048418,0.054731,0.0021967,0,0,0,0
82.5,0.0048801,0.055259,0.0016338,0,0,0,0
83,0.0050426,0.055783,0.002403,0,0,0,0
83.5,0.0051363,0.056294,0.0026923,0,0,0,0
84,0.0052672,0.056786,0.0030166,0,0,0,0
84.5,0.0053816,0.057256,0.002375,0,0,0,0
85,0.0055013,0.057726,0.0033597,0,0,0,0
85.5,0.0056858,0.058199,0.0030373,0,0,0,0
86,0.005856,0.058669,0.0028941,0,0,0,0
86.5,0.0059534,0.059134,0.0028389,0,0,0,0
87,0.0061137,0.05958,0.0025896,0,0,0,0
87.5,0.0061759,0.060019,0.0033715,0,0,0,0
88,0.0064225,0.060469,0.0030645,0,0,0,0
88.5,0.0065705,0.060904,0.0039266,0,0,0,0
89,0.0067421,0.061307,0.003371,0,0,0,0
89.5,0.0069361,0.061707,0.0038682,0,0,0,0
90,0.0070452,0.062109,0.003413,0,0,0,0
90.501,0.0072656,0.062499,0.0036322,0,0,0,0
91,0.0073882,0.062884,0.0033226,0,0,0,0
91.501,0.0075608,0.063253,0.0033758,0,0,0,0
92.001,0.0077693,0.063604,0.0044514,0,0,0,0
92.501,0.0079544,0.063949,0.003896,0,0,0,0
93,0.0081522,0.06429,0.0041489,0,0,0,0
93.5,0.0082985,0.064626,0.0043843,0,0,0,0
94.001,0.0084346,0.064967,0.003901,0,0,0,0
94.5,0.0087579,0.065301,0.0041726,0,0,0,0
95,0.0089162,0.065629,0.0049131,0,0,0,0
95.5,0.0090797,0.065954,0.0046343,0,0,0,0
96,0.0092933,0.066271,0.0045362,0,0,0,0
96.499,0.0094793,0.06657,0.004311,0,0,0,0
97,0.0096331,0.06686,0.0046035,0,0,0,0
97.5,0.0099012,0.067144,0.0046095,0,0,0,0
98,0.010098,0.067429,0.0048744,0,0,0,0
98.5,0.01035,0.067703,0.005627,0,0,0,0
99,0.010519,0.067974,0.004759,0,0,0,0
99.5,0.010734,0.068244,0.0057038,0,0,0,0
100,0.010997,0.068511,0.0053351,0,0,0,0
100.5,0.011245,0.068774,0.0058527,0,0,0,0
101,0.011437,0.069041,0.0061501,0,0,0,0
101.5,0.011483,0.069299,0.0061695,0,0,0,0
102,0.011786,0.069547,0.006674,0,0,0,0
102.5,0.012046,0.069801,0.0063748,0,0,0,0
103,0.012248,0.070049,0.0061489,0,0,0,0
103.5,0.012465,0.070287,0.0065677,0,0,0,0
104,0.012709,0.070523,0.0072997,0,0,0,0
104.5,0.0129,0.070756,0.0066902,0,0,0,0
105,0.013175,0.070983,0.0064922,0,0,0,0
105.5,0.013336,0.071211,0.0071216,0,0,0,0
106,0.013565,0.071436,0.0074908,0,0,0,0
106.5,0.013823,0.07166,0.0073459,0,0,0,0
107,0.014109,0.071879,0.0075555,0,0,0,0
107.5,0.014339,0.072089,0.0073603,0,0,0,0
108,0.014512,0.072303,0.0077296,0,0,0,0
108.5,0.014782,0.072524,0.0077997,0,0,0,0
109,0.014968,0.072743,0.0081192,0,0,0,0
109.5,0.015237,0.072957,0.0083641,0,0,0,0
110,0.015506,0.073176,0.0083748,0,0,0,0
110.5,0.015683,0.073391,0.0085886,0,0,0,0
111,0.015922,0.073603,0.0087403,0,0,0,0
111.5,0.016151,0.073807,0.0093373,0,0,0,0
112,0.016431,0.074004,0.0091046,0,0,0,0
112.5,0.016616,0.074193,0.0091169,0,0,0,0
113,0.01688,0.074383,0.00971,0,0,0,0
113.5,0.017117,0.074569,0.010127,0,0,0,0
114,0.017384,0.074751,0.0106,0,0,0,0
114.5,0.017607,0.074931,0.010668,0,0,0,0
115,0.017877,0.075113,0.011095,0,0,0,0
115.5,0.018084,0.075299,0.010576,0,0,0,0
116,0.018344,0.075486,0.010612,0,0,0,0
116.5,0.018561,0.075671,0.011201,0,0,0,0
117,0.01884,0.075857,0.011799,0,0,0,0
117.5,0.019134,0.076044,0.011374,0,0,0,0
118,0.019344,0.07622,0.011861,0,0,0,0
118.5,0.01963,0.076393,0.0119,0,0,0,0
119,0.019808,0.076573,0.01247,0,0,0,0
119.5,0.020094,0.076749,0.012868,0,0,0,0
120,0.020298,0.076916,0.013049,0,0,0,0
120.5,0.020549,0.077083,0.013871,0,0,0,0
121,0.020791,0.077254,0.012949,0,0,0,0
121.5,0.021032,0.077423,0.013678,0,0,0,0
122,0.021285,0.07759,0.014184,0,0,0,0
122.5,0.021537,0.077757,0.0144,0,0,0,0
123,0.021779,0.077923,0.014559,0,0,0,0
123.5,0.022051,0.07809,0.014497,0,0,0,0
124,0.022365,0.07826,0.013883,0,0,0,0
124.5,0.022521,0.07843,0.014652,0,0,0,0
125,0.022768,0.078591,0.014632,0,0,0,0
125.5,0.023077,0.078749,0.015159,0,0,0,0
126,0.023366,0.078907,0.014658,0,0,0,0
126.5,0.023585,0.079064,0.014883,0,0,0,0
127,0.023803,0.079219,0.015362,0,0,0,0
127.5,0.024117,0.079377,0.015112,0,0,0,0
128,0.02433,0.079534,0.014858,0,0,0,0
128.5,0.024567,0.079677,0.015711,0,0,0,0
129,0.024898,0.079816,0.015717,0,0,0,0
129.5,0.025063,0.07996,0.015892,0,0,0,0
130,0.025359,0.080113,0.015925,0,0,0,0
130.5,0.025576,0.08027,0.016148,0,0,0,0
131,0.025892,0.080427,0.016261,0,0,0,0
131.5,0.026115,0.080577,0.015954,0,0,0,0
132,0.02633,0.080726,0.016868,0,0,0,0
132.5,0.026584,0.080877,0.017346,0,0,0,0
133,0.026895,0.081027,0.017122,0,0,0,0
133.5,0.027116,0.08117,0.018666,0,0,0,0
134,0.027349,0.081307,0.018534,0,0,0,0
134.5,0.02758,0.081437,0.018725,0,0,0,0
135,0.027868,0.081566,0.018934,0,0,0,0
135.5,0.028172,0.081697,0.01967,0,0,0,0
136,0.028445,0.081827,0.019011,0,0,0,0
136.5,0.028604,0.081956,0.019083,0,0,0,0
137,0.028921,0.082087,0.019963,0,0,0,0
137.5,0.02922,0.082217,0.019318,0,0,0,0
138,0.029497,0.082346,0.019904,0,0,0,0
138.5,0.029775,0.082483,0.019638,0,0,0,0
139,0.029993,0.082624,0.02024,0,0,0,0
139.5,0.030269,0.082766,0.020389,0,0,0,0
140,0.030568,0.082899,0.020879,0,0,0,0
140.5,0.030788,0.083023,0.0216,0,0,0,0
141,0.031005,0.083146,0.022304,0,0,0,0
141.5,0.031272,0.083277,0.022326,0,0,0,0
142,0.031577,0.083404,0.02285,0,0,0,0
142.5,0.031856,0.083529,0.023558,0,0,0,0
143,0.032138,0.083651,0.023862,0,0,0,0
143.5,0.032403,0.08377,0.023624,0,0,0,0
144,0.032665,0.083886,0.023607,0,0,0,0
144.5,0.032905,0.08401,0.024393,0,0,0,0
145,0.033146,0.084134,0.023494,0,0,0,0
145.5,0.033486,0.084253,0.024618,0,0,0,0
146,0.033727,0.084364,0.025434,0,0,0,0
146.5,0.034039,0.084473,0.025566,0,0,0,0
147,0.034297,0.08458,0.025779,0,0,0,0
147.5,0.03457,0.084693,0.025409,0,0,0,0
148,0.034814,0.084804,0.025925,0,0,0,0
148.5,0.035121,0.084916,0.025359,0,0,0,0
149,0.035364,0.08503,0.026323,0,0,0,0
149.5,0.035676,0.085144,0.027017,0,0,0,0
150,0.035916,0.08525,0.027012,0,0,0,0
150.5,0.03617,0.085356,0.026937,0,0,0,0
151,0.03644,0.085464,0.026734,0,0,0,0
151.5,0.036721,0.085576,0.027576,0,0,0,0
152,0.036952,0.085681,0.028392,0,0,0,0
152.5,0.037242,0.085786,0.028441,0,0,0,0
153,0.037482,0.085887,0.028651,0,0,0,0
153.5,0.037774,0.08599,0.028169,0,0,0,0
154,0.037966,0.086093,0.028188,0,0,0,0
154.5,0.038291,0.086197,0.027882,0,0,0,0
155,0.038596,0.086303,0.028929,0,0,0,0
155.5,0.038829,0.086407,0.029521,0,0,0,0
156,0.039156,0.08651,0.029127,0,0,0,0
156.5,0.039433,0.08661,0.028802,0,0,0,0
157,0.039609,0.086707,0.029807,0,0,0,0
157.5,0.039894,0.086806,0.029149,0,0,0,0
158,0.040182,0.086904,0.029045,0,0,0,0
158.5,0.040435,0.086997,0.029849,0,0,0,0
159,0.040787,0.087083,0.029193,0,0,0,0
159.5,0.040991,0.08717,0.029618,0,0,0,0
160,0.041263,0.087257,0.029361,0,0,0,0
160.5,0.041558,0.087349,0.030631,0,0,0,0
161,0.041761,0.087444,0.029966,0,0,0,0
161.5,0.042051,0.08754,0.029982,0,0,0,0
162,0.042371,0.087633,0.029502,0,0,0,0
162.5,0.042638,0.087727,0.029794,0,0,0,0
163,0.042851,0.08782,0.030654,0,0,0,0
163.5,0.043217,0.087916,0.030356,0,0,0,0
164,0.043457,0.088011,0.031375,0,0,0,0
164.5,0.043712,0.0881,0.031129,0,0,0,0
165,0.044018,0.088183,0.030966,0,0,0,0
165.5,0.044258,0.088273,0.031434,0,0,0,0
166,0.044515,0.088364,0.031604,0,0,0,0
166.5,0.044884,0.088453,0.031977,0,0,0,0
167,0.045034,0.08854,0.032517,0,0,0,0
167.5,0.045404,0.088627,0.032466,0,0,0,0
168,0.04568,0.088713,0.03252,0,0,0,0
168.5,0.045894,0.0888,0.032669,0,0,0,0
169,0.046204,0.08889,0.033401,0,0,0,0
169.5,0.046571,0.08898,0.033524,0,0,0,0
170,0.046796,0.08907,0.033526,0,0,0,0
170.5,0.047108,0.089157,0.033907,0,0,0,0
171,0.047367,0.08924,0.034221,0,0,0,0
171.5,0.047664,0.089323,0.034775,0,0,0,0
172,0.047998,0.089407,0.035005,0,0,0,0
172.5,0.048211,0.089493,0.034997,0,0,0,0
173,0.048587,0.089571,0.035095,0,0,0,0
173.5,0.048758,0.089646,0.035185,0,0,0,0
174,0.04903,0.08972,0.036305,0,0,0,0
174.5,0.049336,0.089797,0.036605,0,0,0,0
175,0.049601,0.089873,0.035805,0,0,0,0
175.5,0.04987,0.08995,0.037344,0,0,0,0
176,0.0502,0.090021,0.037485,0,0,0,0
176.5,0.050453,0.090086,0.036974,0,0,0,0
177,0.050724,0.09015,0.0371,0,0,0,0
177.5,0.051021,0.090223,0.037678,0,0,0,0
178,0.051332,0.090297,0.038145,0,0,0,0
178.5,0.051596,0.090376,0.038653,0,0,0,0
179,0.05195,0.090454,NaN,0,0,0,0
179.5,0.052168,0.090536,NaN,0,0,0,0
180,0.052487,0.090617,NaN,0,0,0,0
180.5,0.052856,0.090703,NaN,0,0,0,0
181,0.053112,0.090787,NaN,0,0,0,0
181.5,0.053303,0.090867,NaN,0,0,0,0
182,0.053626,0.09094,NaN,0,0,0,0
182.5,0.053949,0.09101,NaN,0,0,0,0
183,0.054231,0.09108,NaN,0,0,0,0
183.5,0.054494,0.09115,NaN,0,0,0,0
184,0.054842,0.091223,NaN,0,0,0,0
184.5,0.055141,0.091297,NaN,0,0,0,0
185,0.055424,0.091367,NaN,0,0,0,0
185.5,0.055689,0.091433,NaN,0,0,0,0
186,0.055986,0.0915,NaN,0,0,0,0
186.5,0.056289,0.09157,NaN,0,0,0,0
187,0.056509,0.09164,NaN,0,0,0,0
187.5,0.056861,0.091707,NaN,0,0,0,0
188,0.057167,0.091773,NaN,0,0,0,0
188.5,0.057452,0.091837,NaN,0,0,0,0
189,0.05775,0.091903,NaN,0,0,0,0
189.5,0.057967,0.091973,NaN,0,0,0,0
190,0.058336,0.092044,NaN,0,0,0,0
190.5,0.058608,0.092113,NaN,0,0,0,0
191,0.058911,0.092174,NaN,0,0,0,0
191.5,0.059147,0.092239,NaN,0,0,0,0
192,0.05943,0.092307,NaN,0,0,0,0
192.5,0.059716,0.092377,NaN,0,0,0,0
193,0.060019,0.092443,NaN,0,0,0,0
193.5,0.06032,0.092507,NaN,0,0,0,0
194,0.060593,0.09257,NaN,0,0,0,0
194.5,0.060897,0.09263,NaN,0,0,0,0
195,0.061198,0.092687,NaN,0,0,0,0
195.5,0.061425,0.092743,NaN,0,0,0,0
196,0.06176,0.0928,NaN,0,0,0,0
196.5,0.062064,0.09286,NaN,0,0,0,0
197,0.062372,0.092917,NaN,0,0,0,0
197.5,0.062645,0.092976,NaN,0,0,0,0
198,0.062944,0.09304,NaN,0,0,0,0
198.5,0.06323,0.093104,NaN,0,0,0,0
199,0.063525,0.093166,NaN,0,0,0,0
199.5,0.063753,0.093227,NaN,0,0,0,0
200,0.064076,0.09329,NaN,0,0,0,0
200.5,0.064333,0.093347,NaN,0,0,0,0
201,0.064633,0.093403,NaN,0,0,0,0
201.5,0.06486,0.09346,NaN,0,0,0,0
202,0.065236,0.093523,NaN,0,0,0,0
202.5,0.065472,0.093587,NaN,0,0,0,0
203,0.065814,0.093647,NaN,0,0,0,0
203.5,0.066169,0.0937,NaN,0,0,0,0
204,0.066369,0.093747,NaN,0,0,0,0
204.5,0.066676,0.093796,NaN,0,0,0,0
205,0.066942,0.09385,NaN,0,0,0,0
205.5,0.067306,0.093907,NaN,0,0,0,0
206,0.067623,0.093957,NaN,0,0,0,0
206.5,0.067881,0.094003,NaN,0,0,0,0
207,0.068139,0.094053,NaN,0,0,0,0
207.5,0.068489,0.09411,NaN,0,0,0,0
208,0.068769,0.094179,NaN,0,0,0,0
208.5,0.06904,0.094254,NaN,0,0,0,0
209,0.069342,0.094327,NaN,0,0,0,0
209.5,0.06959,0.09439,NaN,0,0,0,0
210,0.06997,0.094447,NaN,0,0,0,0
210.5,0.070206,0.094503,NaN,0,0,0,0
211,0.070634,0.09456,NaN,0,0,0,0
211.5,0.070728,0.094617,NaN,0,0,0,0
212,0.071127,0.094667,NaN,0,0,0,0
212.5,0.071348,0.09471,NaN,0,0,0,0
213,0.071592,0.094753,NaN,0,0,0,0
213.5,0.071936,0.0948,NaN,0,0,0,0
214,0.07229,0.094853,NaN,0,0,0,0
214.5,0.072572,0.094907,NaN,0,0,0,0
215,0.072913,0.094957,NaN,0,0,0,0
215.5,0.073188,0.095003,NaN,0,0,0,0
216,0.073493,0.09505,NaN,0,0,0,0
216.5,0.07381,0.095097,NaN,0,0,0,0
217,0.074052,0.095146,NaN,0,0,0,0
217.5,0.074388,0.095197,NaN,0,0,0,0
218,0.074689,0.095247,NaN,0,0,0,0
218.5,0.075016,0.095293,NaN,0,0,0,0
219,0.075274,0.09534,NaN,0,0,0,0
219.5,0.07557,0.095387,NaN,0,0,0,0
220,0.075906,0.095436,NaN,0,0,0,0
220.5,0.076151,0.095487,NaN,0,0,0,0
221,0.076564,0.095537,NaN,0,0,0,0
221.5,0.076713,0.095583,NaN,0,0,0,0
222,0.077039,0.09563,NaN,0,0,0,0
222.5,0.077324,0.095674,NaN,0,0,0,0
223,0.0775,0.095716,NaN,0,0,0,0
223.5,0.077857,0.095757,NaN,0,0,0,0
224,0.078081,0.095797,NaN,0,0,0,0
224.5,0.078488,0.095833,NaN,0,0,0,0
225,0.078747,0.095867,NaN,0,0,0,0
225.5,0.07907,0.095903,NaN,0,0,0,0
226,0.079426,0.09594,NaN,0,0,0,0
226.5,0.079662,0.095977,NaN,0,0,0,0
227,0.079971,0.096013,NaN,0,0,0,0
227.5,0.080245,0.09605,NaN,0,0,0,0
228,0.080644,0.09609,NaN,0,0,0,0
228.5,0.08082,0.09613,NaN,0,0,0,0
229,0.081183,0.096173,NaN,0,0,0,0
229.5,0.08169,0.096217,NaN,0,0,0,0
230,0.081601,0.096257,NaN,0,0,0,0
230.5,0.082021,0.096296,NaN,0,0,0,0
231,0.082262,0.096337,NaN,0,0,0,0
231.5,0.082609,0.096377,NaN,0,0,0,0
232,0.082977,0.096416,NaN,0,0,0,0
232.5,0.083135,0.096454,NaN,0,0,0,0
233,0.083609,0.096493,NaN,0,0,0,0
233.5,0.083724,0.096527,NaN,0,0,0,0
234,0.084211,0.09656,NaN,0,0,0,0
234.5,0.084518,0.09659,NaN,0,0,0,0
235,0.08486,0.096623,NaN,0,0,0,0
235.5,0.08505,0.09666,NaN,0,0,0,0
236,0.085456,0.096697,NaN,0,0,0,0
236.5,0.085557,0.09673,NaN,0,0,0,0
237,0.085929,0.096766,NaN,0,0,0,0
237.5,0.086265,0.09681,NaN,0,0,0,0
238,0.086548,0.096857,NaN,0,0,0,0
238.5,0.0869,0.096903,NaN,0,0,0,0
239,0.087126,0.096944,NaN,0,0,0,0
239.5,0.08744,0.096983,NaN,0,0,0,0
240,0.087798,0.097017,NaN,0,0,0,0
240.5,0.088117,0.097053,NaN,0,0,0,0
241,0.088408,0.097081,NaN,0,0,0,0
241.5,0.088642,0.097103,NaN,0,0,0,0
242,0.089012,0.097123,NaN,0,0,0,0
242.5,0.089245,0.097147,NaN,0,0,0,0
243,0.0897,0.097167,NaN,0,0,0,0
243.5,0.089868,0.097186,NaN,0,0,0,0
244,0.090266,0.09721,NaN,0,0,0,0
244.5,0.090571,0.09724,NaN,0,0,0,0
245,0.090845,0.097267,NaN,0,0,0,0
245.5,0.091144,0.097287,NaN,0,0,0,0
246,0.091473,0.097303,NaN,0,0,0,0
246.5,0.09178,0.097323,NaN,0,0,0,0
247,0.091949,0.09735,NaN,0,0,0,0
247.5,0.092324,0.09738,NaN,0,0,0,0
248,0.092712,0.097407,NaN,0,0,0,0
248.5,0.093022,0.097433,NaN,0,0,0,0
249,0.093234,0.097463,NaN,0,0,0,0
249.5,0.093574,0.0975,NaN,0,0,0,0
250,0.093857,0.09754,NaN,0,0,0,0
250.5,0.094222,0.097577,NaN,0,0,0,0
251,0.094543,0.097607,NaN,0,0,0,0
251.5,0.094896,0.097633,NaN,0,0,0,0
252,0.095174,0.097663,NaN,0,0,0,0
252.5,0.095526,0.097694,NaN,0,0,0,0
253,0.095741,0.09772,NaN,0,0,0,0
253.5,0.096056,0.097743,NaN,0,0,0,0
254,0.096361,0.097773,NaN,0,0,0,0
254.5,0.096617,0.097804,NaN,0,0,0,0
255,0.096992,0.097833,NaN,0,0,0,0
255.5,0.097325,0.09786,NaN,0,0,0,0
256,0.097621,0.097884,NaN,0,0,0,0
256.5,0.097911,0.097906,NaN,0,0,0,0
257,0.098251,0.097927,NaN,0,0,0,0
257.5,0.098578,0.097953,NaN,0,0,0,0
258,0.098969,0.097977,NaN,0,0,0,0
258.5,0.099244,0.098003,NaN,0,0,0,0
259,0.099493,0.098027,NaN,0,0,0,0
259.5,0.099788,0.09805,NaN,0,0,0,0
260,0.10012,0.098073,NaN,0,0,0,0
260.5,0.1004,0.0981,NaN,0,0,0,0
261,0.10077,0.098127,NaN,0,0,0,0
261.5,0.10106,0.09815,NaN,0,0,0,0
262,0.10135,0.09817,NaN,0,0,0,0
262.5,0.10169,0.09819,NaN,0,0,0,0
263,0.10197,0.09821,NaN,0,0,0,0
263.5,0.10227,0.09823,NaN,0,0,0,0
264,0.10263,0.09825,NaN,0,0,0,0
264.5,0.10297,0.09827,NaN,0,0,0,0
265,0.10316,0.09829,NaN,0,0,0,0
265.5,0.10341,0.098307,NaN,0,0,0,0
266,0.10382,0.098323,NaN,0,0,0,0
266.5,0.10406,0.098337,NaN,0,0,0,0
267,0.1044,0.098353,NaN,0,0,0,0
267.5,0.1047,0.09837,NaN,0,0,0,0
268,0.10514,0.09839,NaN,0,0,0,0
268.5,0.10541,0.09841,NaN,0,0,0,0
269,0.10567,0.098433,NaN,0,0,0,0
269.5,0.10599,0.098457,NaN,0,0,0,0
270,0.10633,0.09848,NaN,0,0,0,0
270.5,0.10669,0.098509,NaN,0,0,0,0
271,0.10697,0.098544,NaN,0,0,0,0
271.5,0.10731,0.09858,NaN,0,0,0,0
272,0.10757,0.09861,NaN,0,0,0,0
272.5,0.10786,0.09864,NaN,0,0,0,0
273,0.10822,0.09867,NaN,0,0,0,0
273.5,0.10856,0.0987,NaN,0,0,0,0
274,0.10886,0.098727,NaN,0,0,0,0
274.5,0.10915,0.098747,NaN,0,0,0,0
275,0.10947,0.09876,NaN,0,0,0,0
275.5,0.10976,0.09877,NaN,0,0,0,0
276,0.11009,0.09878,NaN,0,0,0,0
276.5,0.11042,0.098787,NaN,0,0,0,0
277,0.11071,0.098793,NaN,0,0,0,0
277.5,0.11106,0.098803,NaN,0,0,0,0
278,0.1114,0.098817,NaN,0,0,0,0
278.5,0.11171,0.098833,NaN,0,0,0,0
279,0.11197,0.09885,NaN,0,0,0,0
279.5,0.11229,0.098867,NaN,0,0,0,0
280,0.11265,0.098883,NaN,0,0,0,0
280.5,0.11291,0.0989,NaN,0,0,0,0
281,0.11322,0.098914,NaN,0,0,0,0
281.5,0.11355,0.098923,NaN,0,0,0,0
282,0.11391,0.09893,NaN,0,0,0,0
282.5,0.11416,0.09894,NaN,0,0,0,0
283,0.11452,0.09895,NaN,0,0,0,0
283.5,0.11478,0.098963,NaN,0,0,0,0
284,0.11511,0.098977,NaN,0,0,0,0
284.5,0.11545,0.09899,NaN,0,0,0,0
285,0.11579,0.099003,NaN,0,0,0,0
285.5,0.11601,0.099017,NaN,0,0,0,0
286,0.11638,0.09903,NaN,0,0,0,0
286.5,0.11673,0.09904,NaN,0,0,0,0
287,0.117,0.099047,NaN,0,0,0,0
287.5,0.11731,0.099053,NaN,0,0,0,0
288,0.11762,0.099057,NaN,0,0,0,0
288.5,0.11793,0.099063,NaN,0,0,0,0
289,0.11833,0.099067,NaN,0,0,0,0
289.5,0.11859,0.099073,NaN,0,0,0,0
290,0.11888,0.09908,NaN,0,0,0,0
290.5,0.11921,0.09909,NaN,0,0,0,0
291,0.11949,0.099103,NaN,0,0,0,0
291.5,0.11989,0.09912,NaN,0,0,0,0
292,0.12017,0.099137,NaN,0,0,0,0
292.5,0.12048,0.09915,NaN,0,0,0,0
293,0.12071,0.099163,NaN,0,0,0,0
293.5,0.12104,0.099171,NaN,0,0,0,0
294,0.12141,0.099176,NaN,0,0,0,0
294.5,0.12176,0.09918,NaN,0,0,0,0
295,0.12203,0.099187,NaN,0,0,0,0
295.5,0.12233,0.09919,NaN,0,0,0,0
296,0.12262,0.099193,NaN,0,0,0,0
296.5,0.123,0.099197,NaN,0,0,0,0
297,0.12334,0.0992,NaN,0,0,0,0
297.5,0.12368,0.099203,NaN,0,0,0,0
298,0.12402,0.099207,NaN,0,0,0,0
298.5,0.12426,0.099213,NaN,0,0,0,0
299,0.1246,0.099217,NaN,0,0,0,0
299.5,0.12488,0.099226,NaN,0,0,0,0
300,0.12519,0.099234,NaN,0,0,0,0
300.5,0.12546,0.099243,NaN,0,0,0,0
301,0.12583,0.09925,NaN,0,0,0,0
301.5,0.12629,0.099257,NaN,0,0,0,0
302,0.12652,0.099263,NaN,0,0,0,0
302.5,0.12675,0.099267,NaN,0,0,0,0
303,0.12716,0.09927,NaN,0,0,0,0
303.5,0.12749,0.099267,NaN,0,0,0,0
304,0.12778,0.099263,NaN,0,0,0,0
304.5,0.12812,0.09926,NaN,0,0,0,0
305,0.1284,0.099257,NaN,0,0,0,0
305.5,0.12866,0.099253,NaN,0,0,0,0
306,0.129,0.099247,NaN,0,0,0,0
306.5,0.12936,0.099246,NaN,0,0,0,0
307,0.12969,0.099247,NaN,0,0,0,0
307.5,0.13002,0.09925,NaN,0,0,0,0
308,0.1303,0.099247,NaN,0,0,0,0
308.5,0.13063,0.099246,NaN,0,0,0,0
309,0.13098,0.099247,NaN,0,0,0,0
309.5,0.13129,0.099253,NaN,0,0,0,0
310,0.13166,0.099257,NaN,0,0,0,0
310.5,0.13196,0.09926,NaN,0,0,0,0
311,0.13222,0.09926,NaN,0,0,0,0
311.5,0.13257,0.09926,NaN,0,0,0,0
312,0.13282,0.09926,NaN,0,0,0,0
312.5,0.13323,0.09926,NaN,0,0,0,0
313,0.13356,0.099263,NaN,0,0,0,0
313.5,0.13386,0.099261,NaN,0,0,0,0
314,0.13414,0.099256,NaN,0,0,0,0
314.5,0.13449,0.09925,NaN,0,0,0,0
315,0.13481,0.099253,NaN,0,0,0,0
315.5,0.13521,0.09926,NaN,0,0,0,0
316,0.13552,0.099267,NaN,0,0,0,0
316.5,0.13587,0.09927,NaN,0,0,0,0
317,0.13614,0.099267,NaN,0,0,0,0
317.5,0.13643,0.099263,NaN,0,0,0,0
318,0.13681,0.099257,NaN,0,0,0,0
318.5,0.13713,0.09925,NaN,0,0,0,0
319,0.13745,0.099234,NaN,0,0,0,0
319.5,0.13774,0.099213,NaN,0,0,0,0
320,0.13803,0.09919,NaN,0,0,0,0
320.5,0.13838,0.09917,NaN,0,0,0,0
321,0.13865,0.099156,NaN,0,0,0,0
321.5,0.13901,0.099153,NaN,0,0,0,0
322,0.13934,0.099157,NaN,0,0,0,0
322.5,0.13965,0.09916,NaN,0,0,0,0
323,0.13998,0.09916,NaN,0,0,0,0
323.5,0.14033,0.099163,NaN,0,0,0,0
324,0.14061,0.099167,NaN,0,0,0,0
324.5,0.14099,0.09917,NaN,0,0,0,0
325,0.14134,0.099167,NaN,0,0,0,0
325.5,0.14163,0.09916,NaN,0,0,0,0
326,0.14188,0.09915,NaN,0,0,0,0
326.5,0.14225,0.09914,NaN,0,0,0,0
327,0.14257,0.099133,NaN,0,0,0,0
327.5,0.14296,0.099124,NaN,0,0,0,0
328,0.1433,0.099116,NaN,0,0,0,0
328.5,0.14363,0.099107,NaN,0,0,0,0
329,0.14387,0.0991,NaN,0,0,0,0
329.5,0.14425,0.099093,NaN,0,0,0,0
330,0.14449,0.099087,NaN,0,0,0,0
330.5,0.1449,0.099083,NaN,0,0,0,0
331,0.14519,0.099077,NaN,0,0,0,0
331.5,0.14548,0.099073,NaN,0,0,0,0
332,0.14582,0.09907,NaN,0,0,0,0
332.5,0.14614,0.099067,NaN,0,0,0,0
333,0.14644,0.099063,NaN,0,0,0,0
333.5,0.1468,0.09906,NaN,0,0,0,0
334,0.14707,0.099057,NaN,0,0,0,0
334.5,0.14746,0.099053,NaN,0,0,0,0
335,0.14784,0.099047,NaN,0,0,0,0
335.5,0.14813,0.099043,NaN,0,0,0,0
336,0.14844,0.099037,NaN,0,0,0,0
336.5,0.14879,0.09903,NaN,0,0,0,0
337,0.14908,0.099023,NaN,0,0,0,0
337.5,0.14944,0.099017,NaN,0,0,0,0
338,0.14969,0.099013,NaN,0,0,0,0
338.5,0.15009,0.099007,NaN,0,0,0,0
339,0.15036,0.099003,NaN,0,0,0,0
339.5,0.15068,0.098997,NaN,0,0,0,0
340,0.15103,0.098993,NaN,0,0,0,0
340.5,0.15136,0.098987,NaN,0,0,0,0
341,0.15178,0.098983,NaN,0,0,0,0
341.5,0.15202,0.098977,NaN,0,0,0,0
342,0.15237,0.098973,NaN,0,0,0,0
342.5,0.15275,0.09897,NaN,0,0,0,0
343,0.15304,0.09897,NaN,0,0,0,0
343.5,0.1534,0.098967,NaN,0,0,0,0
344,0.15368,0.098963,NaN,0,0,0,0
344.5,0.15379,0.098957,NaN,0,0,0,0
345,0.15437,0.098953,NaN,0,0,0,0
345.5,0.15466,0.098947,NaN,0,0,0,0
346,0.15505,0.09894,NaN,0,0,0,0
346.5,0.15533,0.098933,NaN,0,0,0,0
347,0.15567,0.098927,NaN,0,0,0,0
347.5,0.15599,0.09892,NaN,0,0,0,0
348,0.15642,0.09891,NaN,0,0,0,0
348.5,0.15657,0.0989,NaN,0,0,0,0
349,0.1569,0.09889,NaN,0,0,0,0
349.5,0.15736,0.098883,NaN,0,0,0,0
350,0.15762,0.098877,NaN,0,0,0,0
350.5,0.15772,0.09887,NaN,0,0,0,0
351,0.15822,0.098863,NaN,0,0,0,0
351.5,0.15864,0.098857,NaN,0,0,0,0
352,0.15899,0.098853,NaN,0,0,0,0
352.5,0.15934,0.098847,NaN,0,0,0,0
353,0.15968,0.098843,NaN,0,0,0,0
353.5,0.15998,0.098837,NaN,0,0,0,0
354,0.16026,0.09883,NaN,0,0,0,0
354.5,0.16064,0.098823,NaN,0,0,0,0
355,0.16092,0.098817,NaN,0,0,0,0
355.5,0.16138,0.09881,NaN,0,0,0,0
356,0.16166,0.098803,NaN,0,0,0,0
356.5,0.16196,0.098797,NaN,0,0,0,0
357,0.16235,0.09879,NaN,0,0,0,0
357.5,0.16266,0.098783,NaN,0,0,0,0
358,0.16296,0.098777,NaN,0,0,0,0
358.5,0.16328,0.098773,NaN,0,0,0,0
359,0.1636,0.098767,NaN,0,0,0,0
359.5,0.16399,0.09876,NaN,0,0,0,0
360,0.16433,0.098753,NaN,0,0,0,0
360.5,0.16461,0.098747,NaN,0,0,0,0
361,0.16501,0.09874,NaN,0,0,0,0
361.5,0.16532,0.09873,NaN,0,0,0,0
362,0.16565,0.09872,NaN,0,0,0,0
362.5,0.166,0.09871,NaN,0,0,0,0
363,0.16622,0.098703,NaN,0,0,0,0
363.5,0.16668,0.098697,NaN,0,0,0,0
364,0.16707,0.098693,NaN,0,0,0,0
364.5,0.16729,0.098684,NaN,0,0,0,0
365,0.16763,0.09867,NaN,0,0,0,0
365.5,0.16804,0.098653,NaN,0,0,0,0
366,0.16831,0.098643,NaN,0,0,0,0
366.5,0.1687,0.098634,NaN,0,0,0,0
367,0.16898,0.098623,NaN,0,0,0,0
367.5,0.16934,0.09861,NaN,0,0,0,0
368,0.1697,0.0986,NaN,0,0,0,0
368.5,0.17003,0.098593,NaN,0,0,0,0
369,0.17031,0.098587,NaN,0,0,0,0
369.5,0.17062,0.098583,NaN,0,0,0,0
370,0.17104,0.098574,NaN,0,0,0,0
370.5,0.17136,0.098563,NaN,0,0,0,0
371,0.17171,0.09855,NaN,0,0,0,0
371.5,0.17199,0.09854,NaN,0,0,0,0
372,0.1724,0.09853,NaN,0,0,0,0
372.5,0.17274,0.09852,NaN,0,0,0,0
373,0.17308,0.09851,NaN,0,0,0,0
373.5,0.17338,0.0985,NaN,0,0,0,0
374,0.17373,0.09849,NaN,0,0,0,0
374.5,0.17402,0.09848,NaN,0,0,0,0
375,0.17442,0.098473,NaN,0,0,0,0
375.5,0.17474,0.09847,NaN,0,0,0,0
376,0.17504,0.098464,NaN,0,0,0,0
376.5,0.17536,0.098453,NaN,0,0,0,0
377,0.17575,0.098437,NaN,0,0,0,0
377.5,0.17611,0.098423,NaN,0,0,0,0
378,0.17646,0.09841,NaN,0,0,0,0
378.5,0.17681,0.0984,NaN,0,0,0,0
379,0.17716,0.098387,NaN,0,0,0,0
379.5,0.17749,0.09837,NaN,0,0,0,0
380,0.17781,0.098353,NaN,0,0,0,0
380.5,0.17815,0.09834,NaN,0,0,0,0
381,0.17858,0.09833,NaN,0,0,0,0
381.5,0.17892,0.098314,NaN,0,0,0,0
382,0.1792,0.098293,NaN,0,0,0,0
382.5,0.17957,0.09827,NaN,0,0,0,0
383,0.17994,0.09825,NaN,0,0,0,0
383.5,0.18024,0.098233,NaN,0,0,0,0
384,0.18055,0.098217,NaN,0,0,0,0
384.5,0.18095,0.098197,NaN,0,0,0,0
385,0.18135,0.098173,NaN,0,0,0,0
385.5,0.18165,0.098153,NaN,0,0,0,0
386,0.18199,0.098137,NaN,0,0,0,0
386.5,0.18237,0.09812,NaN,0,0,0,0
387,0.18273,0.0981,NaN,0,0,0,0
387.5,0.18296,0.09808,NaN,0,0,0,0
388,0.18337,0.098057,NaN,0,0,0,0
388.5,0.18372,0.098033,NaN,0,0,0,0
389,0.18405,0.098007,NaN,0,0,0,0
389.5,0.18434,0.09798,NaN,0,0,0,0
390,0.18478,0.097953,NaN,0,0,0,0
390.5,0.18514,0.097927,NaN,0,0,0,0
391,0.18551,0.0979,NaN,0,0,0,0
391.5,0.18579,0.09787,NaN,0,0,0,0
392,0.18619,0.09784,NaN,0,0,0,0
392.5,0.18654,0.097807,NaN,0,0,0,0
393,0.18693,0.097776,NaN,0,0,0,0
393.5,0.18723,0.097744,NaN,0,0,0,0
394,0.18762,0.097713,NaN,0,0,0,0
394.5,0.18794,0.097677,NaN,0,0,0,0
395,0.18826,0.097643,NaN,0,0,0,0
395.5,0.18863,0.097607,NaN,0,0,0,0
396,0.18904,0.09757,NaN,0,0,0,0
396.5,0.18948,0.097533,NaN,0,0,0,0
397,0.18984,0.097494,NaN,0,0,0,0
397.5,0.1902,0.097453,NaN,0,0,0,0
398,0.19055,0.097407,NaN,0,0,0,0
398.5,0.19097,0.097366,NaN,0,0,0,0
399,0.19133,0.097324,NaN,0,0,0,0
399.5,0.19169,0.097277,NaN,0,0,0,0
400,0.19209,0.09722,NaN,0,0,0,0
400.5,0.19238,0.097163,NaN,0,0,0,0
401,0.19281,0.097107,NaN,0,0,0,0
401.5,0.19311,0.09705,NaN,0,0,0,0
402,0.19377,0.096993,NaN,0,0,0,0
402.5,0.19381,0.096937,NaN,0,0,0,0
403,0.19429,0.096877,NaN,0,0,0,0
403.5,0.19466,0.09681,NaN,0,0,0,0
404,0.19498,0.096743,NaN,0,0,0,0
404.5,0.19537,0.09668,NaN,0,0,0,0
405,0.19582,0.096617,NaN,0,0,0,0
405.5,0.1962,0.09655,NaN,0,0,0,0
406,0.19664,0.096474,NaN,0,0,0,0
406.5,0.19693,0.096393,NaN,0,0,0,0
407,0.19744,0.09631,NaN,0,0,0,0
407.5,0.19776,0.096227,NaN,0,0,0,0
408,0.19821,0.096143,NaN,0,0,0,0
408.5,0.19862,0.096051,NaN,0,0,0,0
409,0.19905,0.09595,NaN,0,0,0,0
409.5,0.19939,0.095843,NaN,0,0,0,0
410,0.19979,0.09574,NaN,0,0,0,0
410.5,0.20022,0.095637,NaN,0,0,0,0
411,0.20065,0.09553,NaN,0,0,0,0
411.5,0.20111,0.095417,NaN,0,0,0,0
412,0.20157,0.095291,NaN,0,0,0,0
412.5,0.20201,0.095161,NaN,0,0,0,0
413,0.20244,0.095029,NaN,0,0,0,0
413.5,0.20289,0.094887,NaN,0,0,0,0
414,0.2033,0.094736,NaN,0,0,0,0
414.5,0.20375,0.094587,NaN,0,0,0,0
415,0.20422,0.094434,NaN,0,0,0,0
415.5,0.20462,0.094276,NaN,0,0,0,0
416,0.20509,0.094114,NaN,0,0,0,0
416.5,0.20559,0.093947,NaN,0,0,0,0
417,0.20604,0.093767,NaN,0,0,0,0
417.5,0.20655,0.09358,NaN,0,0,0,0
418,0.20704,0.093384,NaN,0,0,0,0
418.5,0.2075,0.093174,NaN,0,0,0,0
419,0.20801,0.092956,NaN,0,0,0,0
419.5,0.20852,0.092729,NaN,0,0,0,0
420,0.20906,0.092499,NaN,0,0,0,0
420.5,0.20961,0.092253,NaN,0,0,0,0
421,0.21015,0.091984,NaN,0,0,0,0
421.5,0.21067,0.091693,NaN,0,0,0,0
422,0.21122,0.091386,NaN,0,0,0,0
422.5,0.21179,0.091049,NaN,0,0,0,0
423,0.21249,0.090663,NaN,0,0,0,0
423.5,0.21318,0.090232,NaN,0,0,0,0
424,0.21424,0.089798,NaN,0,0,0,0