File: LAB_DATA/AA7020-T6_results/DATA/SL_180_SH2_90_2.csv
Time[s];Displacement[mm];Force[kN];AxStrain_1;AxStrain_2;Thickness[mm];Width[mm];Inner width
0;0;0.0007;0;0;1.02;20;0
0.5003;-0.000186793;-0.0003;0;0;0;0;0
1.0001;7.55E-05;0.0041;0;0;0;0;0
1.5002;-0.001049829;0.0035;0;0;0;0;0
2.0001;0.000160919;0;0;0;0;0;0
2.5;-7.7751E-05;0.0013;0;0;0;0;0
3.0002;-0.000403476;0.0016;0;0;0;0;0
3.5;0.000247146;0;0;0;0;0;0
3.9998;4.31E-05;0.0022;0;0;0;0;0
4.5001;0.000497224;0.0003;0;0;0;0;0
5.0002;-1.26823E-05;0.0032;0;0;0;0;0
5.5;2.23E-04;0.0044;0;0;0;0;0
6.0001;0.003278414;0.0184;0;0;0;0;0
6.4999;0.005530069;0.0326;0;0;0;0;0
7;0.008276525;0.0379;0;0;0;0;0
7.4999;0.01130671;0.056;0;0;0;0;0
8.0001;0.01372349;0.0639;0;0;0;0;0
8.4999;0.0168374;0.0825;0;0;0;0;0
8.9998;0.01955787;0.091;0;0;0;0;0
9.4998;0.0228382;0.1043;0;0;0;0;0
9.9999;0.02424587;0.1198;0;0;0;0;0
10.5001;0.0278406;0.1277;0;0;0;0;0
11;0.0302956;0.1381;0;0;0;0;0
11.4998;0.0316469;0.1495;0;0;0;0;0
11.9997;0.0355113;0.1644;0;0;0;0;0
12.5001;0.0378794;0.1634;0;0;0;0;0
12.9998;0.0414361;0.1903;0;0;0;0;0
13.4998;0.0438527;0.1972;0;0;0;0;0
13.9999;0.0485031;0.2064;0;0;0;0;0
14.4999;0.0503443;0.2181;0;0;0;0;0
14.9998;0.0537469;0.2263;0;0;0;0;0
15.5;0.0554785;0.2389;0;0;0;0;0
15.9997;0.0581283;0.2437;0;0;0;0;0
16.4997;6.05E-02;0.262;0;0;0;0;0
16.9996;0.064646;0.2592;0;0;0;0;0
17.4997;0.0662905;0.2788;0;0;0;0;0
18;0.0695929;0.2803;0;0;0;0;0
18.4997;0.0727124;0.2958;0;0;0;0;0
18.9996;0.0750446;0.2968;0;0;0;0;0
19.4996;7.82E-02;0.3113;0;0;0;0;0
19.9997;0.0819582;0.3164;0;0;0;0;0
20.5;0.0843247;0.322;0;0;0;0;0
20.9998;0.087226;0.3299;0;0;0;0;0
21.4998;0.0892953;0.3318;0;0;0;0;0
21.9996;0.0929465;0.3473;0;0;0;0;0
22.4999;0.0962685;0.3495;0;0;0;0;0
22.9996;9.87E-02;0.3552;0;0;0;0;0
23.4996;0.102323;0.3653;0;0;0;0;0
23.9995;0.105047;0.3616;0;0;0;0;0
24.4997;0.108667;0.3761;0;0;0;0;0
24.9996;1.11E-01;0.378;0;0;0;0;0
25.4999;0.115178;0.383;0;0;0;0;0
25.9997;0.117867;0.3849;0;0;0;0;0
26.4996;0.121089;0.3849;0;0;0;0;0
26.9995;0.124348;0.3969;0;0;0;0;0
27.4996;1.29E-01;0.395;0;0;0;0;0
27.9996;1.30E-01;0.3998;0;0;0;0;0
28.4997;0.133337;0.4007;0;0;0;0;0
28.9996;0.136492;0.4099;0;0;0;0;0
29.4995;0.139306;0.4153;0;0;0;0;0
29.9995;1.43E-01;0.4162;0;0;0;0;0
30.4995;0.146759;0.4178;0;0;0;0;0
30.9994;0.149765;0.426;0;0;0;0;0
31.4994;1.52E-01;0.4257;0;0;0;0;0
31.9995;0.155613;0.4289;0;0;0;0;0
32.4996;0.159134;0.4317;0;0;0;0;0
32.9995;0.161723;0.438;0;0;0;0;0
33.4994;0.16549;0.433;0;0;0;0;0
33.9993;1.69E-01;0.4434;0;0;0;0;0
34.4994;1.72E-01;0.4387;0;0;0;0;0
34.9994;1.74E-01;0.4431;0;0;0;0;0
35.4997;1.78E-01;0.4456;0;0;0;0;0
35.9993;1.80E-01;0.4462;0;0;0;0;0
36.4994;0.184387;0.4526;0;0;0;0;0
36.9993;1.87E-01;0.4481;0;0;0;0;0
37.4996;0.190102;0.4602;0;0;0;0;0
37.9994;0.192947;0.4538;0;0;0;0;0
38.4995;0.196496;0.457;0;0;0;0;0
38.9992;2.00E-01;0.4595;0;0;0;0;0
39.4993;0.20317;0.4617;0;0;0;0;0
39.9996;0.206387;0.463;0;0;0;0;0
40.4996;0.209735;0.4674;0;0;0;0;0
40.9992;0.212867;0.4712;0;0;0;0;0
41.4993;2.16E-01;0.4766;0;0;0;0;0
41.9992;0.217841;0.4741;0;0;0;0;0
42.4993;0.222177;0.475;0;0;0;0;0
42.9993;0.225166;0.4725;0;0;0;0;0
43.4993;2.29E-01;0.4782;0;0;0;0;0
43.9994;2.33E-01;0.4785;0;0;0;0;0
44.4992;0.234699;0.4788;0;0;0;0;0
44.9993;2.39E-01;0.4889;0;0;0;0;0
45.4993;2.43E-01;0.4889;0;0;0;0;0
45.9992;2.45E-01;0.4895;0;0;0;0;0
46.4992;0.248863;0.4835;0;0;0;0;0
46.9991;2.52E-01;0.4936;0;0;0;0;0
47.4992;0.255081;0.4867;0;0;0;0;0
47.9992;0.260247;0.4936;0;0;0;0;0
48.4992;0.260994;0.4936;0;0;0;0;0
48.9991;2.64E-01;0.4984;0;0;0;0;0
49.4991;0.267279;0.5009;0;0;0;0;0
49.9994;2.71E-01;0.4905;0;0;0;0;0
50.4992;2.75E-01;0.5076;0;0;0;0;0
50.9991;2.77E-01;0.5038;0;0;0;0;0
51.4991;0.280539;0.506;0;0;0;0;0
51.9991;2.84E-01;0.5113;0;0;0;0;0
52.4992;0.286875;0.5038;0;0;0;0;0
52.9991;0.2902099;0.512;0;0;0;0;0
53.4993;0.294597;0.5123;0;0;0;0;0
53.999;0.2971001;0.5113;0;0;0;0;0
54.4992;0.300149;0.5167;0;0;0;0;0
54.9993;0.304155;0.5189;0;0;0;0;0
55.4991;0.308621;0.5145;0;0;0;0;0
55.999;0.311134;0.5189;0;0;0;0;0
56.4991;0.313899;0.523;0;0;0;0;0
56.999;3.17E-01;0.5142;0;0;0;0;0
57.4993;0.319745;0.524;0;0;0;0;0
57.999;3.23E-01;0.523;0;0;0;0;0
58.4992;0.326227;0.5316;0;0;0;0;0
58.9989;0.328937;0.5221;0;0;0;0;0
59.4989;0.33191;0.5234;0;0;0;0;0
59.999;0.335947;0.5281;0;0;0;0;0
60.4992;0.338863;0.5313;0;0;0;0;0
60.9989;0.341507;0.5338;0;0;0;0;0
61.4989;0.344087;0.5379;0;0;0;0;0
61.9989;3.48E-01;0.5341;0;0;0;0;0
62.4992;3.51E-01;0.5392;0;0;0;0;0
62.9992;0.354656;0.5347;0;0;0;0;0
63.4991;0.35827;0.5411;0;0;0;0;0
63.9988;0.361476;0.5373;0;0;0;0;0
64.4989;0.365325;0.5414;0;0;0;0;0
64.9992;3.68E-01;0.5423;0;0;0;0;0
65.499;0.371469;0.5448;0;0;0;0;0
65.9988;0.375296;0.5407;0;0;0;0;0
66.499;0.378208;0.5461;0;0;0;0;0
66.9988;3.81E-01;0.5467;0;0;0;0;0
67.4991;3.85E-01;0.5496;0;0;0;0;0
67.9991;0.387073;0.5452;0;0;0;0;0
68.4988;0.390979;0.5512;0;0;0;0;0
68.9987;0.393219;0.5493;0;0;0;0;0
69.499;3.97E-01;0.5565;0;0;0;0;0
69.9989;0.400555;0.5556;0;0;0;0;0
70.4989;0.403123;0.5471;0;0;0;0;0
70.9987;0.406708;0.5594;0;0;0;0;0
71.4987;0.409652;0.5613;0;0;0;0;0
71.9987;0.413526;0.5543;0;0;0;0;0
72.4988;4.16E-01;0.5553;0;0;0;0;0
72.9988;4.20E-01;0.5613;0;0;0;0;0
73.4987;4.23E-01;0.5594;0;0;0;0;0
73.9987;0.425933;0.5508;0;0;0;0;0
74.4989;4.30E-01;0.567;0;0;0;0;0
74.999;4.33E-01;0.5638;0;0;0;0;0
75.499;0.435587;0.561;0;0;0;0;0
75.9989;0.439063;0.5673;0;0;0;0;0
76.4986;0.442363;0.5625;0;0;0;0;0
76.9988;0.446234;0.5733;0;0;0;0;0
77.4987;0.449592;0.5622;0;0;0;0;0
77.9987;0.452586;0.5723;0;0;0;0;0
78.4987;4.55E-01;0.5695;0;0;0;0;0
78.9987;0.459561;0.5733;0;0;0;0;0
79.4986;0.462167;0.5787;0;0;0;0;0
79.9987;0.466283;0.573;0;0;0;0;0
80.4987;0.46927;0.5717;0;0;0;0;0
80.9986;0.471474;0.5758;0;0;0;0;0
81.4986;0.475619;0.5764;0;0;0;0;0
81.9986;0.478739;0.5771;0;0;0;0;0
82.4987;4.82E-01;0.5774;0;0;0;0;0
82.9986;4.86E-01;0.5793;0;0;0;0;0
83.4986;4.88E-01;0.5758;0;0;0;0;0
83.9987;4.92E-01;0.5828;0;0;0;0;0
84.4987;0.495144;0.5831;0;0;0;0;0
84.9986;4.98E-01;0.5853;0;0;0;0;0
85.4988;0.502993;0.5834;0;0;0;0;0
85.9987;5.05E-01;0.5881;0;0;0;0;0
86.4986;5.08E-01;0.5872;0;0;0;0;0
86.9985;0.511506;0.5897;0;0;0;0;0
87.4988;0.514994;0.5853;0;0;0;0;0
87.9988;5.18E-01;0.5878;0;0;0;0;0
88.4987;0.521165;0.5922;0;0;0;0;0
88.9984;0.524638;0.5878;0;0;0;0;0
89.4986;0.528075;0.5983;0;0;0;0;0
89.9987;0.531172;0.5935;0;0;0;0;0
90.4987;0.533916;0.5967;0;0;0;0;0
90.9986;0.537182;0.5907;0;0;0;0;0
91.4984;0.540612;0.5957;0;0;0;0;0
91.9984;5.44E-01;0.5957;0;0;0;0;0
92.4987;0.547469;0.6011;0;0;0;0;0
92.9984;5.50E-01;0.5979;0;0;0;0;0
93.4984;5.54E-01;0.5922;0;0;0;0;0
93.9985;5.58E-01;0.6001;0;0;0;0;0
94.4984;0.560555;0.6014;0;0;0;0;0
94.9986;0.563344;0.602;0;0;0;0;0
95.4984;0.567646;0.5998;0;0;0;0;0
95.9983;0.5702545;0.6036;0;0;0;0;0
96.4983;0.573993;0.6036;0;0;0;0;0
96.9983;5.77E-01;0.6039;0;0;0;0;0
97.4984;0.580247;0.6065;0;0;0;0;0
97.9986;0.58353;0.6027;0;0;0;0;0
98.4983;0.587104;0.6071;0;0;0;0;0
98.9982;0.590198;0.6043;0;0;0;0;0
99.4983;5.93E-01;0.6065;0;0;0;0;0
99.9986;5.97E-01;0.6077;0;0;0;0;0
100.4986;0.599945;0.609;0;0;0;0;0
100.9982;6.03E-01;0.6103;0;0;0;0;0
101.4982;6.06E-01;0.6153;0;0;0;0;0
101.9984;0.609628;0.6103;0;0;0;0;0
102.4985;0.612583;0.6137;0;0;0;0;0
102.9985;6.17E-01;0.608;0;0;0;0;0
103.4982;6.20E-01;0.6175;0;0;0;0;0
103.9981;0.622587;0.6163;0;0;0;0;0
104.4982;6.26E-01;0.6147;0;0;0;0;0
104.9983;6.29E-01;0.6156;0;0;0;0;0
105.4982;0.63254;0.622;0;0;0;0;0
105.9984;0.636461;0.6141;0;0;0;0;0
106.4981;6.39E-01;0.6229;0;0;0;0;0
106.9981;0.643004;0.6245;0;0;0;0;0
107.4982;0.645627;0.6156;0;0;0;0;0
107.9982;0.649631;0.6242;0;0;0;0;0
108.4982;0.652437;0.6216;0;0;0;0;0
108.9982;0.655935;0.6175;0;0;0;0;0
109.4981;0.658353;0.6245;0;0;0;0;0
109.9984;0.663243;0.6251;0;0;0;0;0
110.4982;0.666189;0.6229;0;0;0;0;0
110.998;6.69E-01;0.6276;0;0;0;0;0
111.4982;0.672179;0.6292;0;0;0;0;0
111.9981;6.75E-01;0.6289;0;0;0;0;0
112.4981;0.678571;0.6261;0;0;0;0;0
112.9983;6.82E-01;0.628;0;0;0;0;0
113.4981;0.685081;0.6289;0;0;0;0;0
113.998;0.688677;0.6346;0;0;0;0;0
114.4982;0.691301;0.6327;0;0;0;0;0
114.9981;0.695535;0.6365;0;0;0;0;0
115.4981;0.698224;0.6333;0;0;0;0;0
115.9982;0.70145;0.6362;0;0;0;0;0
116.498;7.05E-01;0.6321;0;0;0;0;0
116.998;0.70704;0.6362;0;0;0;0;0
117.498;7.12E-01;0.6336;0;0;0;0;0
117.9983;0.71474;0.6349;0;0;0;0;0
118.498;7.18E-01;0.639;0;0;0;0;0
118.9981;0.720821;0.6384;0;0;0;0;0
119.4979;7.25E-01;0.64;0;0;0;0;0
119.998;0.727817;0.6412;0;0;0;0;0
120.498;0.731446;0.6384;0;0;0;0;0
120.9979;0.734291;0.6434;0;0;0;0;0
121.498;0.738437;0.6412;0;0;0;0;0
121.9979;0.740532;0.64;0;0;0;0;0
122.498;7.44E-01;0.6438;0;0;0;0;0
122.9982;0.747611;0.6419;0;0;0;0;0
123.4979;0.751038;0.6438;0;0;0;0;0
123.9978;0.754562;0.64;0;0;0;0;0
124.498;0.757469;0.6381;0;0;0;0;0
124.9981;7.61E-01;0.6397;0;0;0;0;0
125.4979;0.764484;0.6431;0;0;0;0;0
125.9978;7.67E-01;0.6476;0;0;0;0;0
126.4979;0.770521;0.6431;0;0;0;0;0
126.998;7.74E-01;0.6476;0;0;0;0;0
127.4981;0.777241;0.6491;0;0;0;0;0
127.9981;0.781148;0.6457;0;0;0;0;0
128.4978;0.784489;0.6532;0;0;0;0;0
128.9977;0.788156;0.6343;0;0;0;0;0
129.4977;7.91E-01;0.6488;0;0;0;0;0
129.9981;0.794144;0.6491;0;0;0;0;0
130.4978;0.796768;0.6564;0;0;0;0;0
130.9977;0.800916;0.6561;0;0;0;0;0
131.4979;8.03E-01;0.6476;0;0;0;0;0
131.9977;8.07E-01;0.6513;0;0;0;0;0
132.498;0.809808;0.6567;0;0;0;0;0
132.9978;0.814241;0.6558;0;0;0;0;0
133.4977;8.17E-01;0.6536;0;0;0;0;0
133.9976;0.820564;0.6532;0;0;0;0;0
134.4977;0.823834;0.6586;0;0;0;0;0
134.9977;0.826674;0.6567;0;0;0;0;0
135.498;0.830132;0.657;0;0;0;0;0
135.9978;0.833388;0.6618;0;0;0;0;0
136.4978;0.836586;0.6542;0;0;0;0;0
136.9978;0.840145;0.6555;0;0;0;0;0
137.4979;0.843206;0.6589;0;0;0;0;0
137.9977;8.47E-01;0.6608;0;0;0;0;0
138.4978;0.850332;0.6627;0;0;0;0;0
138.9975;0.853324;0.6605;0;0;0;0;0
139.4976;0.856615;0.664;0;0;0;0;0
139.9976;0.859804;0.6652;0;0;0;0;0
140.4979;8.64E-01;0.6646;0;0;0;0;0
140.9977;8.67E-01;0.6643;0;0;0;0;0
141.4975;0.870077;0.6671;0;0;0;0;0
141.9975;0.873624;0.6643;0;0;0;0;0
142.4976;8.76E-01;0.6618;0;0;0;0;0
142.9976;0.879968;0.6627;0;0;0;0;0
143.4976;0.88239;0.6665;0;0;0;0;0
143.9975;0.886272;0.6697;0;0;0;0;0
144.4975;0.890305;0.67;0;0;0;0;0
144.9976;0.893146;0.67;0;0;0;0;0
145.4976;0.896442;0.6678;0;0;0;0;0
145.9974;0.899852;0.6697;0;0;0;0;0
146.4976;0.902551;0.67;0;0;0;0;0
146.9974;9.06E-01;0.6709;0;0;0;0;0
147.4977;0.909245;0.6684;0;0;0;0;0
147.9975;0.913222;0.6713;0;0;0;0;0
148.4976;9.16E-01;0.6728;0;0;0;0;0
148.9976;0.919025;0.6662;0;0;0;0;0
149.4976;9.23E-01;0.6713;0;0;0;0;0
149.9977;0.925995;0.6735;0;0;0;0;0
150.4977;0.928317;0.6694;0;0;0;0;0
150.9974;0.933265;0.6744;0;0;0;0;0
151.4974;0.936079;0.6785;0;0;0;0;0
151.9974;0.939163;0.6697;0;0;0;0;0
152.4977;0.941691;0.6747;0;0;0;0;0
152.9974;0.945718;0.6782;0;0;0;0;0
153.4974;0.94973;0.6747;0;0;0;0;0
153.9973;0.95153;0.6735;0;0;0;0;0
154.4973;0.955869;0.6776;0;0;0;0;0
154.9976;0.959124;0.6776;0;0;0;0;0
155.4974;0.961455;0.6744;0;0;0;0;0
155.9975;0.965399;0.6769;0;0;0;0;0
156.4973;0.968658;0.6817;0;0;0;0;0
156.9975;0.97165;0.6785;0;0;0;0;0
157.4974;0.974726;0.6792;0;0;0;0;0
157.9973;0.979163;0.6836;0;0;0;0;0
158.4973;0.982455;0.6801;0;0;0;0;0
158.9974;0.986037;0.6801;0;0;0;0;0
159.4974;0.988644;0.682;0;0;0;0;0
159.9973;0.991592;0.6826;0;0;0;0;0
160.4973;0.994957;0.6817;0;0;0;0;0
160.9972;9.98E-01;0.6804;0;0;0;0;0
161.4973;1.00153;0.6839;0;0;0;0;0
161.9972;1.00508;0.6877;0;0;0;0;0
162.4975;1.00843;0.6852;0;0;0;0;0
162.9975;1.01186;0.6864;0;0;0;0;0
163.4972;1.01E+00;0.6829;0;0;0;0;0
163.9973;1.01789;0.6864;0;0;0;0;0
164.4973;1.02164;0.6867;0;0;0;0;0
164.9975;1.02513;0.6874;0;0;0;0;0
165.4972;1.03E+00;0.6845;0;0;0;0;0
165.9973;1.03148;0.6886;0;0;0;0;0
166.4971;1.03568;0.6871;0;0;0;0;0
166.9973;1.03807;0.6905;0;0;0;0;0
167.4974;1.04132;0.6921;0;0;0;0;0
167.9971;1.04E+00;0.6912;0;0;0;0;0
168.4973;1.05E+00;0.6855;0;0;0;0;0
168.997;1.0514;0.6867;0;0;0;0;0
169.4972;1.06E+00;0.6871;0;0;0;0;0
169.9974;1.0579;0.6912;0;0;0;0;0
170.4971;1.06E+00;0.6893;0;0;0;0;0
170.997;1.06463;0.6877;0;0;0;0;0
171.497;1.06817;0.6956;0;0;0;0;0
171.997;1.07089;0.6927;0;0;0;0;0
172.4973;1.07443;0.6943;0;0;0;0;0
172.9971;1.07768;0.6962;0;0;0;0;0
173.4971;1.08093;0.6943;0;0;0;0;0
173.9971;1.08E+00;0.6962;0;0;0;0;0
174.497;1.09E+00;0.6956;0;0;0;0;0
174.9971;1.09036;0.6912;0;0;0;0;0
175.4971;1.09E+00;0.6934;0;0;0;0;0
175.9969;1.09851;0.6959;0;0;0;0;0
176.497;1.10152;0.7;0;0;0;0;0
176.9969;1.10E+00;0.6823;0;0;0;0;0
177.497;1.10778;0.6943;0;0;0;0;0
177.997;1.11056;0.6994;0;0;0;0;0
178.497;1.11435;0.6946;0;0;0;0;0
178.997;1.11743;0.7022;0;0;0;0;0
179.4971;1.12098;0.694;0;0;0;0;0
179.9972;1.12417;0.6959;0;0;0;0;0
180.4972;1.13E+00;0.6959;0;0;0;0;0
180.9968;1.13166;0.7;0;0;0;0;0
181.497;1.13418;0.7013;0;0;0;0;0
181.9968;1.13785;0.7003;0;0;0;0;0
182.4969;1.14033;0.7;0;0;0;0;0
182.9969;1.14406;0.7016;0;0;0;0;0
183.4969;1.14723;0.7022;0;0;0;0;0
183.9969;1.15081;0.7032;0;0;0;0;0
184.4968;1.15379;0.7032;0;0;0;0;0
184.9971;1.15628;0.6991;0;0;0;0;0
185.4971;1.16E+00;0.7;0;0;0;0;0
185.9968;1.16352;0.6991;0;0;0;0;0
186.4968;1.16691;0.6987;0;0;0;0;0
186.997;1.16978;0.7044;0;0;0;0;0
187.4968;1.17325;0.7038;0;0;0;0;0
187.9971;1.17702;0.7016;0;0;0;0;0
188.4968;1.17972;0.701;0;0;0;0;0
188.9967;1.18379;0.7016;0;0;0;0;0
189.4967;1.18649;0.7057;0;0;0;0;0
189.997;1.19E+00;0.7044;0;0;0;0;0
190.4968;1.19321;0.706;0;0;0;0;0
190.9967;1.19664;0.7057;0;0;0;0;0
191.4967;1.19935;0.7101;0;0;0;0;0
191.9969;1.20306;0.7095;0;0;0;0;0
192.4968;1.20633;0.7095;0;0;0;0;0
192.997;1.20992;0.7095;0;0;0;0;0
193.4967;1.21304;0.7076;0;0;0;0;0
193.9966;1.21649;0.7111;0;0;0;0;0
194.4966;1.21941;0.7127;0;0;0;0;0
194.9967;1.22286;0.7117;0;0;0;0;0
195.4967;1.22618;0.7104;0;0;0;0;0
195.9966;1.23E+00;0.7079;0;0;0;0;0
196.4966;1.23192;0.712;0;0;0;0;0
196.9968;1.23507;0.7098;0;0;0;0;0
197.4967;1.23868;0.7063;0;0;0;0;0
197.9969;1.24261;0.7098;0;0;0;0;0
198.4966;1.24628;0.7016;0;0;0;0;0
198.9965;1.25E+00;0.7111;0;0;0;0;0
199.4965;1.25226;0.7136;0;0;0;0;0
199.9968;1.26E+00;0.7051;0;0;0;0;0
200.4966;1.25892;0.7136;0;0;0;0;0
200.9965;1.26165;0.7133;0;0;0;0;0
201.4965;1.26493;0.7114;0;0;0;0;0
201.9965;1.26765;0.7111;0;0;0;0;0
202.4966;1.2721;0.7139;0;0;0;0;0
202.9966;1.27453;0.7117;0;0;0;0;0
203.4965;1.27859;0.7158;0;0;0;0;0
203.9964;1.28058;0.7101;0;0;0;0;0
204.4966;1.28514;0.7127;0;0;0;0;0
204.9965;1.28757;0.7155;0;0;0;0;0
205.4967;1.29172;0.7111;0;0;0;0;0
205.9964;1.29488;0.7152;0;0;0;0;0
206.4964;1.2981;0.7149;0;0;0;0;0
206.9964;1.30158;0.7136;0;0;0;0;0
207.4965;1.30414;0.7101;0;0;0;0;0
207.9965;1.30675;0.7168;0;0;0;0;0
208.4964;1.31E+00;0.7155;0;0;0;0;0
208.9963;1.31462;0.7158;0;0;0;0;0
209.4964;1.32E+00;0.7142;0;0;0;0;0
209.9965;1.32087;0.718;0;0;0;0;0
210.4965;1.32403;0.7139;0;0;0;0;0
210.9963;1.32719;0.7149;0;0;0;0;0
211.4965;1.33026;0.7187;0;0;0;0;0
211.9963;1.33376;0.7202;0;0;0;0;0
212.4964;1.33711;0.7187;0;0;0;0;0
212.9964;1.34036;0.7101;0;0;0;0;0
213.4964;1.34E+00;0.7187;0;0;0;0;0
213.9964;1.34725;0.719;0;0;0;0;0
214.4965;1.35E+00;0.7171;0;0;0;0;0
214.9964;1.35457;0.7243;0;0;0;0;0
215.4964;1.36E+00;0.7215;0;0;0;0;0
215.9963;1.36102;0.7161;0;0;0;0;0
216.4964;1.36406;0.7174;0;0;0;0;0
216.9962;1.36809;0.7149;0;0;0;0;0
217.4965;1.37053;0.7168;0;0;0;0;0
217.9963;1.37437;0.7187;0;0;0;0;0
218.4964;1.37734;0.7218;0;0;0;0;0
218.9962;1.38062;0.7196;0;0;0;0;0
219.4962;1.38329;0.7193;0;0;0;0;0
219.9965;1.39E+00;0.7243;0;0;0;0;0
220.4963;1.39052;0.7193;0;0;0;0;0
220.9962;1.39397;0.725;0;0;0;0;0
221.4962;1.39705;0.7215;0;0;0;0;0
221.9964;1.40097;0.7218;0;0;0;0;0
222.4965;1.40367;0.7209;0;0;0;0;0
222.9964;1.40749;0.7247;0;0;0;0;0
223.4964;1.41046;0.7224;0;0;0;0;0
223.9963;1.41289;0.7193;0;0;0;0;0
224.4963;1.41602;0.7212;0;0;0;0;0
224.9962;1.41927;0.7206;0;0;0;0;0
225.4962;1.423;0.7199;0;0;0;0;0
225.9963;1.4264;0.7183;0;0;0;0;0
226.4961;1.42975;0.719;0;0;0;0;0
226.9961;1.433;0.7196;0;0;0;0;0
227.4962;1.44E+00;0.7275;0;0;0;0;0
227.9961;1.43947;0.7272;0;0;0;0;0
228.4961;1.44E+00;0.7218;0;0;0;0;0
228.996;1.44626;0.7212;0;0;0;0;0
229.496;1.44912;0.7168;0;0;0;0;0
229.9961;1.45298;0.7212;0;0;0;0;0
230.4961;1.45654;0.7231;0;0;0;0;0
230.996;1.46E+00;0.7212;0;0;0;0;0
231.496;1.46296;0.7218;0;0;0;0;0
231.996;1.46601;0.7253;0;0;0;0;0
232.4961;1.46921;0.7177;0;0;0;0;0
232.9963;1.47328;0.7256;0;0;0;0;0
233.496;1.4761;0.7199;0;0;0;0;0
233.9959;1.47964;0.7218;0;0;0;0;0
234.4959;1.48248;0.7224;0;0;0;0;0
234.996;1.48613;0.7231;0;0;0;0;0
235.496;1.48961;0.7237;0;0;0;0;0
235.9961;1.49267;0.7212;0;0;0;0;0
236.4959;1.49594;0.7196;0;0;0;0;0
236.9961;1.49917;0.7259;0;0;0;0;0
237.4962;1.50236;0.7272;0;0;0;0;0
237.996;1.5058;0.7231;0;0;0;0;0
238.4959;1.50906;0.724;0;0;0;0;0
238.9958;1.51218;0.7243;0;0;0;0;0
239.4959;1.5151;0.7247;0;0;0;0;0
239.9962;1.52E+00;0.7281;0;0;0;0;0
240.496;1.52143;0.7237;0;0;0;0;0
240.996;1.52563;0.724;0;0;0;0;0
241.496;1.52857;0.7259;0;0;0;0;0
241.9958;1.53E+00;0.7269;0;0;0;0;0
242.4959;1.53514;0.7234;0;0;0;0;0
242.9961;1.53815;0.725;0;0;0;0;0
243.4959;1.54152;0.7206;0;0;0;0;0
243.9957;1.54516;0.7266;0;0;0;0;0
244.4958;1.54806;0.7266;0;0;0;0;0
244.9961;1.5518;0.7215;0;0;0;0;0
245.4961;1.55493;0.7256;0;0;0;0;0
245.9959;1.55822;0.7253;0;0;0;0;0
246.4957;1.56156;0.7224;0;0;0;0;0
246.9957;1.56501;0.7174;0;0;0;0;0
247.496;1.56837;0.7326;0;0;0;0;0
247.9958;1.57181;0.7243;0;0;0;0;0
248.4957;1.57477;0.7256;0;0;0;0;0
248.9957;1.57811;0.7237;0;0;0;0;0
249.4957;1.58131;0.7266;0;0;0;0;0
249.9958;1.58502;0.725;0;0;0;0;0
250.496;1.58815;0.7256;0;0;0;0;0
250.9959;1.59131;0.7272;0;0;0;0;0
251.4956;1.59479;0.7199;0;0;0;0;0
251.9958;1.59731;0.7266;0;0;0;0;0
252.4957;1.60086;0.7231;0;0;0;0;0
252.9957;1.60389;0.7266;0;0;0;0;0
253.4957;1.60782;0.7256;0;0;0;0;0
253.9956;1.61098;0.7266;0;0;0;0;0
254.4958;1.61486;0.7228;0;0;0;0;0
254.9959;1.61804;0.7199;0;0;0;0;0
255.4959;1.62124;0.724;0;0;0;0;0
255.9958;1.62465;0.7183;0;0;0;0;0
256.4957;1.62782;0.7253;0;0;0;0;0
256.9957;1.6298;0.7231;0;0;0;0;0
257.4956;1.63491;0.7237;0;0;0;0;0
257.9956;1.63798;0.7237;0;0;0;0;0
258.4956;1.64188;0.7234;0;0;0;0;0
258.9955;1.6446;0.7269;0;0;0;0;0
259.4955;1.64809;0.718;0;0;0;0;0
259.9956;1.65153;0.7256;0;0;0;0;0
260.4956;1.65474;0.7193;0;0;0;0;0
260.9957;1.65794;0.7234;0;0;0;0;0
261.4956;1.66156;0.725;0;0;0;0;0
261.9957;1.66501;0.7231;0;0;0;0;0
262.4958;1.66765;0.7243;0;0;0;0;0
262.9955;1.67202;0.7171;0;0;0;0;0
263.4955;1.67477;0.7183;0;0;0;0;0
263.9956;1.67793;0.7259;0;0;0;0;0
264.4954;1.68091;0.7212;0;0;0;0;0
264.9957;1.68483;0.7215;0;0;0;0;0
265.4955;1.68877;0.7212;0;0;0;0;0
265.9956;1.69135;0.7221;0;0;0;0;0
266.4954;1.69414;0.7164;0;0;0;0;0
266.9954;1.69802;0.7183;0;0;0;0;0
267.4955;1.70089;0.7202;0;0;0;0;0
267.9954;1.70435;0.7161;0;0;0;0;0
268.4956;1.7081;0.7209;0;0;0;0;0
268.9955;1.71121;0.7149;0;0;0;0;0
269.4953;1.71344;0.7209;0;0;0;0;0
269.9954;1.71801;0.7168;0;0;0;0;0
270.4954;1.72145;0.7161;0;0;0;0;0
270.9953;1.72467;0.7145;0;0;0;0;0
271.4953;1.72782;0.7152;0;0;0;0;0
271.9953;1.73177;0.7142;0;0;0;0;0
272.4956;1.73445;0.7161;0;0;0;0;0
272.9953;1.73761;0.7152;0;0;0;0;0
273.4953;1.74143;0.7127;0;0;0;0;0
273.9952;1.74457;0.7127;0;0;0;0;0
274.4954;1.74808;0.7117;0;0;0;0;0
274.9956;1.75202;0.7111;0;0;0;0;0
275.4956;1.75471;0.7089;0;0;0;0;0
275.9952;1.75845;0.6959;0;0;0;0;0
276.4954;1.76148;0.706;0;0;0;0;0
276.9952;1.76493;0.7035;0;0;0;0;0
277.4953;1.76833;0.7048;0;0;0;0;0
277.9953;1.77166;0.7019;0;0;0;0;0
278.4952;1.77518;0.6934;0;0;0;0;0
278.9951;1.7784;0.6883;0;0;0;0;0
279.4952;1.78204;0.6826;0;0;0;0;0
279.9955;1.78566;0.6788;0;0;0;0;0
280.4955;1.78997;0.6618;0;0;0;0;0
280.9951;1.79338;0.6374;0;0;0;0;0