File: LAB_DATA/AA7020-T6_results/DATA/SL_120_SH2_90_1.csv
Time[s];Displacement[mm];Force[kN];AxStrain_1;AxStrain_2;Thickness[mm];Width[mm];Inner width
0;0;0.001;0;0;1.018;20;0
0.5001;-0.00043723;-0.0009;0;0;0;0;0
1;-1.06E-03;-0.0038;0;0;0;0;0
1.5001;2.46256E-05;-0.0022;0;0;0;0;0
2;-0.000194681;-0.0025;0;0;0;0;0
2.5;-0.001344484;-0.0041;0;0;0;0;0
3;-0.001968856;0.0019;0;0;0;0;0
3.5;-0.001359121;-0.0035;0;0;0;0;0
4.0001;-9.40E-04;-0.0012;0;0;0;0;0
4.5002;-0.000652076;0.0067;0;0;0;0;0
5;0.00240125;0.0174;0;0;0;0;0
5.5;5.26E-03;0.0351;0;0;0;0;0
6;0.00793077;0.0474;0;0;0;0;0
6.5;0.0110717;0.0597;0;0;0;0;0
6.9999;0.0137509;0.0752;0;0;0;0;0
7.4999;0.0164185;0.0853;0;0;0;0;0
7.9999;0.0188123;0.1005;0;0;0;0;0
8.4999;0.021636;0.1132;0;0;0;0;0
8.9999;0.0247931;0.123;0;0;0;0;0
9.4999;0.0272678;0.1381;0;0;0;0;0
9.9999;0.0299482;0.1495;0;0;0;0;0
10.5001;0.0322081;0.1618;0;0;0;0;0
10.9999;0.0349511;0.1741;0;0;0;0;0
11.4999;0.0373381;0.1922;0;0;0;0;0
12.0001;0.0402582;0.202;0;0;0;0;0
12.4998;0.0430267;0.2095;0;0;0;0;0
13.0001;0.0460482;0.225;0;0;0;0;0
13.4999;0.0489532;0.2358;0;0;0;0;0
14.0001;0.0517913;0.2478;0;0;0;0;0
14.5001;0.0532365;0.2585;0;0;0;0;0
14.9998;0.05703257;0.2702;0;0;0;0;0
15.4998;0.05963428;0.2876;0;0;0;0;0
15.9998;0.0620231;0.2968;0;0;0;0;0
16.4998;6.50E-02;0.3069;0;0;0;0;0
16.9998;0.0682365;0.3214;0;0;0;0;0
17.4998;0.0706208;0.3243;0;0;0;0;0
17.9998;0.0738385;0.3375;0;0;0;0;0
18.4998;0.07628472;0.3511;0;0;0;0;0
18.9998;0.07970473;0.3562;0;0;0;0;0
19.4997;8.21E-02;0.3672;0;0;0;0;0
20;0.0851018;0.3815;0;0;0;0;0
20.4997;0.0874867;0.3887;0;0;0;0;0
20.9997;0.0907674;0.3932;0;0;0;0;0
21.4997;0.0935217;0.4077;0;0;0;0;0
21.9997;0.0961881;0.4118;0;0;0;0;0
22.4997;0.0991906;0.4238;0;0;0;0;0
22.9997;1.03E-01;0.4282;0;0;0;0;0
23.4997;0.105674;0.4383;0;0;0;0;0
23.9999;0.107713;0.4478;0;0;0;0;0
24.4997;0.111199;0.4535;0;0;0;0;0
24.9997;1.13E-01;0.4646;0;0;0;0;0
25.4997;0.116293;0.463;0;0;0;0;0
25.9996;0.119873;0.4756;0;0;0;0;0
26.4996;0.122259;0.4791;0;0;0;0;0
26.9996;0.125908;0.4864;0;0;0;0;0
27.4996;1.29E-01;0.493;0;0;0;0;0
27.9998;1.32E-01;0.4981;0;0;0;0;0
28.4996;0.134162;0.5047;0;0;0;0;0
28.9996;0.137721;0.5113;0;0;0;0;0
29.4996;0.140486;0.512;0;0;0;0;0
29.9996;1.43E-01;0.5192;0;0;0;0;0
30.4996;0.146547;0.5208;0;0;0;0;0
30.9996;0.148921;0.5306;0;0;0;0;0
31.4995;1.53E-01;0.5325;0;0;0;0;0
31.9996;0.155686;0.5376;0;0;0;0;0
32.4995;0.158973;0.5426;0;0;0;0;0
32.9995;0.162052;0.5471;0;0;0;0;0
33.4995;0.16482;0.5499;0;0;0;0;0
33.9995;1.68E-01;0.5452;0;0;0;0;0
34.4995;1.71E-01;0.5559;0;0;0;0;0
34.9995;1.75E-01;0.561;0;0;0;0;0
35.4995;1.77E-01;0.572;0;0;0;0;0
35.9997;1.81E-01;0.5723;0;0;0;0;0
36.4995;0.183936;0.5704;0;0;0;0;0
36.9995;1.88E-01;0.5783;0;0;0;0;0
37.4995;0.190297;0.5752;0;0;0;0;0
37.9994;0.193691;0.5831;0;0;0;0;0
38.4994;0.196218;0.5831;0;0;0;0;0
38.9994;1.99E-01;0.5843;0;0;0;0;0
39.4994;0.202991;0.5938;0;0;0;0;0
39.9994;0.205782;0.5913;0;0;0;0;0
40.4994;0.209027;0.596;0;0;0;0;0
40.9994;0.212432;0.5954;0;0;0;0;0
41.4994;2.15E-01;0.5998;0;0;0;0;0
41.9994;0.21867;0.6033;0;0;0;0;0
42.4994;0.22181;0.6106;0;0;0;0;0
42.9993;0.225499;0.6039;0;0;0;0;0
43.4993;2.28E-01;0.615;0;0;0;0;0
43.9994;2.31E-01;0.6169;0;0;0;0;0
44.4993;0.23433;0.6137;0;0;0;0;0
44.9993;2.38E-01;0.6191;0;0;0;0;0
45.4993;2.41E-01;0.6235;0;0;0;0;0
45.9993;2.44E-01;0.6276;0;0;0;0;0
46.4995;0.247229;0.6251;0;0;0;0;0
46.9993;2.50E-01;0.6283;0;0;0;0;0
47.4993;0.25323;0.634;0;0;0;0;0
47.9993;0.256887;0.6333;0;0;0;0;0
48.4995;0.260448;0.6333;0;0;0;0;0
48.9992;2.63E-01;0.6365;0;0;0;0;0
49.4992;0.266459;0.6403;0;0;0;0;0
49.9993;2.69E-01;0.6419;0;0;0;0;0
50.4992;2.73E-01;0.6482;0;0;0;0;0
50.9992;2.76E-01;0.6472;0;0;0;0;0
51.4992;0.278952;0.6491;0;0;0;0;0
51.9992;2.82E-01;0.6536;0;0;0;0;0
52.4992;0.285439;0.6561;0;0;0;0;0
52.9992;0.289026;0.6573;0;0;0;0;0
53.4992;0.291817;0.6567;0;0;0;0;0
53.9991;0.294925;0.6618;0;0;0;0;0
54.4992;0.298076;0.6605;0;0;0;0;0
54.9991;0.301383;0.6624;0;0;0;0;0
55.4994;0.304774;0.669;0;0;0;0;0
55.9991;0.308132;0.6687;0;0;0;0;0
56.4991;0.311543;0.6684;0;0;0;0;0
56.9991;3.14E-01;0.6662;0;0;0;0;0
57.4991;0.317695;0.6735;0;0;0;0;0
57.9991;3.20E-01;0.6738;0;0;0;0;0
58.4991;0.323404;0.6728;0;0;0;0;0
58.9991;0.326731;0.6709;0;0;0;0;0
59.4991;0.329689;0.6814;0;0;0;0;0
59.9991;0.333418;0.6842;0;0;0;0;0
60.4991;0.336459;0.6757;0;0;0;0;0
60.9993;0.339789;0.6867;0;0;0;0;0
61.499;0.343143;0.6852;0;0;0;0;0
61.999;3.46E-01;0.6886;0;0;0;0;0
62.499;3.49E-01;0.6905;0;0;0;0;0
62.999;0.352271;0.6912;0;0;0;0;0
63.4991;0.355574;0.6918;0;0;0;0;0
63.999;0.358863;0.6921;0;0;0;0;0
64.499;0.361809;0.6978;0;0;0;0;0
64.9992;3.66E-01;0.6984;0;0;0;0;0
65.499;0.368256;0.6987;0;0;0;0;0
65.999;0.372094;0.7025;0;0;0;0;0
66.4989;0.374831;0.7022;0;0;0;0;0
66.9989;3.78E-01;0.7051;0;0;0;0;0
67.4989;3.81E-01;0.7051;0;0;0;0;0
67.9992;0.384505;0.7089;0;0;0;0;0
68.4989;0.387179;0.7073;0;0;0;0;0
68.999;0.391083;0.7145;0;0;0;0;0
69.4989;3.94E-01;0.7139;0;0;0;0;0
69.9989;0.397214;0.7133;0;0;0;0;0
70.4989;0.400056;0.7142;0;0;0;0;0
70.9989;0.40365;0.7152;0;0;0;0;0
71.4989;0.406854;0.718;0;0;0;0;0
71.9989;0.410044;0.718;0;0;0;0;0
72.4988;4.13E-01;0.7171;0;0;0;0;0
72.9988;4.17E-01;0.7206;0;0;0;0;0
73.4988;4.20E-01;0.7221;0;0;0;0;0
73.9988;0.423208;0.731;0;0;0;0;0
74.4988;4.27E-01;0.719;0;0;0;0;0
74.9988;4.29E-01;0.7278;0;0;0;0;0
75.4988;0.432492;0.7256;0;0;0;0;0
75.9988;0.435645;0.7272;0;0;0;0;0
76.4988;0.43903;0.7351;0;0;0;0;0
76.9988;0.441266;0.7266;0;0;0;0;0
77.4988;0.445069;0.7322;0;0;0;0;0
77.9988;0.448744;0.7376;0;0;0;0;0
78.4988;4.51E-01;0.7316;0;0;0;0;0
78.9987;0.45544;0.7316;0;0;0;0;0
79.499;0.457898;0.7398;0;0;0;0;0
79.9987;0.461806;0.737;0;0;0;0;0
80.4987;0.464941;0.736;0;0;0;0;0
80.9987;0.467526;0.743;0;0;0;0;0
81.4987;0.471116;0.7405;0;0;0;0;0
81.9987;0.475233;0.7398;0;0;0;0;0
82.4987;4.78E-01;0.7414;0;0;0;0;0
82.9987;4.80E-01;0.7452;0;0;0;0;0
83.4989;4.84E-01;0.742;0;0;0;0;0
83.9987;4.87E-01;0.7509;0;0;0;0;0
84.4986;0.490436;0.7433;0;0;0;0;0
84.9986;4.94E-01;0.7525;0;0;0;0;0
85.4986;0.496753;0.7465;0;0;0;0;0
85.9986;5.00E-01;0.7509;0;0;0;0;0
86.4986;5.03E-01;0.7522;0;0;0;0;0
86.9986;0.506876;0.7553;0;0;0;0;0
87.4986;0.509974;0.7487;0;0;0;0;0
87.9986;5.13E-01;0.7607;0;0;0;0;0
88.4986;0.516714;0.7566;0;0;0;0;0
88.9986;0.519491;0.761;0;0;0;0;0
89.4988;0.522852;0.7629;0;0;0;0;0
89.9986;0.526093;0.7607;0;0;0;0;0
90.4986;0.529531;0.7613;0;0;0;0;0
90.9985;0.532679;0.767;0;0;0;0;0
91.4985;0.536285;0.762;0;0;0;0;0
91.9985;5.39E-01;0.7629;0;0;0;0;0
92.4985;0.542485;0.7635;0;0;0;0;0
92.9985;5.46E-01;0.7626;0;0;0;0;0
93.4985;5.49E-01;0.7717;0;0;0;0;0
93.9985;5.52E-01;0.767;0;0;0;0;0
94.4985;0.55598;0.7661;0;0;0;0;0
94.9985;0.558792;0.7686;0;0;0;0;0
95.4985;0.562779;0.773;0;0;0;0;0
95.9984;0.565584;0.7705;0;0;0;0;0
96.4985;0.567889;0.7724;0;0;0;0;0
96.9987;5.72E-01;0.7765;0;0;0;0;0
97.4984;0.574863;0.7771;0;0;0;0;0
97.9984;0.578124;0.7762;0;0;0;0;0
98.4984;0.581521;0.7774;0;0;0;0;0
98.9986;0.585073;0.7787;0;0;0;0;0
99.4986;5.88E-01;0.7822;0;0;0;0;0
99.9984;5.91E-01;0.7755;0;0;0;0;0
100.4984;0.594838;0.7778;0;0;0;0;0
100.9984;5.98E-01;0.7812;0;0;0;0;0
101.4984;6.02E-01;0.7822;0;0;0;0;0
101.9984;0.604427;0.7819;0;0;0;0;0
102.4983;0.607884;0.779;0;0;0;0;0
102.9983;6.11E-01;0.7796;0;0;0;0;0
103.4983;6.14E-01;0.7876;0;0;0;0;0
103.9983;0.617305;0.7876;0;0;0;0;0
104.4983;6.21E-01;0.786;0;0;0;0;0
104.9983;6.24E-01;0.7901;0;0;0;0;0
105.4983;0.626894;0.7898;0;0;0;0;0
105.9983;0.630315;0.7894;0;0;0;0;0
106.4983;6.33E-01;0.7888;0;0;0;0;0
106.9983;0.63708;0.7913;0;0;0;0;0
107.4983;0.640257;0.7882;0;0;0;0;0
107.9985;0.643496;0.7923;0;0;0;0;0
108.4985;0.646916;0.7973;0;0;0;0;0
108.9982;0.649354;0.792;0;0;0;0;0
109.4982;0.653217;0.792;0;0;0;0;0
109.9982;0.65584;0.7973;0;0;0;0;0
110.4982;0.65977;0.7945;0;0;0;0;0
110.9982;6.64E-01;0.7964;0;0;0;0;0
111.4982;0.666369;0.7942;0;0;0;0;0
111.9982;6.70E-01;0.7951;0;0;0;0;0
112.4982;0.673365;0.7989;0;0;0;0;0
112.9982;6.76E-01;0.7986;0;0;0;0;0
113.4982;0.679445;0.7992;0;0;0;0;0
113.9981;0.682808;0.8008;0;0;0;0;0
114.4984;0.68574;0.8021;0;0;0;0;0
114.9984;0.6892;0.7989;0;0;0;0;0
115.4981;0.692592;0.798;0;0;0;0;0
115.9981;0.695176;0.8027;0;0;0;0;0
116.4981;6.99E-01;0.8008;0;0;0;0;0
116.9984;0.702108;0.8018;0;0;0;0;0
117.4983;7.05E-01;0.8046;0;0;0;0;0
117.9983;0.708556;0.8065;0;0;0;0;0
118.4981;7.12E-01;0.8075;0;0;0;0;0
118.9981;0.716091;0.8084;0;0;0;0;0
119.4981;7.19E-01;0.8113;0;0;0;0;0
119.9981;0.721941;0.8141;0;0;0;0;0
120.4983;0.724478;0.8097;0;0;0;0;0
120.998;0.728084;0.8109;0;0;0;0;0
121.4981;0.731306;0.7951;0;0;0;0;0
121.998;0.734363;0.8144;0;0;0;0;0
122.498;7.38E-01;0.8128;0;0;0;0;0
122.9982;0.741239;0.8131;0;0;0;0;0
123.498;0.74496;0.8116;0;0;0;0;0
123.998;0.748364;0.815;0;0;0;0;0
124.498;0.751164;0.8078;0;0;0;0;0
124.998;7.55E-01;0.8141;0;0;0;0;0
125.498;0.757769;0.8125;0;0;0;0;0
125.9979;7.61E-01;0.8144;0;0;0;0;0
126.4979;0.764469;0.8185;0;0;0;0;0
126.998;7.68E-01;0.8157;0;0;0;0;0
127.4979;0.770945;0.816;0;0;0;0;0
127.9979;0.77472;0.8141;0;0;0;0;0
128.4982;0.777212;0.815;0;0;0;0;0
128.9979;0.780747;0.8192;0;0;0;0;0
129.4981;7.84E-01;0.8192;0;0;0;0;0
129.9981;0.787594;0.8201;0;0;0;0;0
130.4979;0.790526;0.816;0;0;0;0;0
130.9979;0.793644;0.8201;0;0;0;0;0
131.4979;7.97E-01;0.8185;0;0;0;0;0
131.9979;8.00E-01;0.8214;0;0;0;0;0
132.4979;0.803661;0.8223;0;0;0;0;0
132.9981;0.806592;0.8223;0;0;0;0;0
133.498;8.10E-01;0.8248;0;0;0;0;0
133.9978;0.813433;0.8214;0;0;0;0;0
134.4978;0.8167;0.8198;0;0;0;0;0
134.9978;0.820395;0.8188;0;0;0;0;0
135.4978;0.823589;0.8229;0;0;0;0;0
135.9978;0.826366;0.8277;0;0;0;0;0
136.4978;0.829931;0.8283;0;0;0;0;0
136.998;0.833163;0.8315;0;0;0;0;0
137.4978;0.836459;0.8299;0;0;0;0;0
137.9977;8.39E-01;0.8248;0;0;0;0;0
138.4978;0.842717;0.8296;0;0;0;0;0
138.9977;0.84567;0.828;0;0;0;0;0
139.4977;0.849765;0.8312;0;0;0;0;0
139.9977;0.852475;0.8302;0;0;0;0;0
140.4977;8.56E-01;0.8302;0;0;0;0;0
140.9977;8.59E-01;0.8331;0;0;0;0;0
141.4977;0.862771;0.8343;0;0;0;0;0
141.9977;0.865893;0.8356;0;0;0;0;0
142.4977;8.69E-01;0.8261;0;0;0;0;0
142.9977;0.872145;0.8293;0;0;0;0;0
143.4977;0.874992;0.8362;0;0;0;0;0
143.9977;0.878242;0.8384;0;0;0;0;0
144.4977;0.881588;0.8346;0;0;0;0;0
144.9976;0.884437;0.8331;0;0;0;0;0
145.4976;0.88743;0.835;0;0;0;0;0
145.9976;0.892258;0.8346;0;0;0;0;0
146.4976;0.894968;0.8283;0;0;0;0;0
146.9978;8.98E-01;0.828;0;0;0;0;0
147.4976;0.901689;0.8384;0;0;0;0;0
147.9976;0.904908;0.8346;0;0;0;0;0
148.4976;9.08E-01;0.8381;0;0;0;0;0
148.9976;0.911622;0.841;0;0;0;0;0
149.4978;9.15E-01;0.8312;0;0;0;0;0
149.9975;0.918233;0.8334;0;0;0;0;0
150.4975;0.920857;0.8356;0;0;0;0;0
150.9978;0.924768;0.8305;0;0;0;0;0
151.4978;0.927636;0.841;0;0;0;0;0
151.9975;0.931129;0.8365;0;0;0;0;0
152.4975;0.934189;0.841;0;0;0;0;0
152.9975;0.938083;0.8429;0;0;0;0;0
153.4975;0.94124;0.8422;0;0;0;0;0
153.9975;0.945136;0.8419;0;0;0;0;0
154.4977;0.947279;0.8387;0;0;0;0;0
154.9975;0.950644;0.8422;0;0;0;0;0
155.4975;0.954636;0.8425;0;0;0;0;0
155.9977;0.957653;0.8435;0;0;0;0;0
156.4975;0.960663;0.8435;0;0;0;0;0
156.9977;0.964014;0.847;0;0;0;0;0
157.4974;0.966828;0.8435;0;0;0;0;0
157.9974;0.970373;0.8479;0;0;0;0;0
158.4974;0.974486;0.8432;0;0;0;0;0
158.9974;0.977152;0.8435;0;0;0;0;0
159.4974;0.980774;0.8463;0;0;0;0;0
159.9974;0.983735;0.8466;0;0;0;0;0
160.4974;0.987278;0.8441;0;0;0;0;0
160.9974;9.91E-01;0.8476;0;0;0;0;0
161.4973;0.993769;0.8444;0;0;0;0;0
161.9973;0.997158;0.8432;0;0;0;0;0
162.4974;0.999792;0.846;0;0;0;0;0
162.9976;1.00242;0.8511;0;0;0;0;0
163.4976;1.01E+00;0.8482;0;0;0;0;0
163.9976;1.0095;0.8517;0;0;0;0;0
164.4973;1.013;0.8448;0;0;0;0;0
164.9973;1.01614;0.8498;0;0;0;0;0
165.4973;1.02E+00;0.8435;0;0;0;0;0
165.9973;1.02308;0.8508;0;0;0;0;0
166.4973;1.02682;0.8495;0;0;0;0;0
166.9973;1.02915;0.8549;0;0;0;0;0
167.4973;1.0325;0.852;0;0;0;0;0
167.9972;1.04E+00;0.8542;0;0;0;0;0
168.4973;1.04E+00;0.8523;0;0;0;0;0
168.9972;1.04305;0.8517;0;0;0;0;0
169.4975;1.05E+00;0.8542;0;0;0;0;0
169.9972;1.04889;0.8492;0;0;0;0;0
170.4972;1.05E+00;0.8555;0;0;0;0;0
170.9972;1.05497;0.8514;0;0;0;0;0
171.4972;1.05905;0.8571;0;0;0;0;0
171.9972;1.06238;0.8542;0;0;0;0;0
172.4972;1.06549;0.8561;0;0;0;0;0
172.9972;1.06873;0.8574;0;0;0;0;0
173.4972;1.07208;0.8539;0;0;0;0;0
173.9971;1.07E+00;0.8621;0;0;0;0;0
174.4971;1.08E+00;0.8536;0;0;0;0;0
174.9971;1.08192;0.8504;0;0;0;0;0
175.4971;1.09E+00;0.8564;0;0;0;0;0
175.9971;1.08843;0.8599;0;0;0;0;0
176.4971;1.0919;0.8593;0;0;0;0;0
176.9971;1.09E+00;0.8596;0;0;0;0;0
177.4971;1.09862;0.8656;0;0;0;0;0
177.9971;1.10154;0.8545;0;0;0;0;0
178.4971;1.10457;0.853;0;0;0;0;0
178.9971;1.10857;0.8533;0;0;0;0;0
179.4971;1.1109;0.8555;0;0;0;0;0
179.9971;1.11484;0.858;0;0;0;0;0
180.4973;1.12E+00;0.8561;0;0;0;0;0
180.997;1.12097;0.8577;0;0;0;0;0
181.497;1.12437;0.8637;0;0;0;0;0
181.997;1.12772;0.8561;0;0;0;0;0
182.497;1.1308;0.8564;0;0;0;0;0
182.997;1.13403;0.8542;0;0;0;0;0
183.497;1.13739;0.8504;0;0;0;0;0
183.997;1.14053;0.8631;0;0;0;0;0
184.497;1.14403;0.8574;0;0;0;0;0
184.997;1.14701;0.858;0;0;0;0;0
185.4972;1.15E+00;0.8593;0;0;0;0;0
185.9969;1.15387;0.8593;0;0;0;0;0
186.4972;1.15723;0.8602;0;0;0;0;0
186.997;1.15999;0.8659;0;0;0;0;0
187.4972;1.16333;0.8583;0;0;0;0;0
187.9969;1.16668;0.8618;0;0;0;0;0
188.4969;1.1703;0.8653;0;0;0;0;0
188.9969;1.17319;0.8669;0;0;0;0;0
189.4969;1.17657;0.8621;0;0;0;0;0
189.9971;1.18E+00;0.8647;0;0;0;0;0
190.4971;1.18305;0.865;0;0;0;0;0
190.9969;1.18582;0.8703;0;0;0;0;0
191.4969;1.18929;0.8612;0;0;0;0;0
191.9969;1.19211;0.8637;0;0;0;0;0
192.4968;1.19569;0.8643;0;0;0;0;0
192.9968;1.19875;0.865;0;0;0;0;0
193.4968;1.20231;0.8647;0;0;0;0;0
193.9968;1.20599;0.8656;0;0;0;0;0
194.4969;1.20881;0.8634;0;0;0;0;0
194.9968;1.2125;0.8697;0;0;0;0;0
195.4968;1.2156;0.8678;0;0;0;0;0
195.9968;1.22E+00;0.865;0;0;0;0;0
196.497;1.22173;0.8688;0;0;0;0;0
196.9968;1.22552;0.8647;0;0;0;0;0
197.4968;1.22847;0.8669;0;0;0;0;0
197.9967;1.23166;0.8631;0;0;0;0;0
198.497;1.23477;0.8621;0;0;0;0;0
198.9967;1.24E+00;0.8719;0;0;0;0;0
199.4967;1.24139;0.8681;0;0;0;0;0
199.9967;1.25E+00;0.8672;0;0;0;0;0
200.497;1.24801;0.8691;0;0;0;0;0
200.9967;1.25137;0.865;0;0;0;0;0
201.4967;1.25475;0.8675;0;0;0;0;0
201.9967;1.25817;0.8672;0;0;0;0;0
202.4967;1.26108;0.8669;0;0;0;0;0
202.9967;1.26487;0.8634;0;0;0;0;0
203.4967;1.26768;0.8681;0;0;0;0;0
203.9967;1.27137;0.8659;0;0;0;0;0
204.4966;1.27403;0.865;0;0;0;0;0
204.9966;1.27714;0.8707;0;0;0;0;0
205.4969;1.28075;0.8697;0;0;0;0;0
205.9969;1.28438;0.8678;0;0;0;0;0
206.4966;1.28777;0.8685;0;0;0;0;0
206.9966;1.29001;0.871;0;0;0;0;0
207.4968;1.29362;0.8716;0;0;0;0;0
207.9966;1.29706;0.8713;0;0;0;0;0
208.4968;1.30E+00;0.8729;0;0;0;0;0
208.9968;1.30351;0.8688;0;0;0;0;0
209.4966;1.31E+00;0.8707;0;0;0;0;0
209.9965;1.30992;0.8685;0;0;0;0;0
210.4965;1.31335;0.87;0;0;0;0;0
210.9968;1.31701;0.8732;0;0;0;0;0
211.4965;1.32019;0.8754;0;0;0;0;0
211.9965;1.32347;0.8751;0;0;0;0;0
212.4965;1.32672;0.8722;0;0;0;0;0
212.9965;1.32963;0.871;0;0;0;0;0
213.4965;1.33E+00;0.871;0;0;0;0;0
213.9965;1.33613;0.8675;0;0;0;0;0
214.4965;1.34E+00;0.87;0;0;0;0;0
214.9965;1.34276;0.8735;0;0;0;0;0
215.4967;1.35E+00;0.8719;0;0;0;0;0
215.9965;1.34961;0.8678;0;0;0;0;0
216.4967;1.35315;0.8754;0;0;0;0;0
216.9964;1.35627;0.871;0;0;0;0;0
217.4964;1.35904;0.8751;0;0;0;0;0
217.9964;1.36276;0.8748;0;0;0;0;0
218.4966;1.36585;0.8735;0;0;0;0;0
218.9964;1.36969;0.8757;0;0;0;0;0
219.4964;1.37216;0.8703;0;0;0;0;0
219.9964;1.38E+00;0.8738;0;0;0;0;0
220.4964;1.37898;0.8726;0;0;0;0;0
220.9964;1.38214;0.8776;0;0;0;0;0
221.4964;1.38498;0.8754;0;0;0;0;0
221.9966;1.38901;0.8741;0;0;0;0;0
222.4966;1.39194;0.8735;0;0;0;0;0
222.9963;1.39535;0.871;0;0;0;0;0
223.4966;1.39823;0.8789;0;0;0;0;0
223.9963;1.40244;0.8754;0;0;0;0;0
224.4963;1.40526;0.8754;0;0;0;0;0
224.9963;1.40878;0.876;0;0;0;0;0
225.4963;1.41178;0.8767;0;0;0;0;0
225.9963;1.41513;0.8782;0;0;0;0;0
226.4963;1.41881;0.8745;0;0;0;0;0
226.9963;1.42314;0.8817;0;0;0;0;0
227.4963;1.43E+00;0.8801;0;0;0;0;0
227.9965;1.42861;0.8751;0;0;0;0;0
228.4963;1.43E+00;0.8779;0;0;0;0;0
228.9965;1.43443;0.8811;0;0;0;0;0
229.4962;1.43833;0.8789;0;0;0;0;0
229.9962;1.44128;0.8776;0;0;0;0;0
230.4962;1.44464;0.8789;0;0;0;0;0
230.9962;1.45E+00;0.8745;0;0;0;0;0
231.4962;1.45111;0.877;0;0;0;0;0
231.9962;1.45423;0.8817;0;0;0;0;0
232.4964;1.45734;0.8808;0;0;0;0;0
232.9962;1.46109;0.8751;0;0;0;0;0
233.4962;1.46395;0.8757;0;0;0;0;0
233.9961;1.46721;0.8779;0;0;0;0;0
234.4961;1.47099;0.8738;0;0;0;0;0
234.9962;1.47374;0.8786;0;0;0;0;0
235.4961;1.47761;0.8805;0;0;0;0;0
235.9964;1.48101;0.8795;0;0;0;0;0
236.4964;1.48425;0.8786;0;0;0;0;0
236.9963;1.48685;0.8767;0;0;0;0;0
237.4961;1.49051;0.8779;0;0;0;0;0
237.9961;1.49235;0.8779;0;0;0;0;0
238.4963;1.49667;0.8786;0;0;0;0;0
238.9961;1.50016;0.8817;0;0;0;0;0
239.4961;1.50335;0.8795;0;0;0;0;0
239.9961;1.51E+00;0.871;0;0;0;0;0
240.4961;1.51064;0.8836;0;0;0;0;0
240.9961;1.51356;0.882;0;0;0;0;0
241.4963;1.51645;0.8798;0;0;0;0;0
241.996;1.52E+00;0.8751;0;0;0;0;0
242.496;1.52279;0.8754;0;0;0;0;0
242.996;1.5264;0.8801;0;0;0;0;0
243.496;1.52962;0.8792;0;0;0;0;0
243.996;1.53243;0.8726;0;0;0;0;0
244.496;1.53624;0.8792;0;0;0;0;0
244.9962;1.53957;0.8798;0;0;0;0;0
245.496;1.5427;0.8814;0;0;0;0;0
245.9959;1.5459;0.876;0;0;0;0;0
246.4959;1.5494;0.8748;0;0;0;0;0
246.9959;1.55261;0.876;0;0;0;0;0
247.4959;1.55609;0.8773;0;0;0;0;0
247.9959;1.55974;0.8656;0;0;0;0;0
248.4959;1.56264;0.8707;0;0;0;0;0
248.9959;1.5666;0.8637;0;0;0;0;0
249.4959;1.56987;0.8606;0;0;0;0;0