File: LAB_DATA/AA7020-T6_results/DATA/SL_210_SH2_90_1.csv
Time[s];Displacement[mm];Force[kN];AxStrain_1;AxStrain_2;Thickness[mm];Width[mm];Inner width
0;0;-0.0003;0;0;1.022;20;0
0.25;3.3076E-05;0.0067;0;0;0;0;0
0.75;8.86E-06;0.0007;0;0;0;0;0
1.2503;0.0003704;-0.0003;0;0;0;0;0
1.75;0.000914084;0.0019;0;0;0;0;0
2.2501;0.001641692;0.0086;0;0;0;0;0
2.7501;0.000643166;0.0054;0;0;0;0;0
3.25;0.002321694;0.0054;0;0;0;0;0
3.7502;4.26E-03;0.0029;0;0;0;0;0
4.25;0.000782799;-0.0016;0;0;0;0;0
4.7499;0.001337635;0.0051;0;0;0;0;0
5.2499;3.02E-03;0.0155;0;0;0;0;0
5.7499;0.00586325;0.0269;0;0;0;0;0
6.25;0.007149455;0.0348;0;0;0;0;0
6.7501;0.0112632;0.0496;0;0;0;0;0
7.25;0.0135584;0.0661;0;0;0;0;0
7.7502;0.0171468;0.0759;0;0;0;0;0
8.2502;0.0184367;0.0904;0;0;0;0;0
8.7501;0.0217806;0.0967;0;0;0;0;0
9.2499;0.0249628;0.1116;0;0;0;0;0
9.7498;0.0272883;0.1176;0;0;0;0;0
10.2498;0.0296799;0.1337;0;0;0;0;0
10.7498;0.0331169;0.1425;0;0;0;0;0
11.2499;0.0361549;0.1542;0;0;0;0;0
11.7498;0.0383226;0.1656;0;0;0;0;0
12.2501;0.0414724;0.1751;0;0;0;0;0
12.7499;0.04503775;0.1877;0;0;0;0;0
13.2499;0.0478365;0.1953;0;0;0;0;0
13.7498;0.049788;0.207;0;0;0;0;0
14.2501;0.05363758;0.2197;0;0;0;0;0
14.7499;0.0556289;0.2222;0;0;0;0;0
15.2497;0.0588809;0.2345;0;0;0;0;0
15.75;0.0612616;0.2449;0;0;0;0;0
16.2498;6.40E-02;0.2494;0;0;0;0;0
16.75;0.0667103;0.2557;0;0;0;0;0
17.2498;0.0700744;0.269;0;0;0;0;0
17.7498;0.0727775;0.2765;0;0;0;0;0
18.2498;0.0755424;0.281;0;0;0;0;0
18.7497;0.0791022;0.2904;0;0;0;0;0
19.2498;8.19E-02;0.2974;0;0;0;0;0
19.7497;0.0856491;0.3037;0;0;0;0;0
20.2497;0.088605;0.3132;0;0;0;0;0
20.7497;0.0910815;0.3164;0;0;0;0;0
21.2497;0.0928508;0.3145;0;0;0;0;0
21.7497;0.0973815;0.3322;0;0;0;0;0
22.2497;0.101063;0.3236;0;0;0;0;0
22.7497;1.03E-01;0.3388;0;0;0;0;0
23.2497;0.10647;0.3363;0;0;0;0;0
23.7496;0.10938;0.3397;0;0;0;0;0
24.2497;0.113413;0.3524;0;0;0;0;0
24.7496;1.15E-01;0.3502;0;0;0;0;0
25.2495;0.119092;0.3537;0;0;0;0;0
25.7496;0.121735;0.3581;0;0;0;0;0
26.2497;0.125195;0.366;0;0;0;0;0
26.7496;0.128967;0.3634;0;0;0;0;0
27.2496;1.32E-01;0.366;0;0;0;0;0
27.7496;1.35E-01;0.3761;0;0;0;0;0
28.2496;0.138774;0.3758;0;0;0;0;0
28.7497;0.141269;0.3792;0;0;0;0;0
29.2496;0.144316;0.3811;0;0;0;0;0
29.7496;1.48E-01;0.3865;0;0;0;0;0
30.2495;0.150512;0.3843;0;0;0;0;0
30.7495;0.153089;0.39;0;0;0;0;0
31.2496;1.57E-01;0.395;0;0;0;0;0
31.7495;0.159371;0.3887;0;0;0;0;0
32.2496;0.162788;0.3963;0;0;0;0;0
32.7495;0.16533;0.3985;0;0;0;0;0
33.2496;0.169494;0.403;0;0;0;0;0
33.7495;1.73E-01;0.4109;0;0;0;0;0
34.2495;1.76E-01;0.4127;0;0;0;0;0
34.7494;1.79E-01;0.4112;0;0;0;0;0
35.2495;1.82E-01;0.4172;0;0;0;0;0
35.7494;1.85E-01;0.4124;0;0;0;0;0
36.2495;0.187998;0.4184;0;0;0;0;0
36.7494;1.92E-01;0.42;0;0;0;0;0
37.2495;0.195734;0.4206;0;0;0;0;0
37.7494;0.198621;0.4251;0;0;0;0;0
38.2495;0.201021;0.4298;0;0;0;0;0
38.7494;2.04E-01;0.4276;0;0;0;0;0
39.2494;0.207672;0.432;0;0;0;0;0
39.7493;0.211315;0.4336;0;0;0;0;0
40.2493;0.214755;0.4333;0;0;0;0;0
40.7493;0.217489;0.4339;0;0;0;0;0
41.2494;2.21E-01;0.4418;0;0;0;0;0
41.7493;0.223826;0.439;0;0;0;0;0
42.2498;0.226714;0.4418;0;0;0;0;0
42.7494;0.230625;0.4466;0;0;0;0;0
43.2496;2.32E-01;0.4428;0;0;0;0;0
43.7493;2.37E-01;0.4443;0;0;0;0;0
44.2493;0.239803;0.4516;0;0;0;0;0
44.7494;2.43E-01;0.4519;0;0;0;0;0
45.2492;2.47E-01;0.4557;0;0;0;0;0
45.7492;2.51E-01;0.45;0;0;0;0;0
46.2493;0.252966;0.4595;0;0;0;0;0
46.7492;2.57E-01;0.4627;0;0;0;0;0
47.2495;0.259859;0.457;0;0;0;0;0
47.7495;0.263116;0.4592;0;0;0;0;0
48.2493;0.266159;0.4633;0;0;0;0;0
48.7494;2.70E-01;0.4662;0;0;0;0;0
49.2492;0.271723;0.4617;0;0;0;0;0
49.7491;2.75E-01;0.4706;0;0;0;0;0
50.2491;2.79E-01;0.4699;0;0;0;0;0
50.7492;2.82E-01;0.4658;0;0;0;0;0
51.2496;0.284462;0.4706;0;0;0;0;0
51.7494;2.89E-01;0.4718;0;0;0;0;0
52.2492;0.29189;0.4725;0;0;0;0;0
52.7494;0.294901;0.4753;0;0;0;0;0
53.2492;0.297968;0.4813;0;0;0;0;0
53.7495;0.301825;0.4829;0;0;0;0;0
54.2491;0.304572;0.4848;0;0;0;0;0
54.7492;0.307989;0.4861;0;0;0;0;0
55.249;0.311775;0.481;0;0;0;0;0
55.7491;0.31374;0.4902;0;0;0;0;0
56.2491;0.317492;0.4902;0;0;0;0;0
56.749;3.20E-01;0.487;0;0;0;0;0
57.2491;0.32485;0.4962;0;0;0;0;0
57.7493;3.27E-01;0.4949;0;0;0;0;0
58.2491;0.330509;0.4924;0;0;0;0;0
58.749;0.333549;0.499;0;0;0;0;0
59.2491;0.337523;0.4993;0;0;0;0;0
59.749;0.340132;0.4949;0;0;0;0;0
60.2489;0.343925;0.4997;0;0;0;0;0
60.749;0.347257;0.4974;0;0;0;0;0
61.2492;0.350454;0.5006;0;0;0;0;0
61.749;3.54E-01;0.5053;0;0;0;0;0
62.249;3.57E-01;0.5003;0;0;0;0;0
62.7492;0.36025;0.5107;0;0;0;0;0
63.249;0.363628;0.5057;0;0;0;0;0
63.7489;0.366533;0.5129;0;0;0;0;0
64.249;0.369032;0.5098;0;0;0;0;0
64.7489;3.73E-01;0.5098;0;0;0;0;0
65.2488;0.376644;0.512;0;0;0;0;0
65.7491;0.379519;0.5142;0;0;0;0;0
66.2491;0.38289;0.5183;0;0;0;0;0
66.7489;3.86E-01;0.518;0;0;0;0;0
67.2489;3.89E-01;0.5164;0;0;0;0;0
67.7489;0.392161;0.5186;0;0;0;0;0
68.2489;0.395933;0.5215;0;0;0;0;0
68.7489;0.399507;0.5208;0;0;0;0;0
69.2489;4.02E-01;0.5199;0;0;0;0;0
69.7488;0.405133;0.5281;0;0;0;0;0
70.2488;0.408303;0.5268;0;0;0;0;0
70.7488;0.411157;0.5265;0;0;0;0;0
71.2489;0.415157;0.5306;0;0;0;0;0
71.7488;0.418807;0.5265;0;0;0;0;0
72.2491;4.22E-01;0.5335;0;0;0;0;0
72.7488;4.25E-01;0.5344;0;0;0;0;0
73.2489;4.29E-01;0.5332;0;0;0;0;0
73.749;0.432047;0.5303;0;0;0;0;0
74.2488;4.35E-01;0.5357;0;0;0;0;0
74.7487;4.39E-01;0.5366;0;0;0;0;0
75.2487;0.440885;0.5366;0;0;0;0;0
75.7487;0.445515;0.5439;0;0;0;0;0
76.2488;0.448083;0.5442;0;0;0;0;0
76.7487;0.451293;0.5392;0;0;0;0;0
77.2488;0.454302;0.5411;0;0;0;0;0
77.7488;0.45788;0.5373;0;0;0;0;0
78.2488;4.61E-01;0.5483;0;0;0;0;0
78.7489;0.464327;0.5433;0;0;0;0;0
79.2487;0.466694;0.5474;0;0;0;0;0
79.7486;0.470306;0.5458;0;0;0;0;0
80.2486;0.474332;0.5474;0;0;0;0;0
80.7489;0.477421;0.5499;0;0;0;0;0
81.2487;0.481312;0.5505;0;0;0;0;0
81.7486;0.484214;0.5505;0;0;0;0;0
82.2487;4.88E-01;0.5524;0;0;0;0;0
82.7487;4.90E-01;0.5496;0;0;0;0;0
83.2487;4.94E-01;0.5521;0;0;0;0;0
83.7488;4.97E-01;0.561;0;0;0;0;0
84.2486;0.501186;0.5581;0;0;0;0;0
84.7485;5.04E-01;0.5619;0;0;0;0;0
85.2485;0.506551;0.5543;0;0;0;0;0
85.7488;5.10E-01;0.561;0;0;0;0;0
86.2486;5.13E-01;0.5632;0;0;0;0;0
86.7485;0.516473;0.5638;0;0;0;0;0
87.2486;0.519814;0.5635;0;0;0;0;0
87.7488;5.23E-01;0.5613;0;0;0;0;0
88.2486;0.526298;0.5641;0;0;0;0;0
88.7485;0.529403;0.5685;0;0;0;0;0
89.2485;0.533344;0.5695;0;0;0;0;0
89.7486;0.536692;0.5644;0;0;0;0;0
90.2484;0.539614;0.5654;0;0;0;0;0
90.7484;0.542761;0.5704;0;0;0;0;0
91.2485;0.545877;0.5701;0;0;0;0;0
91.7484;5.49E-01;0.5698;0;0;0;0;0
92.2485;0.552481;0.5679;0;0;0;0;0
92.7485;5.56E-01;0.5739;0;0;0;0;0
93.2487;5.59E-01;0.573;0;0;0;0;0
93.7486;5.62E-01;0.5711;0;0;0;0;0
94.2484;0.565905;0.5752;0;0;0;0;0
94.7484;0.569284;0.5723;0;0;0;0;0
95.2483;0.572344;0.5758;0;0;0;0;0
95.7484;0.576063;0.5802;0;0;0;0;0
96.2484;0.578589;0.5758;0;0;0;0;0
96.7484;5.81E-01;0.5736;0;0;0;0;0
97.2484;0.585049;0.5796;0;0;0;0;0
97.7486;0.588317;0.578;0;0;0;0;0
98.2484;0.591097;0.5802;0;0;0;0;0
98.7483;0.595599;0.5787;0;0;0;0;0
99.2484;5.99E-01;0.5812;0;0;0;0;0
99.7483;6.02E-01;0.5802;0;0;0;0;0
100.2483;0.605446;0.5866;0;0;0;0;0
100.7483;6.09E-01;0.5837;0;0;0;0;0
101.2484;6.11E-01;0.5739;0;0;0;0;0
101.7483;0.615118;0.5812;0;0;0;0;0
102.2483;0.618777;0.5878;0;0;0;0;0
102.7483;6.22E-01;0.5872;0;0;0;0;0
103.2483;6.25E-01;0.5875;0;0;0;0;0
103.7485;0.628452;0.5894;0;0;0;0;0
104.2483;6.32E-01;0.5894;0;0;0;0;0
104.7482;6.35E-01;0.5922;0;0;0;0;0
105.2482;0.63751;0.5891;0;0;0;0;0
105.7482;0.64062;0.5878;0;0;0;0;0
106.2483;6.45E-01;0.591;0;0;0;0;0
106.7482;0.648429;0.5935;0;0;0;0;0
107.2482;0.651401;0.5957;0;0;0;0;0
107.7485;0.65407;0.5872;0;0;0;0;0
108.2482;0.657889;0.5929;0;0;0;0;0
108.7482;0.661141;0.5935;0;0;0;0;0
109.2482;0.664275;0.5881;0;0;0;0;0
109.7481;0.666976;0.5935;0;0;0;0;0
110.2481;0.670542;0.5967;0;0;0;0;0
110.7481;6.74E-01;0.5986;0;0;0;0;0
111.2484;0.67731;0.5976;0;0;0;0;0
111.7483;6.81E-01;0.5929;0;0;0;0;0
112.2484;0.683852;0.5983;0;0;0;0;0
112.7482;6.87E-01;0.5979;0;0;0;0;0
113.2482;0.689831;0.5979;0;0;0;0;0
113.7481;0.693664;0.5979;0;0;0;0;0
114.2483;0.696638;0.5979;0;0;0;0;0
114.7483;0.699803;0.5989;0;0;0;0;0
115.248;0.703161;0.5973;0;0;0;0;0
115.748;0.706266;0.5957;0;0;0;0;0
116.2481;7.10E-01;0.6001;0;0;0;0;0
116.748;0.713428;0.5998;0;0;0;0;0
117.2481;7.17E-01;0.6011;0;0;0;0;0
117.7483;0.720616;0.6008;0;0;0;0;0
118.2481;7.24E-01;0.6014;0;0;0;0;0
118.748;0.726865;0.6014;0;0;0;0;0
119.248;7.30E-01;0.6052;0;0;0;0;0
119.7479;0.730978;0.6033;0;0;0;0;0
120.2479;0.736747;0.602;0;0;0;0;0
120.7479;0.739787;0.6036;0;0;0;0;0
121.2481;0.743036;0.6036;0;0;0;0;0
121.7479;0.746541;0.6027;0;0;0;0;0
122.2482;7.49E-01;0.6043;0;0;0;0;0
122.748;0.753032;0.6046;0;0;0;0;0
123.248;0.756645;0.6046;0;0;0;0;0
123.7479;0.760107;0.6039;0;0;0;0;0
124.2479;0.762974;0.6087;0;0;0;0;0
124.7478;7.67E-01;0.6014;0;0;0;0;0
125.2478;0.769977;0.6071;0;0;0;0;0
125.7478;7.73E-01;0.6062;0;0;0;0;0
126.2479;0.775883;0.6099;0;0;0;0;0
126.7478;7.80E-01;0.6103;0;0;0;0;0
127.2479;0.783703;0.6112;0;0;0;0;0
127.7479;0.7864699;0.6087;0;0;0;0;0
128.2479;0.789651;0.609;0;0;0;0;0
128.7478;0.792817;0.6074;0;0;0;0;0
129.248;7.96E-01;0.6043;0;0;0;0;0
129.7478;0.799068;0.6093;0;0;0;0;0
130.2479;0.803162;0.6112;0;0;0;0;0
130.7478;0.806368;0.6087;0;0;0;0;0
131.2478;8.11E-01;0.6103;0;0;0;0;0
131.7477;8.13E-01;0.6128;0;0;0;0;0
132.2478;0.816143;0.6046;0;0;0;0;0
132.7478;0.820882;0.608;0;0;0;0;0
133.2478;8.23E-01;0.6058;0;0;0;0;0
133.7477;0.826162;0.6125;0;0;0;0;0
134.2478;0.829602;0.6128;0;0;0;0;0
134.7477;0.833592;0.608;0;0;0;0;0
135.2477;0.836574;0.6125;0;0;0;0;0
135.7479;0.840882;0.6062;0;0;0;0;0
136.2478;0.842501;0.6099;0;0;0;0;0
136.7477;0.847039;0.6112;0;0;0;0;0
137.2477;0.850413;0.6118;0;0;0;0;0
137.7477;8.53E-01;0.6109;0;0;0;0;0
138.2477;0.856764;0.6033;0;0;0;0;0
138.7476;0.85972;0.6109;0;0;0;0;0
139.2477;0.86312;0.608;0;0;0;0;0
139.7478;0.86684;0.6087;0;0;0;0;0
140.2476;8.70E-01;0.6128;0;0;0;0;0
140.7476;8.73E-01;0.6103;0;0;0;0;0
141.2477;0.875803;0.6112;0;0;0;0;0
141.7476;0.879608;0.6103;0;0;0;0;0
142.2477;8.82E-01;0.6134;0;0;0;0;0
142.7479;0.886631;0.6122;0;0;0;0;0
143.2476;0.890043;0.6093;0;0;0;0;0
143.7475;0.892887;0.6109;0;0;0;0;0
144.2476;0.895243;0.6112;0;0;0;0;0
144.7476;0.899365;0.6115;0;0;0;0;0
145.2475;0.902156;0.6109;0;0;0;0;0
145.7475;0.906837;0.6062;0;0;0;0;0
146.2476;0.909047;0.6099;0;0;0;0;0
146.7475;9.13E-01;0.6109;0;0;0;0;0
147.2476;0.916389;0.6118;0;0;0;0;0
147.7476;0.919671;0.6125;0;0;0;0;0
148.2476;9.22E-01;0.6106;0;0;0;0;0
148.7475;0.926146;0.6049;0;0;0;0;0
149.2475;9.30E-01;0.6058;0;0;0;0;0
149.7474;0.932338;0.6103;0;0;0;0;0
150.2474;0.936531;0.6118;0;0;0;0;0
150.7474;0.938923;0.6115;0;0;0;0;0
151.2475;0.94272;0.6115;0;0;0;0;0
151.7474;0.943688;0.6125;0;0;0;0;0
152.2475;0.949497;0.6137;0;0;0;0;0
152.7474;0.952668;0.6052;0;0;0;0;0
153.2475;0.955991;0.6112;0;0;0;0;0
153.7474;0.959599;0.6099;0;0;0;0;0
154.2474;0.962821;0.6103;0;0;0;0;0
154.7473;0.966344;0.6096;0;0;0;0;0
155.2473;0.969558;0.6141;0;0;0;0;0
155.7476;0.973241;0.6087;0;0;0;0;0
156.2474;0.977081;0.6084;0;0;0;0;0
156.7473;0.979207;0.6093;0;0;0;0;0
157.2474;0.982455;0.6074;0;0;0;0;0
157.7474;0.985731;0.6065;0;0;0;0;0
158.2474;0.989835;0.6084;0;0;0;0;0
158.7473;0.993335;0.6125;0;0;0;0;0
159.2473;0.996817;0.6055;0;0;0;0;0
159.7472;0.999291;0.6118;0;0;0;0;0
160.2473;1.00293;0.6071;0;0;0;0;0
160.7472;1.01E+00;0.609;0;0;0;0;0
161.2473;1.00917;0.6074;0;0;0;0;0
161.7472;1.01311;0.6046;0;0;0;0;0
162.2473;1.01638;0.6077;0;0;0;0;0
162.7475;1.02014;0.6084;0;0;0;0;0
163.2473;1.02E+00;0.6062;0;0;0;0;0
163.7472;1.02722;0.6043;0;0;0;0;0
164.2472;1.03086;0.6049;0;0;0;0;0
164.7473;1.03386;0.6055;0;0;0;0;0
165.2471;1.04E+00;0.6046;0;0;0;0;0
165.7472;1.04027;0.608;0;0;0;0;0
166.2474;1.04288;0.6036;0;0;0;0;0
166.7471;1.04657;0.6033;0;0;0;0;0
167.2472;1.04944;0.6036;0;0;0;0;0
167.7472;1.05E+00;0.6052;0;0;0;0;0
168.2472;1.06E+00;0.6001;0;0;0;0;0
168.7471;1.0599;0.6062;0;0;0;0;0
169.2471;1.06E+00;0.6024;0;0;0;0;0
169.7471;1.06741;0.6046;0;0;0;0;0
170.247;1.07E+00;0.5995;0;0;0;0;0
170.7471;1.07275;0.6039;0;0;0;0;0
171.2472;1.0764;0.6071;0;0;0;0;0
171.747;1.07986;0.5998;0;0;0;0;0
172.2473;1.08349;0.6005;0;0;0;0;0
172.7473;1.0876;0.6011;0;0;0;0;0
173.2471;1.09006;0.6011;0;0;0;0;0
173.747;1.09E+00;0.5983;0;0;0;0;0
174.2471;1.10E+00;0.6014;0;0;0;0;0
174.747;1.10001;0.602;0;0;0;0;0
175.247;1.10E+00;0.5995;0;0;0;0;0
175.747;1.1073;0.5979;0;0;0;0;0
176.2471;1.11061;0.6001;0;0;0;0;0
176.747;1.11E+00;0.5998;0;0;0;0;0
177.247;1.11656;0.5979;0;0;0;0;0
177.747;1.12012;0.6017;0;0;0;0;0
178.247;1.12281;0.5973;0;0;0;0;0
178.7469;1.1263;0.603;0;0;0;0;0
179.247;1.13017;0.5948;0;0;0;0;0
179.7469;1.13292;0.5948;0;0;0;0;0
180.2469;1.14E+00;0.5995;0;0;0;0;0
180.7469;1.13981;0.5922;0;0;0;0;0
181.247;1.14341;0.5967;0;0;0;0;0
181.7469;1.14695;0.5964;0;0;0;0;0
182.247;1.14963;0.5945;0;0;0;0;0
182.7469;1.15302;0.5945;0;0;0;0;0
183.247;1.15537;0.5926;0;0;0;0;0
183.7468;1.15898;0.5929;0;0;0;0;0
184.2469;1.16375;0.5932;0;0;0;0;0
184.7468;1.16688;0.5932;0;0;0;0;0
185.2468;1.17E+00;0.5913;0;0;0;0;0
185.7468;1.17264;0.591;0;0;0;0;0
186.2469;1.17583;0.5885;0;0;0;0;0
186.7468;1.17996;0.5929;0;0;0;0;0
187.2469;1.18316;0.5897;0;0;0;0;0
187.7471;1.18543;0.5894;0;0;0;0;0
188.2469;1.18971;0.5856;0;0;0;0;0
188.7468;1.19341;0.5951;0;0;0;0;0
189.2468;1.19657;0.5894;0;0;0;0;0
189.7469;1.20E+00;0.5875;0;0;0;0;0
190.2467;1.20323;0.5894;0;0;0;0;0
190.7467;1.20661;0.59;0;0;0;0;0
191.2468;1.21027;0.5881;0;0;0;0;0
191.7469;1.21361;0.5885;0;0;0;0;0
192.2471;1.21689;0.5872;0;0;0;0;0
192.7468;1.2207;0.5875;0;0;0;0;0
193.2468;1.22469;0.584;0;0;0;0;0
193.747;1.22727;0.5831;0;0;0;0;0
194.2467;1.23031;0.5859;0;0;0;0;0
194.7466;1.23391;0.5834;0;0;0;0;0
195.2466;1.23656;0.5856;0;0;0;0;0
195.7466;1.24E+00;0.5825;0;0;0;0;0
196.2467;1.24346;0.5818;0;0;0;0;0
196.7466;1.247;0.5828;0;0;0;0;0
197.2469;1.25104;0.5821;0;0;0;0;0
197.7467;1.2532;0.5799;0;0;0;0;0
198.2467;1.25771;0.5799;0;0;0;0;0
198.7466;1.26E+00;0.5793;0;0;0;0;0
199.2466;1.26377;0.5768;0;0;0;0;0
199.7465;1.27E+00;0.5758;0;0;0;0;0
200.2465;1.27088;0.5758;0;0;0;0;0
200.7466;1.27325;0.5746;0;0;0;0;0
201.2466;1.27758;0.5764;0;0;0;0;0
201.7465;1.28105;0.573;0;0;0;0;0
202.2466;1.28468;0.5723;0;0;0;0;0
202.7466;1.28777;0.5708;0;0;0;0;0
203.2466;1.29115;0.5701;0;0;0;0;0
203.7465;1.29408;0.5708;0;0;0;0;0
204.2466;1.298;0.5704;0;0;0;0;0
204.7465;1.30113;0.5673;0;0;0;0;0
205.2464;1.30448;0.5695;0;0;0;0;0
205.7467;1.30778;0.5663;0;0;0;0;0
206.2465;1.31125;0.5648;0;0;0;0;0
206.7465;1.31453;0.5644;0;0;0;0;0
207.2465;1.31846;0.5622;0;0;0;0;0
207.7465;1.32048;0.5622;0;0;0;0;0
208.2465;1.32E+00;0.5587;0;0;0;0;0
208.7466;1.32762;0.5603;0;0;0;0;0
209.2465;1.33E+00;0.5572;0;0;0;0;0
209.7464;1.33537;0.5556;0;0;0;0;0
210.2463;1.33855;0.5537;0;0;0;0;0
210.7466;1.34221;0.548;0;0;0;0;0
211.2465;1.34481;0.5474;0;0;0;0;0
211.7464;1.34849;0.542;0;0;0;0;0
212.2465;1.352;0.5411;0;0;0;0;0
212.7464;1.35587;0.5373;0;0;0;0;0
213.2464;1.36E+00;0.5373;0;0;0;0;0
213.7463;1.36339;0.5313;0;0;0;0;0
214.2464;1.37E+00;0.5256;0;0;0;0;0
214.7463;1.37002;0.5205;0;0;0;0;0
215.2463;1.37E+00;0.5177;0;0;0;0;0
215.7463;1.37765;0.5101;0;0;0;0;0
216.2464;1.38156;0.5003;0;0;0;0;0
216.7465;1.38549;0.4876;0;0;0;0;0
217.2463;1.39053;0.4782;0;0;0;0;0
217.7466;1.39298;0.4712;0;0;0;0;0
218.2464;1.39765;0.4541;0;0;0;0;0
218.7465;1.40046;0.4399;0;0;0;0;0
219.2463;1.40396;0.4194;0;0;0;0;0
219.7464;1.41E+00;0.4058;0;0;0;0;0
220.2462;1.41343;0.3935;0;0;0;0;0
220.7462;1.41841;0.384;0;0;0;0;0
221.2463;1.42051;0.3748;0;0;0;0;0
221.7462;1.42465;0.3616;0;0;0;0;0
222.2463;1.4278;0.3546;0;0;0;0;0
222.7462;1.43189;0.3448;0;0;0;0;0
223.2463;1.43565;0.3385;0;0;0;0;0
223.7462;1.44017;0.3347;0;0;0;0;0
224.2462;1.44296;0.3255;0;0;0;0;0
224.7461;1.44703;0.3148;0;0;0;0;0
225.2463;1.45135;0.3072;0;0;0;0;0
225.7461;1.45436;0.2993;0;0;0;0;0
226.2462;1.45844;0.293;0;0;0;0;0
226.7461;1.46219;0.2822;0;0;0;0;0
227.2462;1.47E+00;0.2797;0;0;0;0;0
227.7464;1.46883;0.2712;0;0;0;0;0
228.2462;1.47E+00;0.2658;0;0;0;0;0
228.7461;1.47624;0.2569;0;0;0;0;0
229.2461;1.48002;0.2513;0;0;0;0;0
229.746;1.48422;0.2459;0;0;0;0;0
230.246;1.48767;0.2367;0;0;0;0;0
230.7461;1.49E+00;0.2206;0;0;0;0;0
231.2461;1.4948;0.2105;0;0;0;0;0
231.746;1.49922;0.1934;0;0;0;0;0
232.2461;1.50338;0.1748;0;0;0;0;0
232.7463;1.50764;0.1549;0;0;0;0;0
233.2461;1.51138;0.1381;0;0;0;0;0
233.746;1.51495;0.1264;0;0;0;0;0
234.246;1.51963;0.1169;0;0;0;0;0
234.7459;1.52346;0.1106;0;0;0;0;0
235.2459;1.52724;0.0993;0;0;0;0;0
235.7459;1.53274;0.0891;0;0;0;0;0
236.246;1.53534;0.0774;0;0;0;0;0
236.7462;1.53844;0.0692;0;0;0;0;0
237.246;1.54166;0.0601;0;0;0;0;0
237.746;1.54588;0.0496;0;0;0;0;0
238.246;1.55005;0.0487;0;0;0;0;0
238.7459;1.55383;0.0458;0;0;0;0;0
239.2459;1.55662;0.0411;0;0;0;0;0
239.7459;1.56E+00;0.0417;0;0;0;0;0
240.2458;1.56422;0.037;0;0;0;0;0
240.7459;1.56783;0.0379;0;0;0;0;0
241.2459;1.57038;0.0383;0;0;0;0;0
241.7459;1.57E+00;0.0338;0;0;0;0;0
242.2459;1.57783;0.0335;0;0;0;0;0
242.7459;1.58107;0.0351;0;0;0;0;0
243.2459;1.58469;0.0272;0;0;0;0;0
243.746;1.58799;0.0263;0;0;0;0;0
244.2459;1.59103;0.0263;0;0;0;0;0
244.7458;1.59504;0.0266;0;0;0;0;0
245.2457;1.59833;0.0275;0;0;0;0;0
245.7458;1.6016;0.0196;0;0;0;0;0
246.2459;1.60519;0.019;0;0;0;0;0
246.7458;1.60871;0.0244;0;0;0;0;0
247.2458;1.61203;0.0212;0;0;0;0;0
247.7458;1.61534;0.0171;0;0;0;0;0
248.2458;1.61855;0.019;0;0;0;0;0
248.746;1.62198;0.0184;0;0;0;0;0
249.2458;1.62583;0.0212;0;0;0;0;0
249.7458;1.62836;0.0168;0;0;0;0;0
250.2456;1.63177;0.0158;0;0;0;0;0
250.7457;1.63477;0.0161;0;0;0;0;0
251.2458;1.63923;0.0127;0;0;0;0;0
251.7457;1.64246;0.0095;0;0;0;0;0
252.2458;1.64555;0.012;0;0;0;0;0
252.7457;1.64984;0.0114;0;0;0;0;0
253.2457;1.65208;0.0114;0;0;0;0;0
253.7456;1.65538;0.0108;0;0;0;0;0
254.2457;1.65874;0.007;0;0;0;0;0
254.7456;1.66212;0.0095;0;0;0;0;0
255.2456;1.66594;0.0079;0;0;0;0;0
255.7456;1.66989;0.0089;0;0;0;0;0
256.2457;1.67282;0.0104;0;0;0;0;0
256.7456;1.67613;0.007;0;0;0;0;0
257.2457;1.67898;0.0067;0;0;0;0;0
257.7456;1.68295;0.0032;0;0;0;0;0
258.2457;1.68518;0.0067;0;0;0;0;0
258.7456;1.68885;0.0054;0;0;0;0;0
259.2456;1.69179;0.0079;0;0;0;0;0
259.7455;1.69513;0;0;0;0;0;0
260.2455;1.69947;0.0067;0;0;0;0;0
260.7458;1.70242;0.0076;0;0;0;0;0
261.2456;1.70649;0.0032;0;0;0;0;0
261.7457;1.70973;0.0025;0;0;0;0;0
262.2456;1.71225;0.0007;0;0;0;0;0
262.7456;1.71629;0.0035;0;0;0;0;0
263.2456;1.71942;0.0029;0;0;0;0;0
263.7457;1.72254;-0.0006;0;0;0;0;0
264.2455;1.72611;0.0041;0;0;0;0;0
264.7456;1.72964;0.006;0;0;0;0;0
265.2454;1.7329;0.0048;0;0;0;0;0
265.7454;1.73653;0.0086;0;0;0;0;0
266.2455;1.73979;0.0035;0;0;0;0;0
266.7454;1.74321;0.0019;0;0;0;0;0
267.2455;1.74603;0.0044;0;0;0;0;0
267.7455;1.74967;0.0022;0;0;0;0;0
268.2455;1.75336;0.0035;0;0;0;0;0
268.7456;1.75697;0.0051;0;0;0;0;0
269.2454;1.75959;0.0022;0;0;0;0;0
269.7453;1.7628;0.0013;0;0;0;0;0
270.2453;1.76659;0.0051;0;0;0;0;0
270.7456;1.76931;0.0007;0;0;0;0;0
271.2454;1.77286;0.0025;0;0;0;0;0