File: LAB_DATA/AA7020-T6_results/DATA/SL_210_NT20_90_1.csv
Time[s];Displacement[mm];Force[kN];AxStrain_1;AxStrain_2;Thickness[mm];OuterWidth[mm];InnerWidth[mm]
0;0;-0.0041;0;0;1.019;20;10.01
0.4761;0.0005793;-0.0025;-0.000596669;0;0;0;0
0.9761;-0.000250726;-0.0003;0.000322755;0;0;0;0
1.4761;-0.000686253;-0.0012;-0.000224587;0;0;0;0
1.9761;-0.000547564;-0.0009;0;0;0;0;0
2.4761;-0.003111106;0.0038;-0.000228096;0;0;0;0
2.9761;0.001143346;0.0044;-3.50878E-06;0;0;0;0
3.4761;0.001399507;0.0149;0.001043315;0;0;0;0
3.9761;-0.001718963;0.007;-0.000572093;0;0;0;0
4.476;-0.000537571;0.0003;0.00068573;0;0;0;0
4.9761;-0.000639439;-0.0164;0.000447268;0;0;0;0
5.476;0.003137581;0.0152;-0.000371999;0;0;0;0
5.976;0.001790499;0.0863;0.000722546;0;0;0;0
6.476;0.003225774;0.1119;0.000592807;0;0;0;0
6.976;0.00587628;0.1552;0.000701508;0;0;0;0
7.476;0.006928453;0.2203;0.000822469;0;0;0;0
7.976;0.007934863;0.2551;-3.15794E-05;0;0;0;0
8.4761;0.01271619;0.3091;0.000890831;0;0;0;0
8.976;0.0153329;0.3331;0.001081871;0;0;0;0
9.476;0.0172347;0.3732;0.000873303;0;0;0;0
9.976;0.0174761;0.4418;0.000342047;0;0;0;0
10.476;0.0194262;0.469;0.001080118;0;0;0;0
10.976;0.0199958;0.506;0.001155473;0;0;0;0
11.476;0.0234038;0.5464;0.001129187;0;0;0;0
11.9759;0.0246813;0.5894;0.000759361;0;0;0;0
12.476;0.0294459;0.6311;0.001101148;0;0;0;0
12.9759;0.0284818;0.6845;0.001066098;0;0;0;0
13.4759;0.0293472;0.713;0.001211546;0;0;0;0
13.9759;0.0302688;0.7534;0.001227317;0;0;0;0
14.4759;0.0307965;0.7992;0.002593126;0;0;0;0
14.9759;0.0353508;0.8413;0.003040986;0;0;0;0
15.4759;0.0363355;0.8811;0.002433878;0;0;0;0
15.9759;0.0366966;0.9064;0.002848571;0;0;0;0
16.4759;0.03945445;0.9494;0.0015234;0;0;0;0
16.9759;0.0390624;1.0047;0.001323685;0;0;0;0
17.4759;0.0401279;1.0303;0.001493621;0;0;0;0
17.9759;0.0416703;1.0622;0.001257104;0;0;0;0
18.4759;0.0421826;1.1001;0.001660025;0;0;0;0
18.9758;0.0453619;1.1538;0.001829904;0;0;0;0
19.4759;0.0476756;1.1949;0.002587877;0;0;0;0
19.9758;0.0511081;1.223;0.002265852;0;0;0;0
20.4758;0.0532663;1.2812;0.003023495;0;0;0;0
20.9758;0.0519218;1.3106;0.002696362;0;0;0;0
21.4758;0.0529956;1.3431;0.002440878;0;0;0;0
21.9758;0.0578402;1.3678;0.002188831;0;0;0;0
22.4758;0.0584761;1.4237;0.00187018;0;0;0;0
22.9758;0.0584651;1.4458;0.001880687;0;0;0;0
23.4758;0.0610274;1.498;0.00251963;0;0;0;0
23.9758;0.0607516;1.5312;0.002771594;0;0;0;0
24.4758;0.0614443;1.5751;0.003201886;0;0;0;0
24.9758;0.06799;1.5981;0.003479903;0;0;0;0
25.4758;0.0672463;1.6326;0.004081135;0;0;0;0
25.9757;0.06920598;1.6686;0.004259337;0;0;0;0
26.4757;0.072052;1.7021;0.003161663;0;0;0;0
26.9757;0.0730456;1.7344;0.002619373;0;0;0;0
27.4757;0.0754413;1.7473;0.003177403;0;0;0;0
27.9758;0.07867483;1.7966;0.002888806;0;0;0;0
28.4758;0.0789534;1.7988;0.003535847;0;0;0;0
28.9757;0.082896;1.8453;0.003537595;0;0;0;0
29.4757;0.0833606;1.8636;0.004033958;0;0;0;0
29.9757;0.0872049;1.874;0.004425282;0;0;0;0
30.4757;0.087769;1.9104;0.005662883;0;0;0;0
30.9757;0.0923092;1.936;0.005608803;0;0;0;0
31.4757;0.09329794;1.9338;0.005901848;0;0;0;0
31.9757;0.0972491;1.9711;0.005849525;0;0;0;0
32.4756;0.0981329;1.9673;0.005470972;0;0;0;0
32.9756;0.101465;1.985;0.005703005;0;0;0;0
33.4756;0.1051422;2.0102;0.005572166;0;0;0;0
33.9756;0.106543;2.0118;0.006776984;0;0;0;0
34.4756;0.112931;2.0191;0.006972129;0;0;0;0
34.9756;0.114645;2.0374;0.008559752;0;0;0;0
35.4756;0.117282;2.0624;0.008175263;0;0;0;0
35.9756;0.117491;2.064;0.008768462;0;0;0;0
36.4756;0.119677;2.0908;0.009102308;0;0;0;0
36.9756;0.124801;2.0896;0.008942354;0;0;0;0
37.4756;0.126151;2.1069;0.008570188;0;0;0;0
37.9756;0.130213;2.1167;0.0091336;0;0;0;0
38.4756;0.131337;2.1171;0.009613293;0;0;0;0
38.9756;0.134676;2.1297;0.009552475;0;0;0;0
39.4756;0.136521;2.1303;0.009453421;0;0;0;0
39.9755;0.139262;2.1325;0.009832207;0;0;0;0
40.4755;0.146327;2.1379;0.01232375;0;0;0;0
40.9755;0.1487;2.1648;0.0122666;0;0;0;0
41.4755;0.150139;2.1455;0.0116061;0;0;0;0
41.9757;0.152601;2.1866;0.0122319;0;0;0;0
42.4755;0.155265;2.1781;0.0129613;0;0;0;0
42.9755;0.15724;2.1957;0.0128227;0;0;0;0
43.4755;0.165274;2.1999;0.0129716;0;0;0;0
43.9755;0.163785;2.2106;0.0132193;0;0;0;0
44.4755;0.167713;2.2141;0.0132868;0;0;0;0
44.9755;0.168182;2.2182;0.01459646;0;0;0;0
45.4755;0.17004;2.2207;0.0147486;0;0;0;0
45.9755;0.176915;2.2204;0.0151029;0;0;0;0
46.4754;0.180841;2.2403;0.0157041;0;0;0;0
46.9754;0.184945;2.2201;0.01607018;0;0;0;0
47.4754;0.184253;2.2476;0.0150563;0;0;0;0
47.9754;0.18986;2.2571;0.0159372;0;0;0;0
48.4755;0.193631;2.2428;0.01696234;0;0;0;0
48.9754;0.19517;2.265;0.0160736;0;0;0;0
49.4755;0.198875;2.2602;0.0180898;0;0;0;0
49.9754;0.199454;2.2732;0.01805187;0;0;0;0
50.4754;0.2015267;2.2804;0.01928994;0;0;0;0
50.9754;0.207957;2.2864;0.0181001;0;0;0;0
51.4754;0.210527;2.277;0.0192125;0;0;0;0
51.9755;0.212811;2.2861;0.0188424;0;0;0;0
52.4755;0.216898;2.3057;0.0192228;0;0;0;0
52.9754;0.218591;2.2969;0.0187443;0;0;0;0
53.4755;0.224593;2.3007;0.0197459;0;0;0;0
53.9753;0.2236;2.3168;0.0201569;0;0;0;0
54.4753;0.229784;2.3095;0.021291;0;0;0;0
54.9753;0.230451;2.3234;0.0209647;0;0;0;0
55.4753;0.232806;2.3187;0.0219211;0;0;0;0
55.9753;0.236038;2.3392;0.0223673;0;0;0;0
56.4753;0.238711;2.3405;0.0222695;0;0;0;0
56.9753;0.244309;2.3332;0.0213271;0;0;0;0
57.4753;0.2478819;2.3623;0.0222678;0;0;0;0
57.9753;0.25092;2.3471;0.0224256;0;0;0;0
58.4753;0.25227;2.3572;0.0229333;0;0;0;0
58.9753;0.255388;2.3661;0.0231836;0;0;0;0
59.4753;0.25975;2.367;0.0241174;0;0;0;0
59.9752;0.262692;2.368;0.0235589;0;0;0;0
60.4752;0.265209;2.3759;0.0241876;0;0;0;0
60.9752;0.267607;2.3708;0.0248552;0;0;0;0
61.4752;0.271529;2.3892;0.02491;0;0;0;0
61.9752;0.272285;2.3879;0.0251974;0;0;0;0
62.4754;0.279275;2.3911;0.0259088;0;0;0;0
62.9752;0.279778;2.41;0.0261071;0;0;0;0
63.4752;0.283957;2.3888;0.0264574;0;0;0;0
63.9752;0.28551;2.4031;0.0266009;0;0;0;0
64.4752;0.290257;2.4015;0.02640958;0;0;0;0
64.9752;0.294363;2.4087;0.0268794;0;0;0;0
65.4752;0.298905;2.4217;0.0279871;0;0;0;0
65.9752;0.302905;2.4179;0.0287;0;0;0;0
66.4751;0.299835;2.4157;0.0288142;0;0;0;0
66.9751;0.303962;2.4214;0.02896077;0;0;0;0
67.4751;0.308064;2.4356;0.0283845;0;0;0;0
67.9752;0.316935;2.4328;0.028867;0;0;0;0
68.4752;0.315098;2.4508;0.0290818;0;0;0;0
68.9751;0.318932;2.4372;0.0294242;0;0;0;0
69.4752;0.320156;2.4486;0.0294583;0;0;0;0
69.9753;0.32326;2.4404;0.0301463;0;0;0;0
70.4751;0.328486;2.4438;0.0310345;0;0;0;0
70.9752;0.331712;2.441;0.0310107;0;0;0;0
71.4751;0.334178;2.4606;0.0313014;0;0;0;0
71.9751;0.336306;2.4783;0.03161256;0;0;0;0
72.4752;0.340588;2.4821;0.0309273;0;0;0;0
72.975;0.342576;2.4738;0.0321275;0;0;0;0
73.475;0.349184;2.4609;0.0332244;0;0;0;0
73.975;0.351824;2.4729;0.0323228;0;0;0;0
74.4752;0.353251;2.4843;0.0329002;0;0;0;0
74.975;0.356627;2.4795;0.032598;0;0;0;0
75.475;0.359039;2.4944;0.0318947;0;0;0;0
75.975;0.362156;2.4802;0.03333806;0;0;0;0
76.475;0.366433;2.4976;0.0342251;0;0;0;0
76.975;0.369592;2.5077;0.0337588;0;0;0;0
77.4751;0.371543;2.4909;0.0336909;0;0;0;0
77.975;0.373789;2.5165;0.0339097;0;0;0;0
78.475;0.376181;2.5061;0.0348776;0;0;0;0
78.9749;0.382173;2.5213;0.0344574;0;0;0;0
79.4751;0.38477;2.526;0.0353688;0;0;0;0
79.9749;0.385912;2.5244;0.0349911;0;0;0;0
80.4749;0.390279;2.5061;0.0356685;0;0;0;0
80.9749;0.395512;2.5377;0.0363184;0;0;0;0
81.4749;0.398042;2.5443;0.0370591;0;0;0;0
81.9751;0.399313;2.5497;0.0362795;0;0;0;0
82.4751;0.403923;2.5503;0.0360629;0;0;0;0
82.9749;0.405755;2.5418;0.0369864;0;0;0;0
83.475;0.410071;2.5465;0.0362084;0;0;0;0
83.975;0.412534;2.5456;0.0370642;0;0;0;0
84.4749;0.413866;2.5573;0.0365924;0;0;0;0
84.9749;0.419977;2.5497;0.0378297;0;0;0;0
85.4749;0.422227;2.5803;0.0389305;0;0;0;0
85.9749;0.425763;2.5614;0.0381118;0;0;0;0
86.475;0.431122;2.5601;0.0400217;0;0;0;0
86.9748;0.433007;2.5658;0.038912;0;0;0;0
87.475;0.435271;2.5756;0.0385288;0;0;0;0
87.975;0.437214;2.5788;0.03781284;0;0;0;0
88.475;0.440573;2.563;0.0384174;0;0;0;0
88.975;0.445545;2.581;0.038863;0;0;0;0
89.4749;0.447928;2.5892;0.039526;0;0;0;0
89.9748;0.450997;2.5873;0.039526;0;0;0;0
90.4749;0.454849;2.5914;0.0394906;0;0;0;0
90.9748;0.457262;2.5886;0.0409752;0;0;0;0
91.4749;0.455565;2.6003;0.0401211;0;0;0;0
91.9748;0.464702;2.5873;0.0397452;0;0;0;0
92.4747;0.46662;2.5905;0.0400756;0;0;0;0
92.9747;0.47025;2.6101;0.0414635;0;0;0;0
93.4749;0.472617;2.5848;0.0418085;0;0;0;0
93.9747;0.474552;2.6129;0.0413187;0;0;0;0
94.4747;0.478392;2.6022;0.0411621;0;0;0;0
94.9747;0.484339;2.6189;0.0421836;0;0;0;0
95.4749;0.485422;2.6069;0.04167889;0;0;0;0
95.9748;0.487671;2.6315;0.04197;0;0;0;0
96.4747;0.492371;2.6132;0.0424577;0;0;0;0
96.9748;0.496686;2.6015;0.0423232;0;0;0;0
97.4748;0.497748;2.6281;0.0421886;0;0;0;0
97.9747;0.502441;2.6252;0.0436223;0;0;0;0
98.4747;0.507458;2.6278;0.0433384;0;0;0;0
98.9747;0.508412;2.6436;0.0427855;0;0;0;0
99.4747;0.509438;2.6315;0.0431771;0;0;0;0
99.9746;0.514425;2.6552;0.0434476;0;0;0;0
100.4746;0.517178;2.6442;0.0433451;0;0;0;0
100.9746;0.521926;2.6423;0.0438725;0;0;0;0
101.4748;0.524261;2.6436;0.0447738;0;0;0;0
101.9746;0.526563;2.6312;0.0440219;0;0;0;0
102.4746;0.530235;2.6429;0.0452786;0;0;0;0
102.9746;0.534029;2.6733;0.0463595;0;0;0;0
103.4746;0.538062;2.6764;0.0455016;0;0;0;0
103.9746;0.539045;2.6729;0.0447738;0;0;0;0
104.4747;0.543139;2.6707;0.0468183;0;0;0;0
104.9747;0.547792;2.6831;0.0461719;0;0;0;0
105.4746;0.550404;2.6799;0.0459323;0;0;0;0
105.9746;0.554205;2.6676;0.0455636;0;0;0;0
106.4746;0.556855;2.6726;0.0465253;0;0;0;0
106.9745;0.559443;2.6976;0.0465437;0;0;0;0
107.4747;0.561006;2.6884;0.0467597;0;0;0;0
107.9747;0.564186;2.696;0.0463478;0;0;0;0
108.4745;0.568848;2.7118;0.04646499;0;0;0;0
108.9745;0.572422;2.6894;0.0467982;0;0;0;0
109.4745;0.574705;2.7143;0.0471648;0;0;0;0
109.9745;0.578388;2.7241;0.0484844;0;0;0;0
110.4745;0.582311;2.6947;0.0475797;0;0;0;0
110.9745;0.585572;2.7023;0.0475061;0;0;0;0
111.4745;0.589991;2.7137;0.048725;0;0;0;0
111.9746;0.590165;2.7229;0.0491059;0;0;0;0
112.4746;0.5952431;2.7185;0.0498122;0;0;0;0
112.9744;0.595958;2.7219;0.04836568;0;0;0;0
113.4748;0.602227;2.7396;0.0497855;0;0;0;0
113.9746;0.605006;2.726;0.0505547;0;0;0;0
114.4746;0.607698;2.7115;0.0493631;0;0;0;0
114.9744;0.609237;2.727;0.0503562;0;0;0;0
115.4744;0.612971;2.733;0.0502494;0;0;0;0
115.9744;0.617676;2.7175;0.0507965;0;0;0;0
116.4744;0.620824;2.7485;0.0512566;0;0;0;0
116.9744;0.623998;2.7368;0.05073147;0;0;0;0
117.4744;0.626933;2.7406;0.0513316;0;0;0;0
117.9744;0.627761;2.7573;0.0506448;0;0;0;0
118.4745;0.63354;2.7399;0.0515866;0;0;0;0
118.9745;0.633327;2.7605;0.05129;0;0;0;0
119.4745;0.638898;2.7548;0.0527972;0;0;0;0
119.9743;0.641868;2.7592;0.05341604;0;0;0;0
120.4743;0.64517;2.7586;0.0522878;0;0;0;0
120.9743;0.647491;2.7567;0.053988;0;0;0;0
121.4743;0.652352;2.775;0.0525725;0;0;0;0
121.9745;0.655082;2.751;0.0519098;0;0;0;0
122.4745;0.6603775;2.781;0.05211962;0;0;0;0
122.9743;0.660656;2.7687;0.0534759;0;0;0;0
123.4743;0.665515;2.7706;0.0532797;0;0;0;0
123.9745;0.670478;2.7621;0.0545812;0;0;0;0
124.4743;0.67443;2.7804;0.0543171;0;0;0;0
124.9743;0.672938;2.7652;0.0552023;0;0;0;0
125.4743;0.676054;2.7933;0.0550645;0;0;0;0
125.9743;0.680017;2.7839;0.0553434;0;0;0;0
126.4743;0.682712;2.8101;0.0550379;0;0;0;0
126.9742;0.685048;2.7864;0.0557235;0;0;0;0
127.4742;0.691054;2.7987;0.0562294;0;0;0;0
127.9743;0.693164;2.7927;0.05659422;0;0;0;0
128.4742;0.695796;2.7962;0.0560221;0;0;0;0
128.9742;0.696282;2.7883;0.057171;0;0;0;0
129.4744;0.702139;2.7959;0.0562211;0;0;0;0
129.9742;0.707479;2.8129;0.0572721;0;0;0;0
130.4743;0.709322;2.8183;0.0568876;0;0;0;0
130.9742;0.713034;2.8126;0.0580769;0;0;0;0
131.4742;0.715948;2.8123;0.0577739;0;0;0;0
131.9742;0.717816;2.8196;0.0582772;0;0;0;0
132.4742;0.720513;2.8208;0.0584294;0;0;0;0
132.9741;0.725931;2.8079;0.0593259;0;0;0;0
133.4741;0.728419;2.8237;0.0586263;0;0;0;0
133.9743;0.730979;2.8231;0.0601176;0;0;0;0
134.4743;0.73483;2.8069;0.0597954;0;0;0;0
134.9743;0.737475;2.8259;0.06022;0;0;0;0
135.4741;0.741325;2.8284;0.0614581;0;0;0;0
135.9741;0.743997;2.8341;0.0605767;0;0;0;0
136.4741;0.7446593;2.8325;0.0611232;0;0;0;0
136.9741;0.749509;2.8332;0.061067;0;0;0;0
137.4741;0.749823;2.8449;0.06134593;0;0;0;0
137.9741;0.756719;2.842;0.062403;0;0;0;0
138.4742;0.759867;2.8509;0.0626964;0;0;0;0
138.9741;0.761485;2.8338;0.0629221;0;0;0;0
139.4741;0.767022;2.843;0.0625514;0;0;0;0
139.9742;0.770965;2.8449;0.06317081;0;0;0;0
140.474;0.772108;2.8559;0.0635775;0;0;0;0
140.974;0.776028;2.8487;0.0639627;0;0;0;0
141.474;0.779143;2.8499;0.0641585;0;0;0;0
141.974;0.782684;2.8622;0.0636812;0;0;0;0
142.474;0.784309;2.866;0.0634903;0;0;0;0
142.974;0.789076;2.8569;0.0648888;0;0;0;0
143.474;0.791905;2.8584;0.0654624;0;0;0;0
143.974;0.795724;2.8584;0.065114;0;0;0;0
144.4741;0.799244;2.8701;0.0644201;0;0;0;0
144.974;0.801565;2.8518;0.066062;0;0;0;0
145.474;0.801602;2.8736;0.0655594;0;0;0;0
145.974;0.809966;2.8689;0.0663724;0;0;0;0
146.4739;0.814368;2.8603;0.06682866;0;0;0;0
146.9739;0.813541;2.891;0.0658978;0;0;0;0
147.4739;0.819367;2.8736;0.0669796;0;0;0;0
147.9739;0.820844;2.8942;0.0675258;0;0;0;0
148.4741;0.82325;2.8825;0.0681553;0;0;0;0
148.9739;0.827048;2.8904;0.0674012;0;0;0;0
149.4739;0.830854;2.8983;0.0680144;0;0;0;0
149.974;0.831394;2.8945;0.0681176;0;0;0;0
150.4739;0.837331;2.8799;0.06849614;0;0;0;0
150.9739;0.841565;2.9021;0.0691365;0;0;0;0
151.474;0.843513;2.9024;0.0695064;0;0;0;0
151.9739;0.847838;2.8897;0.0698402;0;0;0;0
152.4739;0.850527;2.9059;0.0690563;0;0;0;0
152.9738;0.851677;2.9147;0.0702753;0;0;0;0
153.4738;0.853691;2.9169;0.0700414;0;0;0;0
153.9738;0.861558;2.9071;0.0705468;0;0;0;0
154.474;0.864156;2.9141;0.071006;0;0;0;0
154.9738;0.866134;2.8995;0.0710011;0;0;0;0
155.4738;0.869234;2.9074;0.0713345;0;0;0;0
155.9738;0.870146;2.9144;0.0720856;0;0;0;0
156.4738;0.876498;2.9153;0.071604;0;0;0;0
156.974;0.879497;2.9049;0.0722684;0;0;0;0
157.4738;0.883115;2.9248;0.0718685;0;0;0;0
157.9739;0.881855;2.9191;0.0727661;0;0;0;0
158.4738;0.886777;2.9359;0.0720677;0;0;0;0
158.9738;0.892845;2.94;0.0731053;0;0;0;0
159.4739;0.893044;2.9188;0.07389592;0;0;0;0
159.9738;0.898842;2.9264;0.0738633;0;0;0;0
160.4739;0.902069;2.9454;0.0741827;0;0;0;0
160.9737;0.904419;2.9387;0.0738975;0;0;0;0
161.4739;0.90622;2.9425;0.0749919;0;0;0;0
161.9737;0.912477;2.9431;0.07440254;0;0;0;0
162.4737;0.914191;2.9371;0.0749577;0;0;0;0
162.9739;0.916458;2.9349;0.0755289;0;0;0;0
163.4737;0.918989;2.9425;0.0745328;0;0;0;0
163.9738;0.923214;2.9441;0.0748226;0;0;0;0
164.4737;0.928619;2.9656;0.0757989;0;0;0;0
164.9737;0.929572;2.9536;0.0758444;0;0;0;0
165.4737;0.93367;2.9504;0.07583305;0;0;0;0
165.9737;0.935337;2.9637;0.0762883;0;0;0;0
166.4739;0.939754;2.9577;0.07682458;0;0;0;0
166.9736;0.94609;2.9539;0.0786101;0;0;0;0
167.4738;0.948638;2.97;0.0773362;0;0;0;0
167.9737;0.94928;2.9552;0.0777112;0;0;0;0
168.4738;0.952587;2.9665;0.0785598;0;0;0;0
168.9737;0.955194;2.9732;0.0781527;0;0;0;0
169.4736;0.958236;2.9776;0.0784706;0;0;0;0
169.9736;0.962996;2.9757;0.0797009;0;0;0;0
170.4737;0.966702;2.964;0.07871389;0;0;0;0
170.9736;0.968554;2.9536;0.07914676;0;0;0;0
171.4737;0.972672;2.9864;0.0791938;0;0;0;0
171.9736;0.973481;2.976;0.08042644;0;0;0;0
172.4735;0.979537;2.9836;0.0810139;0;0;0;0
172.9736;0.981936;2.9836;0.08036978;0;0;0;0
173.4735;0.984872;2.9811;0.0809314;0;0;0;0
173.9735;0.989093;2.9855;0.082107;0;0;0;0
174.4735;0.990876;2.9713;0.0815687;0;0;0;0
174.9735;0.993464;2.9823;0.0821054;0;0;0;0
175.4735;0.9993364;2.9978;0.0835523;0;0;0;0
175.9735;1.00445;2.989;0.0852453;0;0;0;0
176.4735;1.0038;2.9836;0.08492631;0;0;0;0
176.9735;1.00394;2.9947;0.0832893;0;0;0;0
177.4735;1.01268;2.9918;0.0843605;0;0;0;0
177.9735;1.01295;2.988;0.0838992;0;0;0;0
178.4735;1.01769;2.9918;0.0840251;0;0;0;0
178.9735;1.02014;3.0007;0.0850504;0;0;0;0
179.4735;1.02261;3.0003;0.0844008;0;0;0;0
179.9734;1.02499;3.0007;0.0860248;0;0;0;0
180.4734;1.02794;3.0045;0.0852727;0;0;0;0
180.9734;1.03333;3.0165;0.0873825;0;0;0;0
181.4734;1.03861;2.9798;0.0867795;0;0;0;0
181.9736;1.0405;3.0161;0.0873182;0;0;0;0
182.4734;1.04343;2.994;0.0871462;0;0;0;0
182.9736;1.04784;3.0076;0.0872362;0;0;0;0
183.4734;1.04926;3.0155;0.0881619;0;0;0;0
183.9734;1.05455;3.0063;0.0883835;0;0;0;0
184.4734;1.05752;3.025;0.0890321;0;0;0;0
184.9734;1.05966;3.0127;0.0896499;0;0;0;0
185.4734;1.06105;3.0206;0.0891012;0;0;0;0
185.9733;1.06504;3.0184;0.0902239;0;0;0;0
186.4733;1.06981;3.0168;0.0901197;0;0;0;0
186.9735;1.07152;3.0196;0.0908136;0;0;0;0
187.4733;1.07453;3.0285;0.0909931;0;0;0;0
187.9733;1.07886;3.037;0.0913726;0;0;0;0
188.4735;1.08296;3.0335;0.0913758;0;0;0;0
188.9734;1.08621;3.0335;0.0912509;0;0;0;0
189.4733;1.09007;3.0212;0.0915727;0;0;0;0
189.9735;1.09236;3.0146;0.0925856;0;0;0;0
190.4733;1.0951;3.0203;0.0925104;0;0;0;0
190.9733;1.10097;3.0285;0.0931947;0;0;0;0
191.4733;1.10471;3.0263;0.09354946;0;0;0;0
191.9733;1.10586;3.03;0.0936261;0;0;0;0
192.4732;1.10776;3.0338;0.0941261;0;0;0;0
192.9732;1.11197;3.0073;0.0938546;0;0;0;0
193.4734;1.11246;3.0297;0.0948699;0;0;0;0
193.9732;1.11882;3.0462;0.0961217;0;0;0;0
194.4734;1.12158;3.0127;0.0962794;0;0;0;0
194.9734;1.12564;3.0465;0.0964515;0;0;0;0
195.4734;1.12351;3.0414;0.0947933;0;0;0;0
195.9732;1.13295;3.0389;0.096504;0;0;0;0
196.4732;1.13529;3.0177;0.09612484;0;0;0;0
196.9732;1.13769;3.0433;0.0970407;0;0;0;0
197.4734;1.14302;3.0278;0.0969739;0;0;0;0
197.9732;1.14582;3.0487;0.0984742;0;0;0;0
198.4732;1.14612;3.0534;0.0977729;0;0;0;0
198.9731;1.15152;3.0421;0.0970726;0;0;0;0
199.4732;1.15353;3.0389;0.0995166;0;0;0;0
199.9731;1.15837;3.0392;0.0992387;0;0;0;0
200.4733;1.16303;3.0481;0.100087;0;0;0;0
200.9731;1.16222;3.0626;0.100398;0;0;0;0
201.4733;1.16866;3.0566;0.100428;0;0;0;0
201.9731;1.17275;3.0398;0.0998104;0;0;0;0
202.4733;1.17557;3.0575;0.100656;0;0;0;0
202.9733;1.17698;3.0569;0.10194;0;0;0;0
203.4731;1.18082;3.0743;0.101807;0;0;0;0
203.9731;1.18356;3.0509;0.102748;0;0;0;0
204.4732;1.18969;3.0575;0.103905;0;0;0;0
204.9732;1.19044;3.0572;0.103269;0;0;0;0
205.4731;1.19348;3.0496;0.104485;0;0;0;0
205.9732;1.19747;3.0591;0.104894;0;0;0;0
206.4731;1.20216;3.0512;0.10509;0;0;0;0
206.973;1.20301;3.049;0.106053;0;0;0;0
207.473;1.2053;3.0484;0.105417;0;0;0;0
207.9731;1.21033;3.0544;0.106618;0;0;0;0
208.4731;1.21403;3.0721;0.107565;0;0;0;0
208.9732;1.21746;3.0617;0.106785;0;0;0;0
209.473;1.21915;3.0778;0.107724;0;0;0;0
209.973;1.22415;3.0787;0.108415;0;0;0;0
210.473;1.22625;3.0705;0.107623;0;0;0;0
210.973;1.23146;3.067;0.108889;0;0;0;0
211.473;1.23284;3.0686;0.109182;0;0;0;0
211.973;1.23455;3.0749;0.110051;0;0;0;0
212.473;1.23853;3.0888;0.110714;0;0;0;0
212.973;1.24716;3.0667;0.110673;0;0;0;0
213.4729;1.24797;3.0759;0.111275;0;0;0;0
213.9731;1.24966;3.0575;0.111171;0;0;0;0
214.4729;1.25196;3.0598;0.111199;0;0;0;0
214.9729;1.25559;3.0509;0.112029;0;0;0;0
215.4729;1.25839;3.0683;0.114146;0;0;0;0
215.9729;1.26434;3.08;0.113687;0;0;0;0
216.4731;1.26603;3.0752;0.113874;0;0;0;0
216.9729;1.26733;3.079;0.113941;0;0;0;0
217.4729;1.27291;3.0876;0.114304;0;0;0;0
217.9729;1.27374;3.0724;0.115164;0;0;0;0
218.4729;1.28061;3.0841;0.114842;0;0;0;0
218.9729;1.28221;3.0702;0.116085;0;0;0;0
219.4729;1.28573;3.0942;0.116827;0;0;0;0
219.973;1.2881;3.0828;0.117424;0;0;0;0
220.473;1.29069;3.0806;0.117777;0;0;0;0
220.9728;1.2953;3.0733;0.118519;0;0;0;0
221.4728;1.29702;3.0933;0.118368;0;0;0;0
221.9728;1.30193;3.0708;0.119069;0;0;0;0
222.4728;1.3051;3.0598;0.119081;0;0;0;0
222.9728;1.31026;3.0683;0.119917;0;0;0;0
223.473;1.31083;3.0762;0.120802;0;0;0;0
223.9728;1.31416;3.0601;0.121534;0;0;0;0
224.4728;1.31756;3.0869;0.120773;0;0;0;0
224.973;1.3214;3.0705;0.123167;0;0;0;0
225.4729;1.32613;3.0898;0.123478;0;0;0;0
225.9728;1.3278;3.0746;0.122497;0;0;0;0
226.4728;1.3347;3.0923;0.124088;0;0;0;0
226.9727;1.33462;3.0645;0.124022;0;0;0;0
227.4727;1.33838;3.0923;0.124703;0;0;0;0
227.9727;1.3407;3.0733;0.125765;0;0;0;0
228.473;1.34338;3.0692;0.126643;0;0;0;0
228.9727;1.34677;3.079;0.126511;0;0;0;0
229.473;1.35247;3.0901;0.128216;0;0;0;0
229.9729;1.35402;3.091;0.127174;0;0;0;0
230.4727;1.35666;3.0825;0.12789;0;0;0;0
230.9729;1.35969;3.0895;0.128501;0;0;0;0
231.4728;1.36425;3.0904;0.128876;0;0;0;0
231.9727;1.36759;3.0854;0.129986;0;0;0;0
232.4729;1.37162;3.0822;0.129058;0;0;0;0
232.9727;1.37368;3.0854;0.130794;0;0;0;0
233.4726;1.3776;3.0942;0.131948;0;0;0;0
233.9726;1.38271;3.0863;0.131551;0;0;0;0
234.4728;1.387;3.0869;0.133715;0;0;0;0
234.9728;1.38745;3.0746;0.134215;0;0;0;0
235.4726;1.39129;3.08;0.134244;0;0;0;0
235.9726;1.39333;3.0806;0.134394;0;0;0;0
236.4726;1.40222;3.0901;0.135268;0;0;0;0
236.9726;1.4022;3.0784;0.135974;0;0;0;0
237.4728;1.40424;3.0711;0.13705;0;0;0;0
237.9726;1.41264;3.0838;0.138284;0;0;0;0
238.4726;1.40981;3.0876;0.137985;0;0;0;0
238.9727;1.41333;3.073;0.138799;0;0;0;0
239.4726;1.41718;3.0996;0.140143;0;0;0;0
239.9727;1.42142;3.0648;0.140322;0;0;0;0
240.4727;1.4273;3.0778;0.140654;0;0;0;0
240.9727;1.42696;3.0648;0.141047;0;0;0;0
241.4725;1.43056;3.0781;0.141701;0;0;0;0
241.9727;1.43294;3.0708;0.142641;0;0;0;0
242.4725;1.43492;3.0639;0.142317;0;0;0;0
242.9725;1.43922;3.0724;0.143725;0;0;0;0
243.4725;1.44414;3.086;0.144207;0;0;0;0
243.9726;1.44434;3.0544;0.146903;0;0;0;0
244.4725;1.44999;3.0673;0.145824;0;0;0;0
244.9725;1.45723;3.061;0.146084;0;0;0;0
245.4725;1.45595;3.0822;0.14775;0;0;0;0
245.9725;1.46148;3.0923;0.148588;0;0;0;0
246.4725;1.4609;3.0661;0.148136;0;0;0;0
246.9726;1.46795;3.0714;0.150624;0;0;0;0
247.4724;1.46689;3.0635;0.149927;0;0;0;0
247.9724;1.47347;3.0831;0.1514;0;0;0;0
248.4726;1.47586;3.079;0.150564;0;0;0;0
248.9724;1.48091;3.0667;0.151558;0;0;0;0
249.4724;1.48402;3.0759;0.153984;0;0;0;0
249.9724;1.48554;3.0762;0.152456;0;0;0;0
250.4724;1.48913;3.0661;0.154641;0;0;0;0
250.9724;1.49388;3.0686;0.154898;0;0;0;0
251.4725;1.49579;3.0718;0.157158;0;0;0;0
251.9725;1.50038;3.0711;0.156165;0;0;0;0
252.4725;1.50261;3.0705;0.157158;0;0;0;0
252.9724;1.50863;3.0667;0.158068;0;0;0;0
253.4725;1.51185;3.0705;0.159811;0;0;0;0
253.9725;1.51408;3.0654;0.161441;0;0;0;0
254.4725;1.51608;3.0604;0.161664;0;0;0;0
254.9723;1.51751;3.0556;0.162508;0;0;0;0
255.4725;1.52666;3.0714;0.162623;0;0;0;0
255.9723;1.52727;3.0598;0.164643;0;0;0;0
256.4724;1.52983;3.0601;0.164976;0;0;0;0
256.9723;1.53227;3.043;0.165262;0;0;0;0
257.4723;1.53547;3.0538;0.167846;0;0;0;0
257.9723;1.53844;3.0601;0.167111;0;0;0;0
258.4723;1.54597;3.0402;0.169347;0;0;0;0
258.9723;1.54849;3.0648;0.169456;0;0;0;0
259.4723;1.55351;3.038;0.170128;0;0;0;0
259.9723;1.55199;3.0503;0.172293;0;0;0;0
260.4724;1.55701;3.0316;0.173127;0;0;0;0
260.9722;1.56063;3.0424;0.173389;0;0;0;0
261.4722;1.56467;3.0534;0.172782;0;0;0;0
261.9724;1.56628;3.0398;0.174596;0;0;0;0
262.4722;1.56838;3.0376;0.176351;0;0;0;0
262.9722;1.5735;3.0462;0.177252;0;0;0;0
263.4724;1.5793;3.0357;0.177692;0;0;0;0
263.9722;1.58144;3.0231;0.17813;0;0;0;0
264.4722;1.5852;3.0433;0.181024;0;0;0;0
264.9722;1.58792;3.0199;0.183063;0;0;0;0
265.4723;1.59079;3.0361;0.183793;0;0;0;0
265.9722;1.59381;3.0433;0.183924;0;0;0;0
266.4722;1.59707;3.0272;0.18439;0;0;0;0
266.9723;1.60381;3.0291;0.186992;0;0;0;0
267.4721;1.60357;3.025;0.188757;0;0;0;0
267.9721;1.60874;3.0228;0.191318;0;0;0;0
268.4723;1.61129;2.9956;0.19249;0;0;0;0
268.9721;1.61384;3.024;0.193355;0;0;0;0
269.4723;1.61988;3.0345;0.192972;0;0;0;0
269.9721;1.6206;3.0215;0.194441;0;0;0;0
270.4721;1.62504;3.0114;0.195653;0;0;0;0
270.9721;1.62753;2.9959;0.195812;0;0;0;0
271.4721;1.63802;3.0003;0.197007;0;0;0;0
271.9721;1.63789;3.0051;0.19385;0;0;0;0
272.4721;1.63767;3.0054;0.195427;0;0;0;0
272.972;1.63906;2.9893;0.197213;0;0;0;0
273.472;1.64782;2.9905;0.197043;0;0;0;0
273.9721;1.6478;3.0026;0.198498;0;0;0;0
274.472;1.65252;2.9988;0.201212;0;0;0;0
274.972;1.65618;3.0054;0.201347;0;0;0;0
275.472;1.65848;2.994;0.202915;0;0;0;0
275.9722;1.66076;2.9785;0.208058;0;0;0;0
276.472;1.66448;2.9994;0.211092;0;0;0;0
276.9721;1.66881;2.9839;0.210065;0;0;0;0
277.472;1.67409;3.0019;0.213568;0;0;0;0
277.972;1.67294;2.9807;0.215744;0;0;0;0
278.472;1.67706;2.9792;0.216887;0;0;0;0
278.972;1.68015;2.9779;0.216767;0;0;0;0
279.472;1.68631;2.9852;0.21782;0;0;0;0
279.972;1.68771;2.9826;0.222325;0;0;0;0
280.4719;1.6943;2.9668;0.222654;0;0;0;0
280.9721;1.69528;2.9681;0.224224;0;0;0;0
281.4719;1.6971;2.9694;0.224605;0;0;0;0
281.9719;1.6999;2.9612;0.227844;0;0;0;0
282.4721;1.70579;2.9536;0.227763;0;0;0;0
282.9719;1.70686;2.9612;0.230157;0;0;0;0
283.4719;1.71111;2.9454;0.232406;0;0;0;0
283.9721;1.71584;2.9523;0.232338;0;0;0;0
284.4719;1.72146;2.9514;0.236036;0;0;0;0
284.9719;1.72419;2.9577;0.236318;0;0;0;0
285.4719;1.72487;2.9349;0.238231;0;0;0;0
285.9719;1.73055;2.9384;0.239656;0;0;0;0
286.4718;1.73419;2.9406;0.241223;0;0;0;0
286.9718;1.73786;2.9125;0.244188;0;0;0;0
287.4718;1.73971;2.9365;0.244547;0;0;0;0
287.972;1.74258;2.9387;0.246749;0;0;0;0
288.4718;1.74656;2.9296;0.247075;0;0;0;0
288.9719;1.74945;2.9131;0.24849;0;0;0;0
289.472;1.75288;2.9125;0.250707;0;0;0;0
289.972;1.75818;2.9109;0.251595;0;0;0;0
290.4719;1.76229;2.9071;0.254245;0;0;0;0
290.9719;1.76543;2.9261;0.255057;0;0;0;0
291.4718;1.76591;2.8916;0.258131;0;0;0;0
291.9719;1.76798;2.9163;0.260047;0;0;0;0
292.4717;1.77533;2.9033;0.262198;0;0;0;0
292.9719;1.77848;2.8856;0.264405;0;0;0;0
293.4717;1.77914;2.8891;0.26383;0;0;0;0
293.9717;1.78448;2.8853;0.267553;0;0;0;0
294.4717;1.78817;2.8812;0.269577;0;0;0;0
294.9719;1.79191;2.8771;0.271696;0;0;0;0
295.4717;1.7959;2.8749;0.271986;0;0;0;0
295.9717;1.79935;2.866;0.27448;0;0;0;0
296.4717;1.80378;2.8657;0.277916;0;0;0;0
296.9717;1.80529;2.8537;0.281084;0;0;0;0
297.4719;1.81015;2.8632;0.281681;0;0;0;0
297.9718;1.81363;2.8556;0.283071;0;0;0;0
298.4717;1.81505;2.8727;0.283719;0;0;0;0
298.9717;1.8182;2.8509;0.288848;0;0;0;0
299.4717;1.82191;2.8591;0.291459;0;0;0;0
299.9717;1.82646;2.8423;0.294317;0;0;0;0
300.4717;1.83162;2.8259;0.295739;0;0;0;0
300.9716;1.83467;2.8344;0.294564;0;0;0;0
301.4716;1.83612;2.8297;0.297098;0;0;0;0
301.9716;1.84133;2.8171;0.296836;0;0;0;0
302.4718;1.84174;2.8183;0.297516;0;0;0;0
302.9716;1.84697;2.8246;0.300193;0;0;0;0
303.4716;1.84797;2.8028;0.301405;0;0;0;0
303.9716;1.85305;2.7832;0.30405;0;0;0;0
304.4716;1.85733;2.7946;0.306248;0;0;0;0
304.9716;1.86325;2.7731;0.309324;0;0;0;0
305.4716;1.86406;2.7791;0.312223;0;0;0;0
305.9716;1.87025;2.8085;0.312341;0;0;0;0
306.4715;1.87252;2.7769;0.3158;0;0;0;0
306.9716;1.87447;2.7766;0.319109;0;0;0;0
307.4715;1.877768;2.7614;0.32008;0;0;0;0
307.9715;1.88434;2.7554;0.321534;0;0;0;0
308.4717;1.88773;2.7526;0.322368;0;0;0;0
308.9717;1.88799;2.739;0.324364;0;0;0;0
309.4717;1.89415;2.7317;0.328702;0;0;0;0
309.9715;1.89702;2.7137;0.331098;0;0;0;0
310.4717;1.89993;2.7365;0.332678;0;0;0;0
310.9716;1.90516;2.7235;0.33524;0;0;0;0
311.4716;1.90778;2.7191;0.337046;0;0;0;0
311.9715;1.90876;2.6963;0.339936;0;0;0;0
312.4716;1.91425;2.7017;0.338436;0;0;0;0
312.9716;1.92018;2.6979;0.342598;0;0;0;0
313.4714;1.92175;2.6698;0.345509;0;0;0;0
313.9716;1.92684;2.6752;0.349773;0;0;0;0
314.4714;1.93084;2.6486;0.355712;0;0;0;0
314.9714;1.93203;2.6341;0.355808;0;0;0;0
315.4714;1.93533;2.6022;0.360816;0;0;0;0
315.9714;1.94691;2.3784;0.368516;0;0;0;0