File: LAB_DATA/AA7020-T6_results/DATA/SL_240_NT20_90_2.csv
Time[s];Displacement[mm];Force[kN];AxStrain_1;AxStrain_2;Thickness[mm];OuterWidth[mm];InnerWidth[mm]
0;0;-0.0019;0;0;1.02;20;9.98
0.4761;-0.001399857;0.006;0.000271893;0;0;0;0
0.9761;4.54112E-05;0.0029;6.17E-04;0;0;0;0
1.4761;-0.003327817;-0.0006;-5.96509E-05;0;0;0;0
1.9761;-0.001416865;0.0063;0.000117537;0;0;0;0
2.4761;-0.001334634;-0.0016;-1.22808E-05;0;0;0;0
2.976;0.000208471;-0.0035;-0.000103514;0;0;0;0
3.4761;-0.002821106;-0.0044;-5.69E-04;0;0;0;0
3.9761;-0.000412909;0.0133;-0.000328124;0;0;0;0
4.4761;-0.002285288;-0.0012;0.000543712;0;0;0;0
4.9761;-0.001160528;0.006;-0.000433427;0;0;0;0
5.4759;-0.003942534;-0.0022;0.000275401;0;0;0;0
5.9759;-0.001797337;-0.0012;2.80698E-05;0;0;0;0
6.4759;-0.003013095;-0.0016;-4.03517E-05;0;0;0;0
6.9759;-0.002782357;-0.0063;6.31559E-05;0;0;0;0
7.4759;-0.00060297;-0.0003;0.000675211;0;0;0;0
7.9759;0.001002203;0.0114;0.000301709;0;0;0;0
8.4759;-0.002828645;0.0073;-0.000124569;0;0;0;0
8.9759;-0.001581152;-0.0114;9.9995E-05;0;0;0;0
9.4758;-0.001688631;-0.005;0.000426225;0;0;0;0
9.9758;-0.002567399;0.0044;-0.000349184;0;0;0;0
10.4758;-0.003664983;0;-0.000261438;0;0;0;0
10.976;-0.00248885;-0.0057;-0.000135097;0;0;0;0
11.4758;-0.003685146;0.0025;1.92981E-05;0;0;0;0
11.9758;-0.002668566;0.0076;0.000264877;0;0;0;0
12.4759;-0.002581601;-0.0019;0.000459544;0;0;0;0
12.976;-0.001754731;-0.0038;2.14E-04;0;0;0;0
13.4759;-0.002090669;-0.0079;0.000587547;0;0;0;0
13.9758;-0.002134502;-0.0057;0.000129816;0;0;0;0
14.476;-0.002890888;0.0029;0.000422718;0;0;0;0
14.9758;-0.001602718;0.0048;-8.59686E-05;0;0;0;0
15.4758;-0.002074012;-0.005;0.000613847;0;0;0;0
15.9758;-0.003166161;-0.0012;-0.000440448;0;0;0;0
16.4759;0.000237751;0.0579;0.000117537;0;0;0;0
16.9757;0.000490757;0.0983;0.000454283;0;0;0;0
17.4759;0.003308882;0.1403;-2.81E-05;0;0;0;0
17.9759;0.000148332;0.1906;1.89E-04;0;0;0;0
18.4757;0.00478308;0.2339;0.001150215;0;0;0;0
18.9757;0.005765821;0.2582;3.61E-04;0;0;0;0
19.4757;0.007878932;0.3239;0.000678717;0;0;0;0
19.9759;0.010233;0.3397;0.000831233;0;0;0;0
20.4757;0.0121434;0.3947;0.001165987;0;0;0;0
20.9757;0.013976;0.4415;0.001018779;0;0;0;0
21.4757;0.0166287;0.481;0.001113415;0;0;0;0
21.9757;0.01829195;0.5183;0.001218556;0;0;0;0
22.4757;0.0185348;0.5727;0.000789162;0;0;0;0
22.9758;0.0205865;0.5995;0.001146711;0;0;0;0
23.4756;0.0239925;0.6536;0.000682223;0;0;0;0
23.9756;0.0228157;0.6886;0.000827728;0;0;0;0
24.4756;0.0281616;0.73;0.00097321;0;0;0;0
24.9756;0.0270021;0.7771;0.001962984;0;0;0;0
25.4756;0.0277801;0.8024;0.001817645;0;0;0;0
25.9756;0.0295057;0.8615;0.002092546;0;0;0;0
26.4756;0.0310218;0.8839;0.001491869;0;0;0;0
26.9756;0.0321716;0.9389;0.001446322;0;0;0;0
27.4756;0.0347596;0.981;0.001248343;0;0;0;0
27.9756;0.0364703;1.0126;0.001674037;0;0;0;0
28.4756;0.03842735;1.059;0.00159697;0;0;0;0
28.9756;0.0390859;1.0922;0.001449826;0;0;0;0
29.4756;0.0418839;1.1383;0.002260601;0;0;0;0
29.9755;0.044989;1.1469;0.002612374;0;0;0;0
30.4755;0.0460454;1.1981;0.002862566;0;0;0;0
30.9755;0.0483638;1.2395;0.00248638;0;0;0;0
31.4755;0.0501268;1.2799;0.001665279;0;0;0;0
31.9755;0.05051392;1.3156;0.002038272;0;0;0;0
32.4755;0.0529463;1.3535;0.002080291;0;0;0;0
32.9755;0.05452536;1.3959;0.001994501;0;0;0;0
33.4755;0.0558233;1.4186;0.002020764;0;0;0;0
33.9755;0.0570968;1.4597;0.001968237;0;0;0;0
34.4755;0.0592536;1.4929;0.002741852;0;0;0;0
34.9755;0.0628467;1.5353;0.002829327;0;0;0;0
35.4755;0.0636323;1.5438;0.003509624;0;0;0;0
35.9755;0.0663358;1.5868;0.003750851;0;0;0;0
36.4755;0.0675962;1.6019;0.00417024;0;0;0;0
36.9754;0.0679797;1.6588;0.00380678;0;0;0;0
37.4754;0.0681507;1.6914;0.002542379;0;0;0;0
37.9754;0.0702832;1.7236;0.003035738;0;0;0;0
38.4754;0.0722934;1.7539;0.002629872;0;0;0;0
38.9754;0.0736735;1.7849;0.003254348;0;0;0;0
39.4754;0.0769732;1.8134;0.003189645;0;0;0;0
39.9754;0.0812896;1.8386;0.003906395;0;0;0;0
40.4754;0.0843372;1.8529;0.004641842;0;0;0;0
40.9754;0.0849007;1.8854;0.004676766;0;0;0;0
41.4754;0.0877543;1.8924;0.004992778;0;0;0;0
41.9754;0.0898818;1.9249;0.004865338;0;0;0;0
42.4754;0.0924974;1.9455;0.004634856;0;0;0;0
42.9754;0.0974013;1.9783;0.003420459;0;0;0;0
43.4754;0.0977407;1.9913;0.004484666;0;0;0;0
43.9754;0.102214;2.0125;0.004278553;0;0;0;0
44.4753;0.104519;2.0223;0.004318731;0;0;0;0
44.9753;0.10586;2.0302;0.005027691;0;0;0;0
45.4753;0.107352;2.0535;0.00609542;0;0;0;0
45.9753;0.111411;2.0665;0.006600973;0;0;0;0
46.4753;0.11507;2.0712;0.007163753;0;0;0;0
46.9753;0.115983;2.0858;0.007205556;0;0;0;0
47.4753;0.120597;2.1278;0.006792667;0;0;0;0
47.9753;0.120754;2.1436;0.006240139;0;0;0;0
48.4753;0.123037;2.1401;0.00590708;0;0;0;0
48.9753;0.128277;2.1325;0.006098908;0;0;0;0
49.4753;0.132186;2.1566;0.006620144;0;0;0;0
49.9753;0.134844;2.1626;0.006508598;0;0;0;0
50.4753;0.135835;2.1825;0.008542357;0;0;0;0
50.9752;0.139915;2.2027;0.009036243;0;0;0;0
51.4752;0.140253;2.215;0.009524671;0;0;0;0
51.9752;0.14506;2.2195;0.009667157;0;0;0;0
52.4752;0.148759;2.2283;0.009364785;0;0;0;0
52.9752;0.149993;2.2384;0.008881495;0;0;0;0
53.4752;0.152938;2.2501;0.008688462;0;0;0;0
53.9752;0.155206;2.2596;0.008389273;0;0;0;0
54.4752;0.157836;2.2675;0.008851934;0;0;0;0
54.9752;0.159501;2.2931;0.0104887;0;0;0;0
55.4752;0.166109;2.2947;0.0109625;0;0;0;0
55.9752;0.167043;2.2839;0.0116841;0;0;0;0
56.4752;0.170367;2.3054;0.01198231;0;0;0;0
56.9753;0.173476;2.313;0.0112713;0;0;0;0
57.4751;0.174095;2.3146;0.0113268;0;0;0;0
57.9751;0.178673;2.332;0.0107213;0;0;0;0
58.4751;0.180515;2.3503;0.0105581;0;0;0;0
58.9751;0.184806;2.355;0.011195;0;0;0;0
59.4751;0.187266;2.3642;0.0115922;0;0;0;0
59.9751;0.191029;2.3673;0.01291103;0;0;0;0
60.4751;0.193945;2.3737;0.0132245;0;0;0;0
60.9751;0.198893;2.3696;0.0137922;0;0;0;0
61.4751;0.19936;2.3904;0.0137385;0;0;0;0
61.9751;0.201919;2.3895;0.0143354;0;0;0;0
62.4751;0.206337;2.3904;0.0138666;0;0;0;0
62.975;0.208773;2.4151;0.014043;0;0;0;0
63.475;0.210563;2.4103;0.01396;0;0;0;0
63.975;0.215844;2.4211;0.0144599;0;0;0;0
64.475;0.217196;2.4179;0.0147279;0;0;0;0
64.975;0.219553;2.4486;0.0150995;0;0;0;0
65.475;0.222379;2.4454;0.0162877;0;0;0;0
65.9752;0.228007;2.4562;0.0162704;0;0;0;0
66.475;0.229291;2.4666;0.0162152;0;0;0;0
66.975;0.231905;2.4675;0.0163291;0;0;0;0
67.475;0.235836;2.4732;0.0163861;0;0;0;0
67.975;0.238833;2.4843;0.0157905;0;0;0;0
68.475;0.241707;2.4833;0.01709;0;0;0;0
68.975;0.244812;2.4944;0.0173986;0;0;0;0
69.475;0.247453;2.4966;0.0180019;0;0;0;0
69.9749;0.2526755;2.4953;0.0185531;0;0;0;0
70.4749;0.253287;2.501;0.0178916;0;0;0;0
70.9749;0.2567;2.5118;0.0180691;0;0;0;0
71.4749;0.25998;2.5339;0.0186961;0;0;0;0
71.9749;0.263445;2.5326;0.0193605;0;0;0;0
72.4749;0.266573;2.538;0.0196943;0;0;0;0
72.9749;0.269125;2.5465;0.0205557;0;0;0;0
73.4749;0.272577;2.5339;0.0203391;0;0;0;0
73.9749;0.274081;2.5478;0.0211519;0;0;0;0
74.4749;0.278387;2.5655;0.0213889;0;0;0;0
74.9749;0.282466;2.5737;0.0209423;0;0;0;0
75.4749;0.284395;2.5728;0.0212378;0;0;0;0
75.9749;0.287581;2.5747;0.0217409;0;0;0;0
76.4749;0.293084;2.5699;0.0226537;0;0;0;0
76.9749;0.29506;2.5826;0.0221614;0;0;0;0
77.4749;0.296827;2.5927;0.0230224;0;0;0;0
77.9748;0.301366;2.5778;0.0239307;0;0;0;0
78.4748;0.305749;2.6066;0.024078;0;0;0;0
78.9748;0.306218;2.5879;0.02365656;0;0;0;0
79.4748;0.309853;2.592;0.0238364;0;0;0;0
79.9748;0.313252;2.6135;0.0239307;0;0;0;0
80.4748;0.315876;2.6072;0.0240762;0;0;0;0
80.9748;0.31895;2.6022;0.0249134;0;0;0;0
81.4748;0.322268;2.6303;0.025235;0;0;0;0
81.9748;0.325708;2.6334;0.0258421;0;0;0;0
82.4748;0.328512;2.6385;0.0268503;0;0;0;0
82.9747;0.334211;2.6262;0.0270501;0;0;0;0
83.4748;0.335773;2.6322;0.0267854;0;0;0;0
83.9747;0.341429;2.6477;0.0269135;0;0;0;0
84.4747;0.342578;2.6594;0.0274718;0;0;0;0
84.9747;0.346049;2.6603;0.0277346;0;0;0;0
85.4747;0.348566;2.6492;0.0282498;0;0;0;0
85.9747;0.351968;2.6594;0.0289693;0;0;0;0
86.4747;0.35119;2.6508;0.029213;0;0;0;0
86.9747;0.355554;2.6733;0.0297836;0;0;0;0
87.4748;0.360145;2.6745;0.0295298;0;0;0;0
87.9747;0.365039;2.6638;0.0301309;0;0;0;0
88.4747;0.367864;2.6679;0.030861;0;0;0;0
88.9748;0.370188;2.6682;0.03030116;0;0;0;0
89.4747;0.373222;2.6887;0.0310447;0;0;0;0
89.9747;0.377122;2.6758;0.0317502;0;0;0;0
90.4746;0.380653;2.6736;0.0327015;0;0;0;0
90.9746;0.383017;2.6808;0.0332651;0;0;0;0
91.4746;0.386722;2.7004;0.0334297;0;0;0;0
91.9746;0.390152;2.7033;0.034359;0;0;0;0
92.4746;0.391407;2.6985;0.0342082;0;0;0;0
92.9746;0.39721;2.6853;0.0350962;0;0;0;0
93.4746;0.401007;2.7061;0.03436244;0;0;0;0
93.9746;0.40404;2.69;0.0353756;0;0;0;0
94.4746;0.404983;2.7109;0.0365096;0;0;0;0
94.9746;0.410111;2.7166;0.0363945;0;0;0;0
95.4746;0.412341;2.6985;0.0364723;0;0;0;0
95.9746;0.415919;2.7042;0.03752393;0;0;0;0
96.4746;0.420778;2.7166;0.0383026;0;0;0;0
96.9745;0.422878;2.7336;0.0391397;0;0;0;0
97.4745;0.426938;2.7267;0.0397418;0;0;0;0
97.9745;0.430737;2.7156;0.04002336;0;0;0;0
98.4745;0.434175;2.7093;0.04048;0;0;0;0
98.9745;0.436264;2.714;0.0416032;0;0;0;0
99.4745;0.438181;2.7213;0.0417799;0;0;0;0
99.9745;0.441923;2.7264;0.0425266;0;0;0;0
100.4745;0.446728;2.727;0.0429603;0;0;0;0
100.9745;0.44921;2.727;0.0430544;0;0;0;0
101.4745;0.451015;2.7358;0.0441848;0;0;0;0
101.9745;0.45464;2.7501;0.044804;0;0;0;0
102.4745;0.458046;2.7311;0.0459206;0;0;0;0
102.9745;0.461286;2.7175;0.04607135;0;0;0;0
103.4745;0.46584;2.7235;0.0465906;0;0;0;0
103.9745;0.468588;2.7371;0.0476132;0;0;0;0
104.4744;0.471604;2.7327;0.0484376;0;0;0;0
104.9744;0.474421;2.7267;0.04900735;0;0;0;0
105.4744;0.478257;2.7301;0.0488603;0;0;0;0
105.9744;0.483007;2.7434;0.0497905;0;0;0;0
106.4744;0.487066;2.726;0.0507665;0;0;0;0
106.9744;0.486661;2.7453;0.0510799;0;0;0;0
107.4744;0.490966;2.7513;0.052033;0;0;0;0
107.9744;0.49469;2.7264;0.05271728;0;0;0;0
108.4744;0.49987;2.7542;0.053978;0;0;0;0
108.9745;0.500792;2.7282;0.0542157;0;0;0;0
109.4744;0.50534;2.7412;0.0552505;0;0;0;0
109.9744;0.508589;2.7434;0.0555409;0;0;0;0
110.4743;0.511278;2.7314;0.0558048;0;0;0;0
110.9743;0.515934;2.7308;0.0571113;0;0;0;0
111.4743;0.520432;2.7279;0.0573516;0;0;0;0
111.9743;0.5214;2.7431;0.0585039;0;0;0;0
112.4743;0.523433;2.7425;0.0588695;0;0;0;0
112.9743;0.528287;2.7289;0.0597375;0;0;0;0
113.4743;0.530635;2.7292;0.06051894;0;0;0;0
113.9743;0.534385;2.7128;0.0615637;0;0;0;0
114.4743;0.537148;2.7317;0.0618985;0;0;0;0
114.9743;0.540185;2.7453;0.0630934;0;0;0;0
115.4743;0.543083;2.7456;0.0634129;0;0;0;0
115.9743;0.5464;2.7387;0.06429178;0;0;0;0
116.4743;0.551373;2.7437;0.0657713;0;0;0;0
116.9742;0.555329;2.7339;0.0658896;0;0;0;0
117.4742;0.557997;2.7352;0.06642;0;0;0;0
117.9742;0.560717;2.7311;0.0671306;0;0;0;0
118.4742;0.56521;2.7482;0.0680144;0;0;0;0
118.9742;0.567253;2.7463;0.069441;0;0;0;0
119.4742;0.571869;2.7134;0.06986968;0;0;0;0
119.9742;0.575178;2.7267;0.0710273;0;0;0;0
120.4742;0.57834;2.7371;0.07181625;0;0;0;0
120.9742;0.580576;2.727;0.07269758;0;0;0;0
121.4742;0.585076;2.7314;0.07405559;0;0;0;0
121.9742;0.58781;2.7166;0.0743423;0;0;0;0
122.4742;0.592357;2.714;0.0756932;0;0;0;0
122.9742;0.595163;2.7314;0.0769123;0;0;0;0
123.4741;0.597627;2.7128;0.0774466;0;0;0;0
123.9741;0.601633;2.7121;0.078456;0;0;0;0
124.4741;0.606216;2.715;0.079398;0;0;0;0
124.9741;0.608264;2.72;0.08029045;0;0;0;0
125.4741;0.6112829;2.7311;0.0811288;0;0;0;0
125.9741;0.61415;2.7137;0.081913;0;0;0;0
126.4741;0.617458;2.7162;0.0832844;0;0;0;0
126.9741;0.622606;2.7033;0.0845314;0;0;0;0
127.4741;0.626054;2.7188;0.0849344;0;0;0;0
127.9742;0.629827;2.7188;0.0860393;0;0;0;0
128.4741;0.63181;2.7118;0.0869805;0;0;0;0
128.9741;0.635494;2.6891;0.08867257;0;0;0;0
129.4741;0.639736;2.6951;0.0893402;0;0;0;0
129.9741;0.640848;2.7159;0.090413;0;0;0;0
130.4741;0.647509;2.6916;0.0915647;0;0;0;0
130.974;0.649725;2.6815;0.0925776;0;0;0;0
131.474;0.652687;2.6938;0.0939344;0;0;0;0
131.974;0.6568;2.696;0.0948651;0;0;0;0
132.474;0.660536;2.6929;0.0954681;0;0;0;0
132.974;0.661426;2.6859;0.0964419;0;0;0;0
133.474;0.6678046;2.6821;0.0979781;0;0;0;0
133.974;0.670325;2.6856;0.09885731;0;0;0;0
134.474;0.674349;2.6692;0.0999406;0;0;0;0
134.974;0.677646;2.6929;0.101246;0;0;0;0
135.474;0.6806;2.6752;0.101806;0;0;0;0
135.974;0.683301;2.6884;0.103152;0;0;0;0
136.474;0.687731;2.6796;0.104295;0;0;0;0
136.9739;0.689322;2.6742;0.105156;0;0;0;0
137.4739;0.693896;2.6511;0.105668;0;0;0;0
137.9739;0.698964;2.6767;0.107259;0;0;0;0
138.4739;0.701664;2.6619;0.108174;0;0;0;0
138.9739;0.703314;2.6761;0.109425;0;0;0;0
139.4739;0.708195;2.6552;0.111537;0;0;0;0
139.9739;0.712431;2.6575;0.112261;0;0;0;0
140.4739;0.715734;2.6451;0.114043;0;0;0;0
140.9739;0.719222;2.6461;0.114442;0;0;0;0
141.4739;0.721649;2.6439;0.116895;0;0;0;0
141.974;0.725228;2.6489;0.118042;0;0;0;0
142.4739;0.73021;2.6401;0.11855;0;0;0;0
142.9739;0.732798;2.6502;0.120256;0;0;0;0
143.4738;0.735417;2.6439;0.12218;0;0;0;0
143.9738;0.737727;2.63;0.123057;0;0;0;0
144.4738;0.744555;2.6224;0.124452;0;0;0;0
144.9738;0.748642;2.6401;0.126521;0;0;0;0
145.4738;0.750721;2.6394;0.127679;0;0;0;0
145.9738;0.751522;2.6328;0.129588;0;0;0;0
146.4739;0.756227;2.629;0.130942;0;0;0;0
146.9738;0.759705;2.6287;0.132031;0;0;0;0
147.4738;0.76415;2.6211;0.133771;0;0;0;0
147.9738;0.766741;2.6123;0.134793;0;0;0;0
148.4738;0.770008;2.6082;0.137038;0;0;0;0
148.9738;0.773766;2.5996;0.138469;0;0;0;0
149.4737;0.778156;2.6063;0.140637;0;0;0;0
149.9738;0.7815595;2.6135;0.1415;0;0;0;0
150.4738;0.785316;2.5917;0.143245;0;0;0;0
150.9737;0.787823;2.5845;0.143935;0;0;0;0
151.4737;0.790851;2.5943;0.146906;0;0;0;0
151.9737;0.794471;2.5927;0.147103;0;0;0;0
152.4737;0.798238;2.5952;0.149088;0;0;0;0
152.9737;0.802818;2.5712;0.150805;0;0;0;0
153.4737;0.803176;2.5702;0.152378;0;0;0;0
153.9737;0.810974;2.5743;0.154088;0;0;0;0
154.4737;0.811996;2.5718;0.155276;0;0;0;0
154.9737;0.81697;2.5743;0.157013;0;0;0;0
155.4737;0.819495;2.5721;0.159265;0;0;0;0
155.9736;0.822887;2.5778;0.160568;0;0;0;0
156.4737;0.825605;2.5563;0.162717;0;0;0;0
156.9736;0.828132;2.5506;0.163948;0;0;0;0
157.4737;0.833393;2.5664;0.165993;0;0;0;0
157.9736;0.836663;2.5557;0.167641;0;0;0;0
158.4736;0.840635;2.55;0.169004;0;0;0;0
158.9736;0.843849;2.5506;0.170505;0;0;0;0
159.4736;0.846813;2.5497;0.173026;0;0;0;0
159.9736;0.849769;2.5437;0.174017;0;0;0;0
160.4736;0.855474;2.5418;0.176761;0;0;0;0
160.9736;0.857838;2.5434;0.178418;0;0;0;0
161.4736;0.860733;2.525;0.18046;0;0;0;0
161.9736;0.86383;2.5171;0.182053;0;0;0;0
162.4736;0.867815;2.526;0.183445;0;0;0;0
162.9736;0.872374;2.5096;0.185301;0;0;0;0
163.4735;0.874538;2.4985;0.186918;0;0;0;0
163.9735;0.878089;2.5004;0.188354;0;0;0;0
164.4735;0.879326;2.5099;0.190259;0;0;0;0
164.9735;0.883905;2.4862;0.191846;0;0;0;0
165.4735;0.889414;2.489;0.193921;0;0;0;0
165.9735;0.892442;2.4985;0.195795;0;0;0;0
166.4735;0.894652;2.5127;0.197171;0;0;0;0
166.9735;0.898509;2.4732;0.199716;0;0;0;0
167.4735;0.902299;2.4925;0.201546;0;0;0;0
167.9735;0.907234;2.4833;0.203816;0;0;0;0
168.4735;0.910181;2.4972;0.205657;0;0;0;0
168.9735;0.91258;2.4691;0.206485;0;0;0;0
169.4735;0.917042;2.4789;0.208703;0;0;0;0
169.9734;0.918407;2.4498;0.209628;0;0;0;0
170.4734;0.923112;2.4688;0.212547;0;0;0;0
170.9734;0.92711;2.4625;0.212984;0;0;0;0
171.4734;0.930842;2.4558;0.216005;0;0;0;0
171.9734;0.93455;2.4517;0.218242;0;0;0;0
172.4734;0.936904;2.4397;0.219547;0;0;0;0
172.9734;0.941203;2.4318;0.221068;0;0;0;0
173.4734;0.945636;2.4173;0.224494;0;0;0;0
173.9734;0.947709;2.4204;0.226425;0;0;0;0
174.4734;0.951611;2.4198;0.228069;0;0;0;0
174.9734;0.954707;2.434;0.229502;0;0;0;0
175.4734;0.95875;2.4258;0.231987;0;0;0;0
175.9734;0.9629899;2.398;0.233363;0;0;0;0
176.4733;0.965578;2.4024;0.235746;0;0;0;0
176.9733;0.969274;2.3999;0.237615;0;0;0;0
177.4733;0.972743;2.4037;0.239493;0;0;0;0
177.9733;0.976449;2.3961;0.242087;0;0;0;0
178.4733;0.982281;2.4053;0.243269;0;0;0;0
178.9733;0.983589;2.3743;0.245585;0;0;0;0
179.4733;0.987827;2.3847;0.246912;0;0;0;0
179.9733;0.989288;2.4012;0.249533;0;0;0;0
180.4733;0.99349;2.3759;0.251335;0;0;0;0
180.9733;0.997364;2.3702;0.252783;0;0;0;0
181.4733;1.00077;2.3553;0.255247;0;0;0;0
181.9733;1.00286;2.3531;0.256985;0;0;0;0
182.4733;1.0074;2.3737;0.259168;0;0;0;0
182.9732;1.01332;2.3563;0.261526;0;0;0;0
183.4733;1.01492;2.3474;0.263729;0;0;0;0
183.9732;1.01754;2.3427;0.265311;0;0;0;0
184.4732;1.02227;2.3538;0.268593;0;0;0;0
184.9732;1.02674;2.3253;0.269493;0;0;0;0
185.4732;1.02852;2.3354;0.270994;0;0;0;0
185.9732;1.03403;2.3285;0.27385;0;0;0;0
186.4732;1.03617;2.2962;0.275938;0;0;0;0
186.9732;1.03961;2.3193;0.278414;0;0;0;0
187.4732;1.0422;2.3165;0.279691;0;0;0;0
187.9732;1.0452;2.3155;0.283085;0;0;0;0
188.4732;1.0521;2.2896;0.283922;0;0;0;0
188.9732;1.05487;2.3114;0.285958;0;0;0;0
189.4732;1.05695;2.2814;0.28864;0;0;0;0
189.9731;1.06057;2.2947;0.290146;0;0;0;0
190.4731;1.06681;2.2849;0.292865;0;0;0;0
190.9731;1.06999;2.2744;0.294566;0;0;0;0
191.4731;1.07206;2.2694;0.296608;0;0;0;0
191.9731;1.0745;2.2725;0.299999;0;0;0;0
192.4731;1.07709;2.2656;0.302661;0;0;0;0
192.9731;1.08139;2.2599;0.304286;0;0;0;0
193.4731;1.08788;2.2488;0.306327;0;0;0;0
193.9731;1.09181;2.2349;0.308909;0;0;0;0
194.4731;1.09396;2.2318;0.310536;0;0;0;0
194.9731;1.09724;2.2308;0.312584;0;0;0;0
195.4731;1.0981;2.221;0.314865;0;0;0;0
195.973;1.10441;2.234;0.316946;0;0;0;0
196.4731;1.10944;2.2021;0.320754;0;0;0;0
196.973;1.1113;2.2163;0.323047;0;0;0;0
197.473;1.11312;2.2078;0.325357;0;0;0;0
197.973;1.11933;2.2103;0.327578;0;0;0;0
198.473;1.12258;2.203;0.328869;0;0;0;0
198.9731;1.12512;2.179;0.331756;0;0;0;0
199.473;1.1285;2.1683;0.334244;0;0;0;0
199.973;1.13171;2.1664;0.335699;0;0;0;0
200.473;1.1357;2.1781;0.336975;0;0;0;0
200.973;1.14077;2.1702;0.339109;0;0;0;0
201.473;1.14482;2.1477;0.340313;0;0;0;0
201.973;1.14755;2.1594;0.343373;0;0;0;0
202.473;1.14958;2.1528;0.345742;0;0;0;0
202.973;1.15351;2.1398;0.347624;0;0;0;0
203.4729;1.15566;2.1395;0.348617;0;0;0;0
203.9729;1.16105;2.1319;0.350918;0;0;0;0
204.4729;1.16524;2.1174;0.353021;0;0;0;0
204.9729;1.16834;2.1133;0.356025;0;0;0;0
205.4729;1.1735;2.0975;0.357884;0;0;0;0
205.9729;1.176;2.0874;0.360567;0;0;0;0
206.4729;1.18265;2.0535;0.36294;0;0;0;0
206.9729;1.18567;2.0542;0.367039;0;0;0;0
207.4729;1.18888;2.0302;0.369931;0;0;0;0
207.9729;1.19493;2.0046;0.372394;0;0;0;0
208.4729;1.19989;1.9647;0.377218;0;0;0;0
208.9729;1.20389;1.9022;0.380905;0;0;0;0
209.473;1.20904;1.8405;0.386285;0;0;0;0
209.9728;1.21556;1.7634;0.391447;0;0;0;0
210.4728;1.22064;1.6797;0.400061;0;0;0;0
210.9728;1.22925;1.5767;0.440457;0;0;0;0
211.4728;1.23556;1.5233;0.448209;0;0;0;0
211.9728;1.24095;1.4774;0.452638;0;0;0;0
212.4728;1.24673;1.4363;0.461908;0;0;0;0
212.9728;1.25036;1.4114;0.464992;0;0;0;0
213.4728;1.25371;1.358;0.466944;0;0;0;0
213.9728;1.25962;1.3359;0.467596;0;0;0;0
214.4728;1.26436;1.3036;0.469925;0;0;0;0
214.9728;1.26967;1.2704;0.471021;0;0;0;0
215.4728;1.27296;1.2622;0.467641;0;0;0;0
215.9728;1.27681;1.2388;0.472025;0;0;0;0
216.4727;1.28133;1.2297;0.474298;0;0;0;0
216.9727;1.28563;1.211;0.477798;0;0;0;0
217.4727;1.28973;1.1933;0.479302;0;0;0;0
217.9727;1.29428;1.1794;0.482651;0;0;0;0
218.4727;1.2972;1.1614;0.486092;0;0;0;0
218.9727;1.30228;1.1405;0.488031;0;0;0;0
219.4727;1.30698;1.1206;0.491789;0;0;0;0
219.9727;1.31088;1.1118;0.494756;0;0;0;0
220.4727;1.31478;1.0669;0.512072;0;0;0;0
220.9727;1.31834;1.0631;0.513562;0;0;0;0
221.4727;1.3242;1.0454;0.516729;0;0;0;0
221.9727;1.32624;1.0255;0.519482;0;0;0;0
222.4727;1.32942;0.9942;0.52096;0;0;0;0
222.9726;1.33535;0.9743;0.522103;0;0;0;0
223.4726;1.33834;0.9708;0.526117;0;0;0;0
223.9726;1.34205;0.949;0.527906;0;0;0;0
224.4726;1.34746;0.9336;0.529678;0;0;0;0
224.9726;1.35;0.9073;0.533444;0;0;0;0
225.4726;1.35306;0.9048;0.534789;0;0;0;0
225.9726;1.35762;0.914;0.537652;0;0;0;0
226.4726;1.36271;0.8982;0.538881;0;0;0;0
226.9726;1.36655;0.8839;0.539634;0;0;0;0
227.4726;1.36799;0.8722;0.54283;0;0;0;0
227.9726;1.37398;0.8779;0.543339;0;0;0;0
228.4726;1.37726;0.8391;0.546104;0;0;0;0
228.9726;1.38283;0.821;0.549619;0;0;0;0
229.4725;1.38512;0.8239;0.550995;0;0;0;0
229.9727;1.38923;0.8078;0.55427;0;0;0;0
230.4725;1.39287;0.8046;0.556082;0;0;0;0
230.9725;1.39413;0.7841;0.5581;0;0;0;0
231.4725;1.39984;0.779;0.561019;0;0;0;0
231.9725;1.40455;0.7673;0.562525;0;0;0;0
232.4725;1.40601;0.7632;0.563987;0;0;0;0
232.9725;1.41142;0.7411;0.567178;0;0;0;0
233.4725;1.41524;0.7351;0.569236;0;0;0;0
233.9725;1.42004;0.7345;0.571651;0;0;0;0
234.4725;1.42337;0.7035;0.574158;0;0;0;0
234.9725;1.42677;0.7082;0.575833;0;0;0;0
235.4725;1.42918;0.6962;0.578857;0;0;0;0
235.9725;1.43358;0.695;0.580575;0;0;0;0
236.4725;1.43913;0.6709;0.58319;0;0;0;0
236.9724;1.44405;0.6627;0.584576;0;0;0;0
237.4724;1.44415;0.6536;0.587759;0;0;0;0
237.9724;1.45002;0.6476;0.58967;0;0;0;0
238.4724;1.4541;0.6352;0.591718;0;0;0;0
238.9724;1.45659;0.6125;0.594457;0;0;0;0
239.4724;1.46032;0.6128;0.59635;0;0;0;0
239.9724;1.46391;0.6131;0.598703;0;0;0;0
240.4724;1.46932;0.5847;0.601967;0;0;0;0
240.9724;1.47409;0.5764;0.603249;0;0;0;0
241.4724;1.47798;0.5679;0.606075;0;0;0;0
241.9724;1.48045;0.5606;0.607206;0;0;0;0
242.4724;1.48354;0.566;0.610157;0;0;0;0
242.9724;1.49148;0.5505;0.611994;0;0;0;0
243.4723;1.49204;0.5452;0.614579;0;0;0;0
243.9723;1.49227;0.5287;0.615802;0;0;0;0
244.4723;1.49907;0.5306;0.61892;0;0;0;0
244.9723;1.50047;0.5155;0.619896;0;0;0;0
245.4723;1.50501;0.5164;0.622816;0;0;0;0
245.9723;1.5083;0.499;0.624899;0;0;0;0
246.4723;1.51554;0.5057;0.626749;0;0;0;0
246.9723;1.51769;0.4927;0.629763;0;0;0;0
247.4723;1.52032;0.4797;0.631549;0;0;0;0
247.9723;1.52429;0.4671;0.633483;0;0;0;0
248.4723;1.52743;0.4718;0.634854;0;0;0;0
248.9723;1.53;0.4526;0.637132;0;0;0;0
249.4723;1.53624;0.4548;0.638935;0;0;0;0
249.9722;1.53774;0.4551;0.641646;0;0;0;0
250.4722;1.54307;0.427;0.64303;0;0;0;0
250.9722;1.54778;0.427;0.645958;0;0;0;0
251.4722;1.55143;0.4355;0.64748;0;0;0;0
251.9722;1.55546;0.4067;0.650369;0;0;0;0
252.4722;1.55645;0.4124;0.651576;0;0;0;0
252.9722;1.55943;0.4115;0.653938;0;0;0;0
253.4722;1.56404;0.3916;0.655617;0;0;0;0
253.9722;1.56917;0.3761;0.657382;0;0;0;0
254.4722;1.57191;0.3802;0.660042;0;0;0;0
254.9722;1.57399;0.3834;0.661481;0;0;0;0
255.4722;1.57815;0.3644;0.662556;0;0;0;0
255.9721;1.58266;0.3723;0.664592;0;0;0;0
256.4721;1.58805;0.3603;0.667024;0;0;0;0
256.9721;1.59012;0.359;0.670435;0;0;0;0
257.4721;1.59204;0.3562;0.671047;0;0;0;0
257.9721;1.59762;0.3369;0.673164;0;0;0;0
258.4721;1.60314;0.3227;0.675277;0;0;0;0
258.9721;1.6038;0.3214;0.67683;0;0;0;0
259.4721;1.60548;0.3154;0.678666;0;0;0;0
259.9721;1.61125;0.316;0.679764;0;0;0;0
260.4722;1.61624;0.2965;0.682805;0;0;0;0
260.9721;1.61802;0.2885;0.684268;0;0;0;0
261.4721;1.62417;0.293;0.686686;0;0;0;0
261.9721;1.62928;0.2879;0.689365;0;0;0;0
262.472;1.63031;0.2769;0.690424;0;0;0;0
262.972;1.63455;0.2592;0.692349;0;0;0;0
263.472;1.63956;0.2557;0.695;0;0;0;0
263.972;1.64296;0.2449;0.696499;0;0;0;0
264.472;1.6443;0.2506;0.698889;0;0;0;0
264.972;1.64886;0.2415;0.701697;0;0;0;0
265.472;1.6524;0.2174;0.70209;0;0;0;0
265.972;1.65678;0.2152;0.704052;0;0;0;0
266.472;1.65985;0.2083;0.705869;0;0;0;0
266.972;1.66423;0.2124;0.708063;0;0;0;0
267.472;1.66516;0.2099;0.709841;0;0;0;0
267.972;1.6687;0.1868;0.712516;0;0;0;0
268.472;1.6751;0.1903;0.71427;0;0;0;0
268.9719;1.67786;0.1909;0.716105;0;0;0;0
269.4719;1.68198;0.1783;0.719297;0;0;0;0
269.9719;1.68415;0.1783;0.720103;0;0;0;0
270.4719;1.6873;0.1574;0.722251;0;0;0;0
270.9719;1.69317;0.1637;0.723539;0;0;0;0
271.4719;1.69643;0.1372;0.726017;0;0;0;0
271.9719;1.69833;0.1501;0.726689;0;0;0;0
272.4719;1.70228;0.1271;0.730292;0;0;0;0
272.9719;1.70785;0.1135;0.7327;0;0;0;0
273.4719;1.71106;0.1075;0.733204;0;0;0;0
273.9719;1.71495;0.0961;0.734124;0;0;0;0
274.4719;1.71946;0.1008;0.73718;0;0;0;0
274.9719;1.72164;0.0989;0.738473;0;0;0;0
275.4719;1.72536;0.0765;0.740953;0;0;0;0
275.9719;1.72915;0.0718;0.74186;0;0;0;0
276.4718;1.73422;0.0708;0.744192;0;0;0;0
276.9718;1.73737;0.0686;0.746821;0;0;0;0
277.4718;1.7397;0.0553;0.747963;0;0;0;0
277.9718;1.74394;0.0484;0.750249;0;0;0;0
278.4718;1.74768;0.0525;0.751985;0;0;0;0
278.9718;1.75198;0.05;0.753678;0;0;0;0
279.4718;1.75502;0.0512;0.755245;0;0;0;0
279.9718;1.75772;0.0436;0.757088;0;0;0;0
280.4718;1.76204;0.0405;0.759682;0;0;0;0
280.9718;1.7654;0.0421;0.760775;0;0;0;0
281.4718;1.76917;0.0319;0.762887;0;0;0;0
281.9718;1.77208;0.03;0.764237;0;0;0;0
282.4718;1.77425;0.0278;0.765301;0;0;0;0
282.9717;1.77667;0.0221;0.766914;0;0;0;0
283.4717;1.78161;0.0082;0.768679;0;0;0;0
283.9717;1.78821;0.0095;0.771038;0;0;0;0
284.4717;1.79182;0.0025;0.773838;0;0;0;0
284.9717;1.79178;-0.0003;0.774742;0;0;0;0
285.4717;1.79487;-0.0088;0.777536;0;0;0;0
285.9717;1.79919;-0.011;0.779258;0;0;0;0
286.4717;1.80442;-0.0158;0.780399;0;0;0;0
286.9717;1.80906;-0.0189;0.782333;0;0;0;0