File: LAB_DATA/AA7020-T6_results/DATA/SL_320_NT20_90_1.csv
Time[s];Displacement[mm];Force[kN];AxStrain_1;AxStrain_2;Thickness[mm];OuterWidth[mm];InnerWidth[mm]
0;0;-0.0035;0;0;1.022;20;10.01
0.4665;0.000459021;-0.0066;-0.000491349;0;0;0;0
0.9665;0.001453509;-0.0006;0.000322755;0;0;0;0
1.4665;0.000508641;0.001;0.000164899;0;0;0;0
1.9666;0.00158045;-0.0009;-0.000731847;0;0;0;0
2.4664;-0.001637609;0.0048;-0.000819634;0;0;0;0
2.9664;-0.00120629;0.0029;-0.000981183;0;0;0;0
3.4664;-0.001478231;0.0048;-0.001288549;0;0;0;0
3.9664;-0.000769887;-0.0003;-0.000496615;0;0;0;0
4.4664;-0.001863788;0.007;-0.001002256;0;0;0;0
4.9664;0.000230387;0;-0.000415876;0;0;0;0
5.4664;0.002365415;0.0025;-0.000793297;0;0;0;0
5.9664;0.00030017;-0.0047;-0.001365845;0;0;0;0
6.4665;-0.00043991;0.0048;-0.001659271;0;0;0;0
6.9664;0.000852118;0.0139;-0.001562624;0;0;0;0
7.4663;0.000656271;0.0022;-0.001165591;0;0;0;0
7.9665;-7.01331E-07;0.0063;-0.001332466;0;0;0;0
8.4664;4.62879E-05;0.0421;-0.001465986;0;0;0;0
8.9663;0.002199726;0.0689;-0.000933769;0;0;0;0
9.4663;0.003661651;0.129;-0.001379899;0;0;0;0
9.9663;0.006242025;0.1776;-0.001009281;0;0;0;0
10.4663;0.007423593;0.2111;-0.00113222;0;0;0;0
10.9663;0.008460511;0.2617;-0.00115154;0;0;0;0
11.4663;0.009806191;0.2825;-0.000700245;0;0;0;0
11.9663;0.01487068;0.3277;-0.001297332;0;0;0;0
12.4664;0.0141032;0.365;-0.001385169;0;0;0;0
12.9664;0.0195714;0.4007;-0.001162078;0;0;0;0
13.4664;0.0190254;0.4586;-0.001501126;0;0;0;0
13.9662;0.02113357;0.4741;-0.001374629;0;0;0;0
14.4662;0.0212019;0.5316;-0.001269226;0;0;0;0
14.9662;0.0257781;0.5385;-0.001188425;0;0;0;0
15.4662;0.0263648;0.5809;-0.001083042;0;0;0;0
15.9662;0.0281723;0.6216;-0.001320169;0;0;0;0
16.4663;0.0300748;0.6472;-0.001483556;0;0;0;0
16.9663;0.036211;0.6874;-0.000770472;0;0;0;0
17.4661;0.0297582;0.7193;-0.001230581;0;0;0;0
17.9661;0.0353178;0.7591;-0.000781007;0;0;0;0
18.4661;0.0377474;0.7822;-0.001411522;0;0;0;0
18.9661;0.0392304;0.8169;-0.001295576;0;0;0;0
19.4661;0.0422038;0.8545;-0.000665133;0;0;0;0
19.9661;0.0408119;0.8808;-0.001033868;0;0;0;0
20.4662;0.04267847;0.9076;-0.001068992;0;0;0;0
20.9661;0.0449468;0.9484;-0.000891625;0;0;0;0
21.4661;0.049734;0.981;-0.001364088;0;0;0;0
21.9661;0.0491328;1.0113;-0.000349184;0;0;0;0
22.466;0.0536685;1.0388;-0.000838948;0;0;0;0
22.9662;0.0554001;1.0723;-0.001221799;0;0;0;0
23.4662;0.0565915;1.0875;-0.000145625;0;0;0;0
23.966;0.0570118;1.1178;-0.001202477;0;0;0;0
24.466;0.06184726;1.1557;-0.001146271;0;0;0;0
24.9661;0.0620144;1.1823;-0.000257928;0;0;0;0
25.466;0.0647131;1.1883;-0.000447469;0;0;0;0
25.966;0.0658308;1.2256;-0.000603691;0;0;0;0
26.4659;0.0684613;1.2477;-0.000766961;0;0;0;0
26.9659;0.07109712;1.2739;-0.000252663;0;0;0;0
27.4661;0.0745387;1.284;-0.000222832;0;0;0;0
27.9659;0.0789743;1.3074;0.000364846;0;0;0;0
28.4659;0.0787024;1.339;0.000815457;0;0;0;0
28.9659;0.082961;1.3479;0.000592807;0;0;0;0
29.466;0.0837981;1.3649;0.001087128;0;0;0;0
29.9659;0.085263;1.3602;0.000808445;0;0;0;0
30.4659;0.0880925;1.3769;0.000305217;0;0;0;0
30.9659;0.0915995;1.4209;0.000943414;0;0;0;0
31.4658;0.0915862;1.4303;0.001197528;0;0;0;0
31.9658;0.0980311;1.4259;0.001185262;0;0;0;0
32.466;0.0973288;1.4398;0.001151968;0;0;0;0
32.9658;0.102877;1.4272;0.002199334;0;0;0;0
33.4658;0.10631;1.4433;0.003950083;0;0;0;0
33.9658;0.11071;1.4294;0.004086376;0;0;0;0
34.4658;0.115536;1.4496;0.003514868;0;0;0;0
34.9658;0.11184;1.4537;0.004657558;0;0;0;0
35.4658;0.116704;1.449;0.00413355;0;0;0;0
35.9657;0.118929;1.4645;0.0039728;0;0;0;0
36.4657;0.124462;1.4632;0.004767564;0;0;0;0
36.9657;0.129364;1.4411;0.004510863;0;0;0;0
37.4657;0.129743;1.4569;0.005980328;0;0;0;0
37.9657;0.13446;1.4679;0.006083214;0;0;0;0
38.4657;0.138062;1.4616;0.007256067;0;0;0;0
38.9658;0.14003;1.4632;0.008055189;0;0;0;0
39.4657;0.145947;1.4654;0.008323161;0;0;0;0
39.9658;0.148546;1.4619;0.008883234;0;0;0;0
40.4657;0.151777;1.4714;0.008888451;0;0;0;0
40.9656;0.152968;1.4642;0.008587582;0;0;0;0
41.4656;0.160087;1.4604;0.009469062;0;0;0;0
41.9656;0.161125;1.4433;0.0093335;0;0;0;0
42.4656;0.164815;1.4569;0.0104453;0;0;0;0
42.9656;0.168601;1.46;0.010256;0;0;0;0
43.4656;0.170975;1.4553;0.0115939;0;0;0;0
43.9656;0.174263;1.4607;0.0125195;0;0;0;0
44.4656;0.177751;1.4582;0.01294913;0;0;0;0
44.9656;0.181544;1.4319;0.0131587;0;0;0;0
45.4656;0.185503;1.4521;0.0132089;0;0;0;0
45.9655;0.18589;1.4619;0.0142299;0;0;0;0
46.4655;0.189726;1.4344;0.0147088;0;0;0;0
46.9655;0.194757;1.4439;0.0151185;0;0;0;0
47.4655;0.198914;1.4528;0.015844;0;0;0;0
47.9655;0.202521;1.4512;0.0169727;0;0;0;0
48.4655;0.20459;1.4461;0.0172055;0;0;0;0
48.9655;0.207931;1.4269;0.0174038;0;0;0;0
49.4655;0.211755;1.4452;0.0180743;0;0;0;0
49.9655;0.213701;1.4398;0.01781062;0;0;0;0
50.4656;0.217968;1.4218;0.01901112;0;0;0;0
50.9654;0.220234;1.4243;0.0200021;0;0;0;0
51.4655;0.224254;1.4205;0.02128931;0;0;0;0
51.9654;0.22809;1.43;0.0214868;0;0;0;0
52.4654;0.230197;1.4237;0.0223741;0;0;0;0
52.9654;0.237363;1.4294;0.023295;0;0;0;0
53.4654;0.238318;1.4297;0.0239769;0;0;0;0
53.9654;0.240072;1.4231;0.0234064;0;0;0;0
54.4654;0.243577;1.4057;0.0252795;0;0;0;0
54.9654;0.248379;1.4168;0.0257037;0;0;0;0
55.4655;0.250596;1.4265;0.02706549;0;0;0;0
55.9653;0.254183;1.4262;0.0277841;0;0;0;0
56.4653;0.258334;1.4171;0.0281441;0;0;0;0
56.9653;0.261214;1.4107;0.0287903;0;0;0;0
57.4655;0.264295;1.4126;0.0301088;0;0;0;0
57.9654;0.269725;1.413;0.0306908;0;0;0;0
58.4653;0.272865;1.4174;0.031281;0;0;0;0
58.9653;0.274791;1.4136;0.0333974;0;0;0;0
59.4653;0.277814;1.4032;0.0328034;0;0;0;0
59.9655;0.281648;1.3921;0.0335926;0;0;0;0
60.4652;0.288117;1.3902;0.0346184;0;0;0;0
60.9652;0.290521;1.4044;0.0357566;0;0;0;0
61.4654;0.291994;1.3962;0.0380257;0;0;0;0
61.9653;0.297229;1.3807;0.0379243;0;0;0;0
62.4653;0.299471;1.3785;0.0390554;0;0;0;0
62.9652;0.302225;1.3968;0.0400925;0;0;0;0
63.4652;0.307569;1.3915;0.04077652;0;0;0;0
63.9652;0.308922;1.3931;0.0419548;0;0;0;0
64.4651;0.313048;1.3836;0.0422088;0;0;0;0
64.9652;0.316539;1.3772;0.0435097;0;0;0;0
65.4651;0.320458;1.3709;0.0439178;0;0;0;0
65.9651;0.324268;1.3684;0.0449063;0;0;0;0
66.4651;0.326032;1.3523;0.0462741;0;0;0;0
66.9652;0.328977;1.3605;0.0472501;0;0;0;0
67.4652;0.335485;1.3573;0.0476717;0;0;0;0
67.9651;0.33828;1.3548;0.048466;0;0;0;0
68.4651;0.342376;1.3611;0.0492662;0;0;0;0
68.9651;0.344556;1.3652;0.05137;0;0;0;0
69.4651;0.347468;1.3665;0.0518765;0;0;0;0
69.9652;0.349064;1.3716;0.0526224;0;0;0;0
70.465;0.351541;1.3599;0.0543519;0;0;0;0
70.965;0.35924;1.3646;0.05448154;0;0;0;0
71.4652;0.361328;1.3352;0.055521;0;0;0;0
71.965;0.364258;1.3371;0.0564384;0;0;0;0
72.465;0.367393;1.3523;0.0590217;0;0;0;0
72.965;0.370918;1.3178;0.0594103;0;0;0;0
73.465;0.37608;1.3396;0.0611776;0;0;0;0
73.965;0.37709;1.3441;0.06203704;0;0;0;0
74.4649;0.383053;1.3317;0.0627128;0;0;0;0
74.9649;0.384625;1.339;0.0630703;0;0;0;0
75.4651;0.388843;1.339;0.0645303;0;0;0;0
75.9649;0.392465;1.3273;0.0651189;0;0;0;0
76.4649;0.392311;1.3156;0.0663461;0;0;0;0
76.9649;0.400953;1.3226;0.0674881;0;0;0;0
77.465;0.402686;1.3027;0.0679144;0;0;0;0
77.9649;0.405172;1.2919;0.0701707;0;0;0;0
78.4649;0.409204;1.3144;0.0698909;0;0;0;0
78.965;0.414198;1.2957;0.0720203;0;0;0;0
79.4648;0.417545;1.3153;0.0732276;0;0;0;0
79.9648;0.419452;1.2888;0.0737721;0;0;0;0
80.4648;0.420082;1.2938;0.0751905;0;0;0;0
80.9648;0.425807;1.2982;0.0771332;0;0;0;0
81.4648;0.430898;1.2891;0.0772095;0;0;0;0
81.9648;0.431727;1.279;0.07789303;0;0;0;0
82.4648;0.437013;1.2824;0.0788825;0;0;0;0
82.9649;0.437787;1.2913;0.080857;0;0;0;0
83.4649;0.44293;1.2768;0.0803293;0;0;0;0
83.9648;0.447858;1.2625;0.0822201;0;0;0;0
84.4647;0.450526;1.2815;0.0836814;0;0;0;0
84.9649;0.455285;1.2818;0.0846958;0;0;0;0
85.4647;0.45817;1.2666;0.0855884;0;0;0;0
85.9647;0.462228;1.2733;0.08658;0;0;0;0
86.4647;0.466962;1.278;0.0886999;0;0;0;0
86.9647;0.467287;1.2654;0.08992409;0;0;0;0
87.4647;0.468719;1.2489;0.0913918;0;0;0;0
87.9647;0.475052;1.2622;0.0929421;0;0;0;0
88.4647;0.479884;1.2464;0.0931787;0;0;0;0
88.9648;0.481483;1.2587;0.0955892;0;0;0;0
89.4646;0.487824;1.2436;0.0964786;0;0;0;0
89.9646;0.489193;1.2385;0.09803215;0;0;0;0
90.4646;0.493001;1.2499;0.099434;0;0;0;0
90.9646;0.495537;1.2404;0.0998739;0;0;0;0
91.4646;0.501029;1.2391;0.101346;0;0;0;0
91.9646;0.501878;1.2312;0.102267;0;0;0;0
92.4646;0.507392;1.2338;0.104858;0;0;0;0
92.9646;0.508715;1.2376;0.105688;0;0;0;0
93.4646;0.512542;1.2139;0.107596;0;0;0;0
93.9647;0.518723;1.2354;0.109292;0;0;0;0
94.4645;0.522318;1.223;0.110698;0;0;0;0
94.9645;0.522808;1.2079;0.11341;0;0;0;0
95.4645;0.524426;1.2221;0.114775;0;0;0;0
95.9645;0.52977;1.2145;0.116004;0;0;0;0
96.4645;0.534428;1.2164;0.117312;0;0;0;0
96.9645;0.53864;1.212;0.119874;0;0;0;0
97.4645;0.540362;1.2139;0.121104;0;0;0;0
97.9645;0.54303;1.2082;0.123569;0;0;0;0
98.4645;0.547631;1.1905;0.124025;0;0;0;0
98.9646;0.55186;1.1845;0.127152;0;0;0;0
99.4644;0.554551;1.2012;0.128236;0;0;0;0
99.9644;0.557608;1.2019;0.12961;0;0;0;0
100.4645;0.561077;1.1987;0.132203;0;0;0;0
100.9644;0.564065;1.1744;0.134127;0;0;0;0
101.4646;0.570203;1.1728;0.135962;0;0;0;0
101.9645;0.573504;1.1671;0.13802;0;0;0;0
102.4644;0.575949;1.1652;0.138237;0;0;0;0
102.9644;0.578886;1.1639;0.139933;0;0;0;0
103.4643;0.58282;1.1614;0.141538;0;0;0;0
103.9643;0.584883;1.1548;0.144571;0;0;0;0
104.4643;0.589989;1.1706;0.145339;0;0;0;0
104.9643;0.594578;1.1766;0.147782;0;0;0;0
105.4645;0.597759;1.1516;0.149014;0;0;0;0
105.9643;0.596787;1.1437;0.151223;0;0;0;0
106.4644;0.602442;1.1601;0.152849;0;0;0;0
106.9643;0.611744;1.1535;0.155053;0;0;0;0
107.4643;0.611217;1.139;0.155955;0;0;0;0
107.9643;0.614334;1.1434;0.157978;0;0;0;0
108.4642;0.618316;1.1409;0.159916;0;0;0;0
108.9644;0.620844;1.1576;0.161874;0;0;0;0
109.4642;0.622469;1.1443;0.164403;0;0;0;0
109.9642;0.627739;1.1459;0.166956;0;0;0;0
110.4642;0.630965;1.1431;0.16723;0;0;0;0
110.9642;0.633636;1.1374;0.17037;0;0;0;0
111.4642;0.635227;1.1121;0.172581;0;0;0;0
111.9642;0.640154;1.115;0.173425;0;0;0;0
112.4642;0.642784;1.1295;0.17517;0;0;0;0
112.9641;0.647631;1.1323;0.177388;0;0;0;0
113.4641;0.648852;1.0998;0.179515;0;0;0;0
113.9641;0.65512;1.1143;0.180935;0;0;0;0
114.4641;0.660653;1.121;0.183336;0;0;0;0
114.9641;0.663088;1.1153;0.185681;0;0;0;0
115.4641;0.664677;1.1064;0.187728;0;0;0;0
115.9642;0.667356;1.1052;0.188602;0;0;0;0
116.4641;0.671494;1.1052;0.189261;0;0;0;0
116.9642;0.675925;1.0909;0.191251;0;0;0;0
117.464;0.680684;1.0969;0.192286;0;0;0;0
117.9641;0.683579;1.0871;0.194603;0;0;0;0
118.464;0.684668;1.0931;0.196395;0;0;0;0
118.964;0.688911;1.0931;0.197209;0;0;0;0
119.464;0.693925;1.0767;0.200941;0;0;0;0
119.964;0.698497;1.066;0.201687;0;0;0;0
120.464;0.700512;1.084;0.202684;0;0;0;0
120.964;0.702302;1.0761;0.20558;0;0;0;0
121.464;0.707229;1.0647;0.207331;0;0;0;0
121.964;0.71082;1.0707;0.211249;0;0;0;0
122.4639;0.713163;1.0559;0.212691;0;0;0;0
122.9639;0.716169;1.0483;0.216216;0;0;0;0
123.4639;0.720939;1.0729;0.21649;0;0;0;0
123.9639;0.724633;1.065;0.21792;0;0;0;0
124.4639;0.726516;1.0521;0.219898;0;0;0;0
124.9639;0.730348;1.0593;0.220321;0;0;0;0
125.4639;0.736697;1.0372;0.221594;0;0;0;0
125.9639;0.737466;1.0536;0.224737;0;0;0;0
126.4639;0.742476;1.059;0.22584;0;0;0;0
126.964;0.744776;1.0397;0.227994;0;0;0;0
127.4639;0.748361;1.0407;0.23068;0;0;0;0
127.9638;0.753429;1.0334;0.233494;0;0;0;0
128.4638;0.754653;1.0366;0.235932;0;0;0;0
128.9638;0.761261;1.0306;0.239176;0;0;0;0
129.4638;0.763681;1.0214;0.239805;0;0;0;0
129.9638;0.766135;1.022;0.240959;0;0;0;0
130.4638;0.77113;1.0312;0.243641;0;0;0;0
130.9638;0.772765;1.0037;0.245877;0;0;0;0
131.4638;0.773816;1.0227;0.247285;0;0;0;0
131.9638;0.780486;1.0176;0.249685;0;0;0;0
132.4637;0.783298;1.004;0.250029;0;0;0;0
132.9637;0.787264;1.016;0.250253;0;0;0;0
133.4637;0.790041;1.0214;0.252141;0;0;0;0
133.9637;0.792635;1.0059;0.255424;0;0;0;0
134.4637;0.794766;1.0053;0.256134;0;0;0;0
134.9637;0.800067;1.016;0.258066;0;0;0;0
135.4638;0.805494;1.0059;0.259643;0;0;0;0
135.9637;0.809211;1.0012;0.261708;0;0;0;0
136.4638;0.813118;0.9851;0.263341;0;0;0;0
136.9637;0.813959;0.9775;0.264384;0;0;0;0
137.4636;0.817237;0.9737;0.265532;0;0;0;0
137.9636;0.820995;0.9939;0.267125;0;0;0;0
138.4636;0.825536;0.9825;0.270771;0;0;0;0
138.9636;0.827323;0.9876;0.272238;0;0;0;0
139.4636;0.831388;0.9768;0.274989;0;0;0;0
139.9637;0.834816;0.9737;0.276455;0;0;0;0
140.4636;0.840111;0.9712;0.27959;0;0;0;0
140.9636;0.840815;0.9633;0.280361;0;0;0;0
141.4636;0.845984;0.9756;0.282863;0;0;0;0
141.9637;0.848449;0.9563;0.285764;0;0;0;0
142.4635;0.853334;0.9547;0.286019;0;0;0;0
142.9635;0.856765;0.9528;0.289211;0;0;0;0
143.4635;0.857181;0.9677;0.289684;0;0;0;0
143.9635;0.864752;0.9569;0.293192;0;0;0;0
144.4635;0.868251;0.944;0.294054;0;0;0;0
144.9635;0.869993;0.937;0.296411;0;0;0;0
145.4635;0.871217;0.937;0.299583;0;0;0;0
145.9635;0.875775;0.9427;0.302;0;0;0;0
146.4634;0.883244;0.9351;0.303116;0;0;0;0
146.9636;0.884814;0.9285;0.305497;0;0;0;0
147.4634;0.884377;0.9452;0.306697;0;0;0;0
147.9634;0.8911918;0.9402;0.308756;0;0;0;0
148.4634;0.894828;0.9263;0.311474;0;0;0;0
148.9634;0.897974;0.9288;0.313025;0;0;0;0
149.4634;0.902;0.9241;0.315714;0;0;0;0
149.9634;0.903885;0.9238;0.316854;0;0;0;0
150.4634;0.90908;0.9234;0.318711;0;0;0;0
150.9634;0.911504;0.9206;0.318969;0;0;0;0
151.4633;0.916043;0.914;0.321553;0;0;0;0
151.9633;0.918952;0.9076;0.32453;0;0;0;0
152.4633;0.921155;0.9083;0.326664;0;0;0;0
152.9633;0.924226;0.9209;0.329348;0;0;0;0
153.4633;0.928606;0.9051;0.329225;0;0;0;0
153.9633;0.934451;0.9035;0.332682;0;0;0;0
154.4633;0.935095;0.8953;0.331513;0;0;0;0
154.9633;0.938615;0.8805;0.333245;0;0;0;0
155.4633;0.942532;0.8988;0.334812;0;0;0;0
155.9633;0.945494;0.8975;0.340663;0;0;0;0
156.4632;0.950622;0.8918;0.343172;0;0;0;0
156.9632;0.955807;0.8969;0.344808;0;0;0;0
157.4632;0.955983;0.8918;0.347123;0;0;0;0
157.9632;0.959204;0.8865;0.348162;0;0;0;0
158.4632;0.964034;0.8599;0.351797;0;0;0;0
158.9632;0.96761;0.8884;0.351808;0;0;0;0
159.4632;0.971317;0.889;0.35351;0;0;0;0
159.9632;0.973867;0.859;0.35611;0;0;0;0
160.4633;0.978878;0.8754;0.357222;0;0;0;0
160.9632;0.980501;0.8754;0.359774;0;0;0;0
161.4631;0.98411;0.8615;0.362905;0;0;0;0
161.9631;0.987325;0.8495;0.365388;0;0;0;0
162.4631;0.99196;0.858;0.366407;0;0;0;0
162.9631;0.993794;0.8697;0.370046;0;0;0;0
163.4631;0.999609;0.8564;0.370584;0;0;0;0
163.9631;1.00242;0.8422;0.373574;0;0;0;0
164.4632;1.00588;0.8561;0.373415;0;0;0;0
164.9631;1.00693;0.8574;0.378821;0;0;0;0
165.463;1.01073;0.8466;0.379856;0;0;0;0
165.963;1.01101;0.847;0.381495;0;0;0;0
166.463;1.01732;0.8163;0.384829;0;0;0;0
166.9632;1.0233;0.8327;0.385806;0;0;0;0
167.463;1.02947;0.8324;0.3884;0;0;0;0
167.963;1.02876;0.8343;0.39094;0;0;0;0
168.463;1.0337;0.8198;0.393517;0;0;0;0
168.963;1.03793;0.815;0.395041;0;0;0;0
169.463;1.03946;0.8359;0.398036;0;0;0;0
169.963;1.04255;0.8239;0.398158;0;0;0;0
170.463;1.04495;0.8255;0.402319;0;0;0;0
170.9629;1.04866;0.7942;0.404385;0;0;0;0
171.4629;1.05435;0.7986;0.408461;0;0;0;0
171.9631;1.06051;0.8198;0.41019;0;0;0;0
172.4629;1.05981;0.8084;0.412261;0;0;0;0
172.963;1.06222;0.8062;0.414945;0;0;0;0
173.4629;1.06541;0.8011;0.416244;0;0;0;0
173.9629;1.0688;0.7967;0.419506;0;0;0;0
174.4629;1.07356;0.7778;0.419383;0;0;0;0
174.9629;1.07769;0.779;0.425004;0;0;0;0
175.4628;1.08135;0.7806;0.426447;0;0;0;0
175.9628;1.08552;0.7673;0.428917;0;0;0;0
176.4628;1.08943;0.7778;0.432014;0;0;0;0
176.9628;1.08795;0.7746;0.434322;0;0;0;0
177.4628;1.09542;0.767;0.435447;0;0;0;0
177.9628;1.09702;0.7676;0.438158;0;0;0;0
178.4628;1.10313;0.773;0.441452;0;0;0;0
178.9628;1.1069;0.7582;0.442529;0;0;0;0
179.4628;1.11024;0.7531;0.442649;0;0;0;0
179.9628;1.11359;0.7578;0.446197;0;0;0;0
180.4627;1.11561;0.7383;0.449137;0;0;0;0
180.9627;1.11916;0.7401;0.451681;0;0;0;0
181.4627;1.12316;0.7231;0.452685;0;0;0;0
181.9627;1.12629;0.7424;0.455339;0;0;0;0
182.4627;1.13132;0.7329;0.458323;0;0;0;0
182.9627;1.13276;0.7171;0.462434;0;0;0;0
183.4627;1.13934;0.7123;0.465377;0;0;0;0
183.9627;1.14136;0.7051;0.467886;0;0;0;0
184.4627;1.14761;0.6722;0.468124;0;0;0;0
184.9626;1.15007;0.6694;0.47376;0;0;0;0
185.4626;1.15257;0.6608;0.47642;0;0;0;0
185.9626;1.15489;0.6425;0.479087;0;0;0;0
186.4628;1.15945;0.6365;0.481152;0;0;0;0
186.9626;1.16633;0.6226;0.483529;0;0;0;0
187.4626;1.16945;0.6036;0.487618;0;0;0;0
187.9627;1.17119;0.5881;0.489886;0;0;0;0
188.4626;1.17638;0.597;0.490595;0;0;0;0
188.9627;1.17856;0.597;0.49409;0;0;0;0
189.4625;1.18296;0.5689;0.497833;0;0;0;0
189.9627;1.18641;0.5496;0.499426;0;0;0;0
190.4625;1.18814;0.5439;0.5022309;0;0;0;0
190.9625;1.19424;0.5569;0.504718;0;0;0;0
191.4625;1.19557;0.5436;0.50688;0;0;0;0
191.9625;1.20238;0.5227;0.508928;0;0;0;0
192.4626;1.20524;0.5079;0.512939;0;0;0;0
192.9625;1.20702;0.5202;0.514194;0;0;0;0
193.4625;1.21139;0.5167;0.516752;0;0;0;0
193.9626;1.21601;0.4968;0.518473;0;0;0;0
194.4624;1.21689;0.4968;0.52251;0;0;0;0
194.9626;1.22422;0.4959;0.525995;0;0;0;0
195.4626;1.226;0.4681;0.526594;0;0;0;0
195.9624;1.22971;0.481;0.529342;0;0;0;0
196.4624;1.23353;0.4832;0.52976;0;0;0;0
196.9625;1.23786;0.4734;0.534123;0;0;0;0
197.4624;1.24196;0.4583;0.536974;0;0;0;0
197.9625;1.24457;0.4696;0.538586;0;0;0;0
198.4624;1.24825;0.4595;0.54068;0;0;0;0
198.9624;1.2509;0.4554;0.542117;0;0;0;0
199.4624;1.25603;0.4598;0.543736;0;0;0;0
199.9623;1.25931;0.4323;0.546353;0;0;0;0
200.4625;1.26231;0.4232;0.549867;0;0;0;0
200.9623;1.26454;0.4377;0.550491;0;0;0;0
201.4623;1.26904;0.4172;0.553394;0;0;0;0
201.9623;1.27387;0.4175;0.554488;0;0;0;0
202.4623;1.27802;0.414;0.557704;0;0;0;0
202.9624;1.27923;0.4105;0.559444;0;0;0;0
203.4623;1.28139;0.4064;0.561948;0;0;0;0
203.9623;1.28617;0.3995;0.563259;0;0;0;0
204.4622;1.29201;0.3969;0.565168;0;0;0;0
204.9622;1.29354;0.4039;0.56758;0;0;0;0
205.4622;1.2971;0.3865;0.571491;0;0;0;0
205.9622;1.30176;0.3761;0.572333;0;0;0;0
206.4622;1.30439;0.3616;0.572906;0;0;0;0
206.9622;1.30825;0.3669;0.574548;0;0;0;0
207.4622;1.31094;0.3736;0.578059;0;0;0;0
207.9622;1.31579;0.3578;0.579599;0;0;0;0
208.4623;1.31772;0.3625;0.583644;0;0;0;0
208.9622;1.32114;0.3704;0.58259;0;0;0;0
209.4621;1.3271;0.3682;0.584761;0;0;0;0
209.9623;1.33019;0.3619;0.588018;0;0;0;0
210.4621;1.33074;0.3537;0.590231;0;0;0;0
210.9621;1.33575;0.3423;0.591681;0;0;0;0
211.4621;1.33855;0.3445;0.593757;0;0;0;0
211.9621;1.34337;0.3334;0.595143;0;0;0;0
212.4621;1.34558;0.3476;0.598209;0;0;0;0
212.9621;1.35111;0.3325;0.600643;0;0;0;0
213.4621;1.35422;0.3382;0.603603;0;0;0;0
213.9622;1.35659;0.3363;0.604906;0;0;0;0
214.462;1.35942;0.3322;0.605461;0;0;0;0
214.962;1.36312;0.3164;0.607755;0;0;0;0
215.462;1.36858;0.3208;0.610158;0;0;0;0
215.962;1.37041;0.3151;0.611406;0;0;0;0
216.462;1.37355;0.3198;0.6147256;0;0;0;0
216.962;1.37687;0.3123;0.616046;0;0;0;0
217.4621;1.38118;0.3164;0.618409;0;0;0;0
217.962;1.38419;0.3094;0.61835;0;0;0;0
218.4619;1.38573;0.3015;0.619774;0;0;0;0
218.9619;1.39075;0.2971;0.622068;0;0;0;0
219.4619;1.39538;0.2876;0.625471;0;0;0;0
219.9619;1.39952;0.2848;0.627936;0;0;0;0
220.4619;1.40276;0.2974;0.630072;0;0;0;0
220.962;1.40568;0.2885;0.631825;0;0;0;0
221.4619;1.40886;0.2885;0.634852;0;0;0;0
221.9619;1.41034;0.2885;0.63499;0;0;0;0
222.4619;1.41402;0.2772;0.635723;0;0;0;0
222.9619;1.42094;0.2873;0.636565;0;0;0;0
223.4618;1.42319;0.2854;0.640029;0;0;0;0
223.9618;1.42746;0.2607;0.645156;0;0;0;0
224.462;1.42965;0.2661;0.646248;0;0;0;0
224.9618;1.4342;0.2832;0.64733;0;0;0;0
225.4618;1.43674;0.2658;0.648314;0;0;0;0
225.9618;1.44034;0.2709;0.650329;0;0;0;0
226.4618;1.44562;0.2661;0.653359;0;0;0;0
226.9618;1.45132;0.2576;0.655912;0;0;0;0
227.4618;1.45045;0.2645;0.654591;0;0;0;0
227.9618;1.45243;0.2598;0.655728;0;0;0;0
228.4617;1.45658;0.256;0.658789;0;0;0;0
228.9617;1.46213;0.2462;0.662308;0;0;0;0
229.4617;1.46331;0.2494;0.661725;0;0;0;0
229.9617;1.47069;0.2497;0.664086;0;0;0;0
230.4617;1.47175;0.2481;0.6661;0;0;0;0
230.9617;1.47358;0.2345;0.667706;0;0;0;0
231.4617;1.47804;0.2522;0.66943;0;0;0;0
231.9617;1.48104;0.2494;0.670751;0;0;0;0
232.4617;1.4832;0.2415;0.672256;0;0;0;0
232.9617;1.48767;0.2408;0.675786;0;0;0;0
233.4616;1.49207;0.2396;0.677236;0;0;0;0
233.9616;1.4942;0.219;0.678901;0;0;0;0
234.4616;1.49599;0.2317;0.680973;0;0;0;0
234.9616;1.50117;0.2225;0.683729;0;0;0;0
235.4618;1.507;0.2171;0.683741;0;0;0;0
235.9616;1.50742;0.2238;0.686138;0;0;0;0
236.4616;1.5137;0.2187;0.688389;0;0;0;0
236.9616;1.51483;0.2238;0.688384;0;0;0;0
237.4615;1.51654;0.2086;0.690558;0;0;0;0
237.9617;1.52133;0.1988;0.691932;0;0;0;0
238.4615;1.52251;0.214;0.694325;0;0;0;0
238.9615;1.52943;0.2058;0.696608;0;0;0;0
239.4615;1.53256;0.1979;0.699478;0;0;0;0
239.9615;1.53479;0.2099;0.700085;0;0;0;0
240.4615;1.53983;0.207;0.701028;0;0;0;0
240.9615;1.5451;0.2029;0.703218;0;0;0;0
241.4615;1.54635;0.1991;0.70497;0;0;0;0
241.9615;1.55006;0.1953;0.706633;0;0;0;0
242.4615;1.55446;0.1979;0.709245;0;0;0;0
242.9614;1.55734;0.1811;0.712012;0;0;0;0
243.4616;1.55968;0.1881;0.711637;0;0;0;0
243.9616;1.56326;0.1922;0.713892;0;0;0;0
244.4614;1.56698;0.1896;0.715424;0;0;0;0
244.9614;1.57009;0.1881;0.718025;0;0;0;0
245.4614;1.57273;0.1852;0.71977;0;0;0;0
245.9614;1.57508;0.1846;0.719635;0;0;0;0
246.4615;1.57783;0.1713;0.722219;0;0;0;0
246.9614;1.58319;0.1628;0.723715;0;0;0;0
247.4613;1.58667;0.1675;0.725114;0;0;0;0
247.9613;1.59137;0.1691;0.728264;0;0;0;0
248.4613;1.59251;0.1625;0.728516;0;0;0;0
248.9613;1.59558;0.1855;0.729916;0;0;0;0
249.4613;1.60217;0.165;0.731553;0;0;0;0
249.9613;1.60381;0.1501;0.734565;0;0;0;0
250.4613;1.60549;0.1672;0.735232;0;0;0;0
250.9613;1.6099;0.1533;0.7399931;0;0;0;0
251.4613;1.61798;0.1451;0.738764;0;0;0;0
251.9613;1.6198;0.1628;0.741729;0;0;0;0
252.4612;1.62255;0.159;0.744335;0;0;0;0
252.9614;1.62034;0.1587;0.743647;0;0;0;0
253.4612;1.62989;0.1546;0.74613;0;0;0;0
253.9612;1.63266;0.1552;0.747296;0;0;0;0
254.4614;1.63561;0.1504;0.750185;0;0;0;0
254.9612;1.6395;0.1533;0.751006;0;0;0;0
255.4612;1.64351;0.1362;0.754847;0;0;0;0
255.9612;1.6424;0.1523;0.753604;0;0;0;0
256.4612;1.646;0.1425;0.756721;0;0;0;0
256.9612;1.65249;0.1473;0.755788;0;0;0;0
257.4611;1.6551;0.134;0.758514;0;0;0;0
257.9611;1.6589;0.1337;0.759928;0;0;0;0
258.4611;1.66077;0.1375;0.763158;0;0;0;0
258.9611;1.66443;0.1422;0.764018;0;0;0;0
259.4612;1.66852;0.1293;0.767051;0;0;0;0
259.9612;1.6734;0.1375;0.766616;0;0;0;0
260.4611;1.67756;0.1378;0.769132;0;0;0;0
260.9611;1.67856;0.1236;0.771157;0;0;0;0
261.4611;1.684;0.1321;0.771735;0;0;0;0
261.9611;1.68552;0.129;0.774443;0;0;0;0
262.461;1.68897;0.1255;0.774609;0;0;0;0
262.961;1.69188;0.1119;0.777748;0;0;0;0
263.461;1.69511;0.1198;0.778499;0;0;0;0
263.961;1.70106;0.1097;0.780255;0;0;0;0
264.461;1.70412;0.1125;0.782416;0;0;0;0
264.961;1.70681;0.1144;0.783288;0;0;0;0
265.461;1.71094;0.1075;0.784534;0;0;0;0
265.961;1.71359;0.1125;0.787225;0;0;0;0
266.4611;1.71821;0.1163;0.789408;0;0;0;0
266.9609;1.71815;0.1151;0.790046;0;0;0;0
267.4609;1.72498;0.1125;0.791744;0;0;0;0
267.9609;1.72642;0.1059;0.793056;0;0;0;0
268.4609;1.73045;0.0974;0.795124;0;0;0;0
268.9609;1.73224;0.1046;0.795716;0;0;0;0
269.4609;1.73597;0.1049;0.798775;0;0;0;0
269.9609;1.74233;0.1046;0.80026;0;0;0;0
270.4609;1.74175;0.1046;0.800339;0;0;0;0
270.9609;1.74596;0.0917;0.801869;0;0;0;0
271.461;1.74944;0.0955;0.804335;0;0;0;0
271.9608;1.75382;0.0983;0.806283;0;0;0;0
272.4608;1.75635;0.0977;0.807313;0;0;0;0
272.9608;1.75921;0.0806;0.809157;0;0;0;0
273.4608;1.76475;0.0917;0.810128;0;0;0;0
273.9609;1.76859;0.0907;0.812206;0;0;0;0
274.4608;1.76933;0.0863;0.813684;0;0;0;0
274.9608;1.77376;0.0863;0.814557;0;0;0;0
275.4608;1.77695;0.0784;0.816508;0;0;0;0
275.9608;1.78199;0.0844;0.817435;0;0;0;0
276.4607;1.78289;0.0721;0.820243;0;0;0;0
276.9607;1.78852;0.0718;0.821215;0;0;0;0
277.4607;1.79207;0.0746;0.821577;0;0;0;0
277.9607;1.79536;0.0771;0.822739;0;0;0;0
278.4607;1.7987;0.0604;0.825379;0;0;0;0
278.9607;1.80223;0.073;0.826241;0;0;0;0
279.4607;1.80339;0.0831;0.827957;0;0;0;0
279.9608;1.80731;0.0765;0.829715;0;0;0;0
280.4608;1.814;0.068;0.830223;0;0;0;0
280.9607;1.8152;0.0765;0.831528;0;0;0;0
281.4606;1.81735;0.0721;0.833451;0;0;0;0
281.9606;1.82179;0.0692;0.83589;0;0;0;0
282.4606;1.82561;0.0702;0.836841;0;0;0;0
282.9606;1.82813;0.0654;0.837917;0;0;0;0
283.4606;1.8344;0.0654;0.839482;0;0;0;0
283.9606;1.83653;0.0579;0.840462;0;0;0;0
284.4607;1.83907;0.0645;0.842274;0;0;0;0
284.9607;1.84218;0.061;0.844222;0;0;0;0
285.4607;1.84698;0.0556;0.845547;0;0;0;0
285.9605;1.84936;0.0563;0.8473;0;0;0;0
286.4605;1.85717;0.0455;0.848454;0;0;0;0
286.9605;1.85733;0.0585;0.851027;0;0;0;0
287.4605;1.85899;0.0582;0.851235;0;0;0;0
287.9607;1.8639;0.055;0.853018;0;0;0;0
288.4605;1.8689;0.0335;0.854464;0;0;0;0
288.9605;1.8714;0.0537;0.856347;0;0;0;0
289.4605;1.87332;0.0484;0.858574;0;0;0;0
289.9605;1.87626;0.0436;0.8601;0;0;0;0
290.4604;1.87856;0.0449;0.85993;0;0;0;0
290.9606;1.88412;0.043;0.862335;0;0;0;0
291.4604;1.88643;0.0402;0.863124;0;0;0;0
291.9604;1.88848;0.037;0.864181;0;0;0;0
292.4604;1.8923;0.0345;0.866132;0;0;0;0
292.9604;1.89909;0.0281;0.868154;0;0;0;0
293.4604;1.90094;0.0383;0.867928;0;0;0;0
293.9604;1.90279;0.0376;0.8717;0;0;0;0
294.4604;1.90642;0.0364;0.873555;0;0;0;0
294.9605;1.91025;0.0332;0.872924;0;0;0;0
295.4605;1.91466;0.0247;0.875554;0;0;0;0
295.9603;1.91786;0.0313;0.877689;0;0;0;0
296.4603;1.91995;0.0323;0.877809;0;0;0;0
296.9603;1.92251;0.0225;0.880596;0;0;0;0
297.4603;1.92653;0.024;0.881211;0;0;0;0
297.9603;1.93293;0.0269;0.88272;0;0;0;0
298.4603;1.93218;0.0231;0.883926;0;0;0;0
298.9603;1.93851;0.0212;0.88441;0;0;0;0
299.4603;1.94072;0.0221;0.887248;0;0;0;0
299.9603;1.94332;0.0146;0.888135;0;0;0;0
300.4603;1.94715;0.019;0.888435;0;0;0;0
300.9602;1.9502;0.0168;0.889875;0;0;0;0
301.4604;1.95561;0.0158;0.892338;0;0;0;0
301.9602;1.95715;0.0146;0.892707;0;0;0;0
302.4603;1.95989;0.0161;0.895293;0;0;0;0
302.9602;1.96364;0.0111;0.896634;0;0;0;0
303.4602;1.96834;0.0086;0.897822;0;0;0;0
303.9603;1.97072;-0.0016;0.899072;0;0;0;0
304.4602;1.97481;0.0104;0.900176;0;0;0;0
304.9603;1.97612;0.0067;0.902873;0;0;0;0
305.4601;1.98174;0.0079;0.903828;0;0;0;0
305.9601;1.98555;0.0016;0.904658;0;0;0;0
306.4601;1.98865;0.0038;0.905722;0;0;0;0
306.9601;1.99126;-0.0009;0.906991;0;0;0;0
307.4601;1.99253;0.0035;0.910353;0;0;0;0
307.9602;1.99664;0.0003;0.909973;0;0;0;0
308.4601;2.00418;-0.0085;0.911601;0;0;0;0
308.9601;2.0083;-0.0091;0.912516;0;0;0;0
309.4602;2.00799;-0.0063;0.914774;0;0;0;0
309.96;2.01259;-0.0072;0.915476;0;0;0;0
310.46;2.01583;-0.0114;0.919065;0;0;0;0
310.96;2.01984;-0.0129;0.920281;0;0;0;0
311.46;2.02165;-0.0139;0.920807;0;0;0;0
311.96;2.02373;-0.0129;0.922027;0;0;0;0
312.46;2.02646;-0.0129;0.9231;0;0;0;0
312.9601;2.03137;-0.0215;0.924043;0;0;0;0
313.46;2.0345;-0.0155;0.926289;0;0;0;0
313.96;2.03766;-0.0161;0.92667;0;0;0;0
314.46;2.042;-0.0155;0.928585;0;0;0;0
314.9601;2.04709;-0.017;0.930152;0;0;0;0
315.4599;2.04652;-0.0148;0.931243;0;0;0;0
315.9601;2.05104;-0.0155;0.932555;0;0;0;0
316.4599;2.0541;-0.0183;0.934524;0;0;0;0
316.9599;2.05979;-0.0218;0.934769;0;0;0;0
317.4599;2.06289;-0.0174;0.937312;0;0;0;0
317.9599;2.06668;-0.0249;0.938021;0;0;0;0
318.46;2.07173;-0.0221;0.938871;0;0;0;0
318.9599;2.07348;-0.0237;0.940246;0;0;0;0
319.4598;2.07739;-0.0189;0.941548;0;0;0;0
319.9598;2.08149;-0.0246;0.943745;0;0;0;0
320.4598;2.08286;-0.0212;0.946181;0;0;0;0
320.9598;2.08596;-0.0208;0.945503;0;0;0;0
321.4598;2.09069;-0.0237;0.948284;0;0;0;0
321.9598;2.09497;-0.023;0.949603;0;0;0;0
322.4598;2.09604;-0.0227;0.950141;0;0;0;0
322.9598;2.1007;-0.0205;0.952363;0;0;0;0
323.4598;2.10313;-0.0196;0.95268;0;0;0;0
323.9598;2.10525;-0.0183;0.9550498;0;0;0;0
324.4599;2.11154;-0.0186;0.954828;0;0;0;0
324.9597;2.11628;-0.0183;0.957102;0;0;0;0
325.4597;2.11848;-0.0189;0.958574;0;0;0;0
325.9598;2.12114;-0.0215;0.960959;0;0;0;0
326.4597;2.12454;-0.0202;0.962095;0;0;0;0
326.9597;2.12964;-0.0196;0.962327;0;0;0;0
327.4598;2.13078;-0.0196;0.963285;0;0;0;0
327.9597;2.13605;-0.0199;0.964087;0;0;0;0
328.4597;2.1364;-0.0202;0.965143;0;0;0;0
328.9597;2.1405;-0.0196;0.967021;0;0;0;0
329.4596;2.14637;-0.0218;0.967893;0;0;0;0
329.9596;2.14725;-0.0218;0.96945;0;0;0;0
330.4596;2.15202;-0.0215;0.970476;0;0;0;0
330.9596;2.15453;-0.0221;0.972319;0;0;0;0
331.4596;2.1549;-0.0221;0.972656;0;0;0;0
331.9598;2.15511;-0.0221;0.973408;0;0;0;0
332.4596;2.15622;-0.0221;0.973379;0;0;0;0
332.9597;2.15656;-0.0208;0.973192;0;0;0;0
333.4596;2.15381;-0.0202;0.972635;0;0;0;0
333.9595;2.15447;-0.0205;0.971915;0;0;0;0
334.4595;2.15356;-0.0224;0.972101;0;0;0;0
334.9595;2.15725;-0.0221;0.973931;0;0;0;0