File: LAB_DATA/AA7020-T6_results/DATA/SL_60_SH2_90_1.csv
Time[s];Displacement[mm];Force[kN];AxStrain_1;AxStrain_2;Thickness[mm];Width[mm];Inner width
0;0;0.0022;0;0;1.022;19.99;0
0.4761;0.000413371;0.0007;0;0;0;0;0
0.9761;4.54E-04;0.0029;0;0;0;0;0
1.4761;0.001287552;0.0051;0;0;0;0;0
1.9761;0.001131595;0.0041;0;0;0;0;0
2.4761;0.000921758;0.0029;0;0;0;0;0
2.9761;0.000972728;0.0029;0;0;0;0;0
3.4764;0.000357692;0.0054;0;0;0;0;0
3.9763;1.14E-03;0.0057;0;0;0;0;0
4.4763;0.002097536;0.0025;0;0;0;0;0
4.976;0.0020091;0.0003;0;0;0;0;0
5.476;2.25E-03;0.0057;0;0;0;0;0
5.976;0.001959999;0.0104;0;0;0;0;0
6.476;0.002392069;0.0101;0;0;0;0;0
6.976;0.004944251;0.0253;0;0;0;0;0
7.4763;0.008447139;0.0376;0;0;0;0;0
7.9763;0.009889956;0.0534;0;0;0;0;0
8.4763;0.0122168;0.0648;0;0;0;0;0
8.976;0.01571289;0.079;0;0;0;0;0
9.4762;0.0181056;0.097;0;0;0;0;0
9.976;0.0205857;0.1059;0;0;0;0;0
10.4762;0.0237322;0.1195;0;0;0;0;0
10.9762;0.0257064;0.1252;0;0;0;0;0
11.4762;0.0289461;0.1444;0;0;0;0;0
11.976;0.0306371;0.1587;0;0;0;0;0
12.4759;0.0336752;0.1729;0;0;0;0;0
12.9759;0.0368054;0.1881;0;0;0;0;0
13.4759;0.0394264;0.1997;0;0;0;0;0
13.9759;0.0418006;0.2171;0;0;0;0;0
14.4759;0.0459067;0.2231;0;0;0;0;0
14.9759;0.0475519;0.2399;0;0;0;0;0
15.4759;0.0513073;0.2516;0;0;0;0;0
15.9759;0.0526755;0.2661;0;0;0;0;0
16.4759;5.65E-02;0.2784;0;0;0;0;0
16.9759;0.0591188;0.2895;0;0;0;0;0
17.4759;0.06096753;0.3002;0;0;0;0;0
17.9761;0.0651314;0.3148;0;0;0;0;0
18.4758;0.0674447;0.3274;0;0;0;0;0
18.9758;0.0704837;0.3366;0;0;0;0;0
19.4761;7.27E-02;0.347;0;0;0;0;0
19.9761;0.0763171;0.3578;0;0;0;0;0
20.476;0.0786354;0.3736;0;0;0;0;0
20.9758;0.0807215;0.3774;0;0;0;0;0
21.476;0.0836321;0.389;0;0;0;0;0
21.976;0.0867361;0.3992;0;0;0;0;0
22.4758;0.090025;0.4061;0;0;0;0;0
22.9758;9.27E-02;0.4178;0;0;0;0;0
23.4758;0.0962524;0.4213;0;0;0;0;0
23.976;0.0991327;0.4336;0;0;0;0;0
24.4757;0.10163;0.4491;0;0;0;0;0
24.9757;1.05E-01;0.4554;0;0;0;0;0
25.4757;0.107381;0.4681;0;0;0;0;0
25.9757;0.110823;0.4725;0;0;0;0;0
26.4757;0.112269;0.481;0;0;0;0;0
26.9757;0.11638;0.4839;0;0;0;0;0
27.4757;1.19E-01;0.4965;0;0;0;0;0
27.9758;1.22E-01;0.5009;0;0;0;0;0
28.4757;0.125193;0.512;0;0;0;0;0
28.9757;0.128146;0.5158;0;0;0;0;0
29.4757;0.132051;0.5199;0;0;0;0;0
29.9759;1.34E-01;0.5281;0;0;0;0;0
30.4757;0.138026;0.5332;0;0;0;0;0
30.9756;0.1421;0.5369;0;0;0;0;0
31.4759;1.44E-01;0.5474;0;0;0;0;0
31.9756;0.147064;0.5534;0;0;0;0;0
32.4759;0.150251;0.5483;0;0;0;0;0
32.9756;0.152964;0.5543;0;0;0;0;0
33.4756;0.156867;0.5606;0;0;0;0;0
33.9758;1.59E-01;0.5689;0;0;0;0;0
34.4756;1.63E-01;0.5752;0;0;0;0;0
34.9756;1.65E-01;0.5799;0;0;0;0;0
35.4756;1.68E-01;0.5831;0;0;0;0;0
35.9756;1.72E-01;0.591;0;0;0;0;0
36.4756;0.17554;0.5938;0;0;0;0;0
36.9755;1.78E-01;0.5938;0;0;0;0;0
37.4758;0.181025;0.6001;0;0;0;0;0
37.9755;0.18468;0.6039;0;0;0;0;0
38.4755;0.187777;0.608;0;0;0;0;0
38.9755;1.91E-01;0.6058;0;0;0;0;0
39.4755;0.192898;0.6166;0;0;0;0;0
39.9757;0.197395;0.6147;0;0;0;0;0
40.4755;0.200454;0.6201;0;0;0;0;0
40.9758;0.204867;0.6169;0;0;0;0;0
41.4755;2.06E-01;0.6289;0;0;0;0;0
41.9755;0.209783;0.6359;0;0;0;0;0
42.4755;0.212652;0.6333;0;0;0;0;0
42.9755;0.216798;0.6409;0;0;0;0;0
43.4757;2.20E-01;0.6333;0;0;0;0;0
43.9754;2.23E-01;0.6498;0;0;0;0;0
44.4754;0.225849;0.652;0;0;0;0;0
44.9754;2.29E-01;0.6551;0;0;0;0;0
45.4757;2.31E-01;0.6479;0;0;0;0;0
45.9757;2.35E-01;0.6605;0;0;0;0;0
46.4756;0.237437;0.6621;0;0;0;0;0
46.9755;2.42E-01;0.664;0;0;0;0;0
47.4756;0.244181;0.6675;0;0;0;0;0
47.9754;0.247162;0.67;0;0;0;0;0
48.4754;0.251131;0.6757;0;0;0;0;0
48.9754;2.54E-01;0.6716;0;0;0;0;0
49.4754;0.257615;0.6754;0;0;0;0;0
49.9754;2.60E-01;0.6826;0;0;0;0;0
50.4753;2.64E-01;0.6785;0;0;0;0;0
50.9753;2.66E-01;0.6883;0;0;0;0;0
51.4756;0.270322;0.6858;0;0;0;0;0
51.9753;2.73E-01;0.6899;0;0;0;0;0
52.4753;0.276661;0.6946;0;0;0;0;0
52.9753;0.279578;0.6969;0;0;0;0;0
53.4753;0.283467;0.6921;0;0;0;0;0
53.9753;0.285931;0.6965;0;0;0;0;0
54.4756;0.289532;0.7048;0;0;0;0;0
54.9753;0.292364;0.7057;0;0;0;0;0
55.4753;0.295903;0.7082;0;0;0;0;0
55.9755;0.299584;0.7082;0;0;0;0;0
56.4752;0.302441;0.7142;0;0;0;0;0
56.9752;3.05E-01;0.7111;0;0;0;0;0
57.4752;0.308679;0.7161;0;0;0;0;0
57.9752;3.12E-01;0.7193;0;0;0;0;0
58.4752;0.315013;0.7199;0;0;0;0;0
58.9752;0.318999;0.7231;0;0;0;0;0
59.4755;0.322002;0.725;0;0;0;0;0
59.9754;0.32486;0.7304;0;0;0;0;0
60.4752;0.327457;0.7319;0;0;0;0;0
60.9752;0.331823;0.7373;0;0;0;0;0
61.4752;0.333982;0.7332;0;0;0;0;0
61.9752;3.38E-01;0.7398;0;0;0;0;0
62.4752;3.41E-01;0.7389;0;0;0;0;0
62.9751;0.344434;0.7424;0;0;0;0;0
63.4751;0.347932;0.7471;0;0;0;0;0
63.9754;0.350548;0.7414;0;0;0;0;0
64.4751;0.353768;0.7515;0;0;0;0;0
64.9751;3.56E-01;0.7487;0;0;0;0;0
65.4751;0.360502;0.7556;0;0;0;0;0
65.9751;0.363733;0.7499;0;0;0;0;0
66.4751;0.366936;0.7566;0;0;0;0;0
66.9753;3.70E-01;0.7556;0;0;0;0;0
67.4751;3.74E-01;0.7597;0;0;0;0;0
67.9753;0.376275;0.761;0;0;0;0;0
68.475;0.380242;0.762;0;0;0;0;0
68.9753;0.383645;0.7702;0;0;0;0;0
69.475;3.87E-01;0.7667;0;0;0;0;0
69.9753;0.3893;0.7686;0;0;0;0;0
70.475;0.392784;0.7711;0;0;0;0;0
70.975;0.396068;0.7667;0;0;0;0;0
71.475;0.398652;0.7746;0;0;0;0;0
71.975;0.402296;0.779;0;0;0;0;0
72.475;4.06E-01;0.7755;0;0;0;0;0
72.9752;4.10E-01;0.7762;0;0;0;0;0
73.475;4.12E-01;0.7828;0;0;0;0;0
73.975;0.415365;0.7746;0;0;0;0;0
74.475;4.18E-01;0.7876;0;0;0;0;0
74.975;4.22E-01;0.7809;0;0;0;0;0
75.4749;0.425035;0.7891;0;0;0;0;0
75.9749;0.42887;0.7876;0;0;0;0;0
76.4749;0.431656;0.7838;0;0;0;0;0
76.9749;0.435932;0.7958;0;0;0;0;0
77.4749;0.43818;0.7901;0;0;0;0;0
77.9749;0.442065;0.7961;0;0;0;0;0
78.4749;4.45E-01;0.7989;0;0;0;0;0
78.9749;0.449468;0.7983;0;0;0;0;0
79.4749;0.451677;0.8011;0;0;0;0;0
79.9749;0.454456;0.7996;0;0;0;0;0
80.4749;0.45785;0.8075;0;0;0;0;0
80.9749;0.461154;0.8106;0;0;0;0;0
81.4749;0.464377;0.8119;0;0;0;0;0
81.9748;0.467623;0.8109;0;0;0;0;0
82.4751;4.71E-01;0.8154;0;0;0;0;0
82.9748;4.74E-01;0.816;0;0;0;0;0
83.4748;4.78E-01;0.8084;0;0;0;0;0
83.9748;4.80E-01;0.8122;0;0;0;0;0
84.4748;0.484418;0.8179;0;0;0;0;0
84.9748;4.88E-01;0.8201;0;0;0;0;0
85.4748;0.491032;0.8201;0;0;0;0;0
85.9748;4.93E-01;0.8207;0;0;0;0;0
86.4748;4.97E-01;0.8147;0;0;0;0;0
86.975;0.500333;0.8223;0;0;0;0;0
87.475;0.503941;0.8223;0;0;0;0;0
87.9748;5.07E-01;0.8204;0;0;0;0;0
88.4748;0.510379;0.8277;0;0;0;0;0
88.9747;0.513788;0.8289;0;0;0;0;0
89.4747;0.517103;0.8346;0;0;0;0;0
89.9747;0.520091;0.834;0;0;0;0;0
90.4747;0.522786;0.8321;0;0;0;0;0
90.9747;0.52687;0.8346;0;0;0;0;0
91.475;0.52932;0.8359;0;0;0;0;0
91.9747;5.33E-01;0.8397;0;0;0;0;0
92.4747;0.536253;0.8403;0;0;0;0;0
92.9749;5.40E-01;0.8416;0;0;0;0;0
93.4747;5.43E-01;0.8406;0;0;0;0;0
93.9746;5.47E-01;0.8451;0;0;0;0;0
94.4747;0.549429;0.846;0;0;0;0;0
94.9746;0.552859;0.8485;0;0;0;0;0
95.4746;0.556249;0.8454;0;0;0;0;0
95.9749;0.559992;0.8422;0;0;0;0;0
96.4746;0.562997;0.8492;0;0;0;0;0
96.9746;5.66E-01;0.8504;0;0;0;0;0
97.4746;0.569772;0.8489;0;0;0;0;0
97.9748;0.573029;0.8555;0;0;0;0;0
98.4746;0.575669;0.8517;0;0;0;0;0
98.9746;0.579589;0.8552;0;0;0;0;0
99.4746;5.83E-01;0.8536;0;0;0;0;0
99.9746;5.86E-01;0.8555;0;0;0;0;0
100.4746;0.588579;0.8612;0;0;0;0;0
100.9745;5.93E-01;0.8571;0;0;0;0;0
101.4745;5.95E-01;0.8568;0;0;0;0;0
101.9748;0.59943;0.8637;0;0;0;0;0
102.4745;0.602572;0.8647;0;0;0;0;0
102.9745;6.05E-01;0.8672;0;0;0;0;0
103.4747;6.09E-01;0.8666;0;0;0;0;0
103.9745;0.611737;0.8685;0;0;0;0;0
104.4745;6.15E-01;0.8675;0;0;0;0;0
104.9747;6.18E-01;0.87;0;0;0;0;0
105.4745;0.621613;0.8726;0;0;0;0;0
105.9745;0.623663;0.8694;0;0;0;0;0
106.4745;6.29E-01;0.8767;0;0;0;0;0
106.9744;0.631815;0.8779;0;0;0;0;0
107.4744;0.634844;0.8757;0;0;0;0;0
107.9745;0.638283;0.8754;0;0;0;0;0
108.4746;0.641333;0.8748;0;0;0;0;0
108.9744;0.645334;0.8795;0;0;0;0;0
109.4744;0.647986;0.8811;0;0;0;0;0
109.9744;0.651915;0.8795;0;0;0;0;0
110.4744;0.65507;0.8827;0;0;0;0;0
110.9744;6.58E-01;0.883;0;0;0;0;0
111.4744;0.661375;0.8805;0;0;0;0;0
111.9744;6.65E-01;0.8861;0;0;0;0;0
112.4744;0.668017;0.8865;0;0;0;0;0
112.9746;6.71E-01;0.8858;0;0;0;0;0
113.4744;0.674591;0.8874;0;0;0;0;0
113.9746;0.678384;0.8852;0;0;0;0;0
114.4743;0.681099;0.8855;0;0;0;0;0
114.9746;0.684974;0.8893;0;0;0;0;0
115.4743;0.688198;0.8893;0;0;0;0;0
115.9743;0.691315;0.8925;0;0;0;0;0
116.4743;6.94E-01;0.8925;0;0;0;0;0
116.9743;0.69738;0.8918;0;0;0;0;0
117.4743;7.01E-01;0.8947;0;0;0;0;0
117.9743;0.70473;0.8969;0;0;0;0;0
118.4743;7.07E-01;0.8956;0;0;0;0;0
118.9743;0.711455;0.8997;0;0;0;0;0
119.4743;7.14E-01;0.895;0;0;0;0;0
119.9742;0.717429;0.901;0;0;0;0;0
120.4742;0.721021;0.9001;0;0;0;0;0
120.9742;0.723992;0.9026;0;0;0;0;0
121.4745;0.726354;0.901;0;0;0;0;0
121.9742;0.731455;0.9023;0;0;0;0;0
122.4742;7.34E-01;0.9048;0;0;0;0;0
122.9744;0.737017;0.9095;0;0;0;0;0
123.4742;0.741614;0.9076;0;0;0;0;0
123.9742;0.744119;0.9038;0;0;0;0;0
124.4742;0.747235;0.9099;0;0;0;0;0
124.9744;7.50E-01;0.9095;0;0;0;0;0
125.4742;0.75369;0.9121;0;0;0;0;0
125.9742;7.57E-01;0.9121;0;0;0;0;0
126.4741;0.760925;0.908;0;0;0;0;0
126.9744;7.64E-01;0.9146;0;0;0;0;0
127.4741;0.768018;0.9143;0;0;0;0;0
127.9741;0.770641;0.9162;0;0;0;0;0
128.4742;0.77396;0.9121;0;0;0;0;0
128.9741;0.776985;0.9133;0;0;0;0;0
129.4741;7.80E-01;0.9196;0;0;0;0;0
129.9741;0.784033;0.9206;0;0;0;0;0
130.4741;0.787333;0.9178;0;0;0;0;0
130.9741;0.789595;0.9155;0;0;0;0;0
131.4741;7.94E-01;0.9206;0;0;0;0;0
131.9741;7.98E-01;0.9241;0;0;0;0;0
132.4741;0.80064;0.9234;0;0;0;0;0
132.9743;0.80378;0.9269;0;0;0;0;0
133.4743;8.08E-01;0.9231;0;0;0;0;0
133.974;0.810648;0.9238;0;0;0;0;0
134.474;0.814018;0.925;0;0;0;0;0
134.9742;0.816819;0.9279;0;0;0;0;0
135.474;0.821521;0.9272;0;0;0;0;0
135.974;0.824015;0.9219;0;0;0;0;0
136.4742;0.827366;0.9279;0;0;0;0;0
136.974;0.830204;0.9247;0;0;0;0;0
137.4742;0.833245;0.9272;0;0;0;0;0
137.974;8.36E-01;0.9342;0;0;0;0;0
138.474;0.840582;0.9291;0;0;0;0;0
138.9739;0.843488;0.9336;0;0;0;0;0
139.4739;0.846395;0.9342;0;0;0;0;0
139.9739;0.850249;0.9326;0;0;0;0;0
140.4739;8.54E-01;0.9288;0;0;0;0;0
140.9742;8.57E-01;0.9383;0;0;0;0;0
141.4739;0.85995;0.9291;0;0;0;0;0
141.9741;0.863509;0.938;0;0;0;0;0
142.4739;8.67E-01;0.937;0;0;0;0;0
142.9739;0.869881;0.937;0;0;0;0;0
143.4739;0.873141;0.9354;0;0;0;0;0
143.9739;0.876511;0.9415;0;0;0;0;0
144.4739;0.879958;0.9367;0;0;0;0;0
144.9738;0.883091;0.9443;0;0;0;0;0
145.4741;0.886217;0.9411;0;0;0;0;0
145.9738;0.890667;0.9437;0;0;0;0;0
146.4738;0.892863;0.9392;0;0;0;0;0
146.9738;8.97E-01;0.9358;0;0;0;0;0
147.4738;0.900188;0.9456;0;0;0;0;0
147.9741;0.90235;0.9449;0;0;0;0;0
148.4738;9.06E-01;0.938;0;0;0;0;0
148.9738;0.909689;0.9471;0;0;0;0;0
149.4738;9.13E-01;0.95;0;0;0;0;0
149.9738;0.917034;0.9506;0;0;0;0;0
150.4738;0.920034;0.9418;0;0;0;0;0
150.9737;0.923322;0.9475;0;0;0;0;0
151.4737;0.92636;0.9465;0;0;0;0;0
151.9737;0.929076;0.943;0;0;0;0;0
152.4737;0.932579;0.9516;0;0;0;0;0
152.974;0.936434;0.9528;0;0;0;0;0
153.4737;0.94025;0.9513;0;0;0;0;0
153.9737;0.94259;0.9506;0;0;0;0;0
154.4737;0.946672;0.9544;0;0;0;0;0
154.9739;0.949388;0.956;0;0;0;0;0
155.474;0.953136;0.9595;0;0;0;0;0
155.9737;0.955886;0.9576;0;0;0;0;0
156.4737;0.960274;0.9573;0;0;0;0;0
156.9737;0.963885;0.9557;0;0;0;0;0
157.4739;0.967165;0.9607;0;0;0;0;0
157.9739;0.969668;0.9557;0;0;0;0;0
158.4736;0.973678;0.9588;0;0;0;0;0
158.9736;0.976367;0.962;0;0;0;0;0
159.4736;0.979979;0.9519;0;0;0;0;0
159.9737;0.983408;0.9604;0;0;0;0;0
160.4736;0.987046;0.9554;0;0;0;0;0
160.9736;9.90E-01;0.9601;0;0;0;0;0
161.4737;0.99297;0.9531;0;0;0;0;0
161.9736;0.99636;0.9588;0;0;0;0;0
162.4736;0.999903;0.9629;0;0;0;0;0
162.9738;1.00283;0.9601;0;0;0;0;0
163.4738;1.01E+00;0.9661;0;0;0;0;0
163.9736;1.00973;0.9671;0;0;0;0;0
164.4736;1.01349;0.968;0;0;0;0;0
164.9735;1.01631;0.9645;0;0;0;0;0
165.4735;1.02E+00;0.9576;0;0;0;0;0
165.9735;1.02319;0.9686;0;0;0;0;0
166.4735;1.02621;0.9648;0;0;0;0;0
166.9735;1.03189;0.9705;0;0;0;0;0
167.4735;1.03277;0.9658;0;0;0;0;0
167.9737;1.04E+00;0.9705;0;0;0;0;0
168.4736;1.04E+00;0.9727;0;0;0;0;0
168.9735;1.04381;0.9718;0;0;0;0;0
169.4737;1.05E+00;0.9674;0;0;0;0;0
169.9734;1.05048;0.9686;0;0;0;0;0
170.4735;1.05E+00;0.9633;0;0;0;0;0
170.9734;1.05676;0.9746;0;0;0;0;0
171.4737;1.06021;0.9671;0;0;0;0;0
171.9734;1.06429;0.9607;0;0;0;0;0
172.4734;1.06457;0.9772;0;0;0;0;0
172.9737;1.07078;0.9671;0;0;0;0;0
173.4734;1.07305;0.9727;0;0;0;0;0
173.9734;1.08E+00;0.975;0;0;0;0;0
174.4734;1.08E+00;0.9797;0;0;0;0;0
174.9737;1.08342;0.9794;0;0;0;0;0
175.4736;1.09E+00;0.9794;0;0;0;0;0
175.9734;1.09055;0.9753;0;0;0;0;0
176.4734;1.09386;0.9775;0;0;0;0;0
176.9734;1.10E+00;0.9784;0;0;0;0;0
177.4736;1.10044;0.9768;0;0;0;0;0
177.9733;1.10347;0.9765;0;0;0;0;0
178.4736;1.10689;0.9721;0;0;0;0;0
178.9733;1.11002;0.9759;0;0;0;0;0
179.4733;1.11377;0.9803;0;0;0;0;0
179.9733;1.11774;0.9731;0;0;0;0;0
180.4733;1.12E+00;0.9718;0;0;0;0;0
180.9733;1.12423;0.9753;0;0;0;0;0
181.4733;1.12681;0.9825;0;0;0;0;0
181.9733;1.12978;0.9781;0;0;0;0;0
182.4733;1.13421;0.9838;0;0;0;0;0
182.9736;1.13645;0.9775;0;0;0;0;0
183.4735;1.14034;0.9806;0;0;0;0;0
183.9732;1.14307;0.9825;0;0;0;0;0
184.4732;1.14755;0.9822;0;0;0;0;0
184.9732;1.15008;0.9819;0;0;0;0;0
185.4732;1.15E+00;0.987;0;0;0;0;0
185.9732;1.15769;0.9813;0;0;0;0;0
186.4733;1.16065;0.9863;0;0;0;0;0
186.9735;1.16344;0.9879;0;0;0;0;0
187.4732;1.16798;0.9791;0;0;0;0;0
187.9732;1.17052;0.9841;0;0;0;0;0
188.4736;1.17417;0.9854;0;0;0;0;0
188.9732;1.17678;0.9844;0;0;0;0;0
189.4732;1.18084;0.9889;0;0;0;0;0
189.9734;1.18E+00;0.9895;0;0;0;0;0
190.4731;1.1873;0.9885;0;0;0;0;0
190.9734;1.19035;0.986;0;0;0;0;0
191.4731;1.19352;0.9876;0;0;0;0;0
191.9731;1.19662;0.9844;0;0;0;0;0
192.4734;1.19966;0.9885;0;0;0;0;0
192.9731;1.20369;0.9892;0;0;0;0;0
193.4731;1.20682;0.9844;0;0;0;0;0
193.9731;1.21025;0.987;0;0;0;0;0
194.4731;1.21331;0.981;0;0;0;0;0
194.9731;1.21667;0.9873;0;0;0;0;0
195.4731;1.22087;0.9901;0;0;0;0;0
195.9733;1.22E+00;0.9901;0;0;0;0;0
196.473;1.22611;0.9898;0;0;0;0;0
196.973;1.23027;0.9908;0;0;0;0;0
197.4733;1.23306;0.9882;0;0;0;0;0
197.9733;1.23716;0.9923;0;0;0;0;0
198.473;1.23964;0.9949;0;0;0;0;0
198.9732;1.24E+00;0.9923;0;0;0;0;0
199.4733;1.24685;0.9952;0;0;0;0;0
199.9732;1.25E+00;0.9895;0;0;0;0;0
200.473;1.25363;0.9961;0;0;0;0;0
200.973;1.25698;0.993;0;0;0;0;0
201.473;1.26015;0.9911;0;0;0;0;0
201.9729;1.2637;0.9939;0;0;0;0;0
202.4729;1.26726;0.9926;0;0;0;0;0
202.9732;1.27107;0.9847;0;0;0;0;0
203.473;1.27335;0.9961;0;0;0;0;0
203.9729;1.27782;0.9917;0;0;0;0;0
204.4729;1.27956;0.9955;0;0;0;0;0
204.9729;1.28334;0.9901;0;0;0;0;0
205.4731;1.28658;1.0015;0;0;0;0;0
205.9729;1.29031;0.9911;0;0;0;0;0
206.4729;1.29251;0.9971;0;0;0;0;0
206.9729;1.29675;0.998;0;0;0;0;0
207.4731;1.30023;0.993;0;0;0;0;0
207.9729;1.30322;0.9926;0;0;0;0;0
208.473;1.31E+00;0.9936;0;0;0;0;0
208.9728;1.30971;0.998;0;0;0;0;0
209.4728;1.31E+00;0.9952;0;0;0;0;0
209.9728;1.31648;0.9999;0;0;0;0;0
210.4728;1.32066;1.0021;0;0;0;0;0
210.9728;1.32332;0.9901;0;0;0;0;0
211.4728;1.32695;0.993;0;0;0;0;0
211.973;1.32987;0.999;0;0;0;0;0
212.473;1.33374;0.9952;0;0;0;0;0
212.9728;1.33653;0.9964;0;0;0;0;0
213.4728;1.34E+00;0.9958;0;0;0;0;0
213.973;1.34315;0.9949;0;0;0;0;0
214.473;1.35E+00;0.9968;0;0;0;0;0
214.9727;1.34962;0.9996;0;0;0;0;0
215.473;1.35E+00;0.9983;0;0;0;0;0
215.9727;1.35704;0.9964;0;0;0;0;0
216.473;1.36091;1.0009;0;0;0;0;0
216.9727;1.3631;1.0018;0;0;0;0;0
217.4727;1.367;0.9987;0;0;0;0;0
217.9727;1.37068;1.0034;0;0;0;0;0
218.4727;1.37297;0.998;0;0;0;0;0
218.9727;1.37724;1.0031;0;0;0;0;0
219.4727;1.38;1.0043;0;0;0;0;0
219.9727;1.38E+00;1.0043;0;0;0;0;0
220.4729;1.38729;1.0047;0;0;0;0;0
220.9727;1.39027;1.0002;0;0;0;0;0
221.4727;1.39278;1.004;0;0;0;0;0
221.9729;1.39774;0.9993;0;0;0;0;0
222.4726;1.40031;1.005;0;0;0;0;0
222.9729;1.40353;1.0085;0;0;0;0;0
223.4726;1.40666;1.0018;0;0;0;0;0
223.9726;1.4096;1.0047;0;0;0;0;0
224.4726;1.41315;0.9945;0;0;0;0;0
224.9728;1.41718;1.005;0;0;0;0;0
225.4726;1.41976;1.0005;0;0;0;0;0
225.9728;1.42343;1.0059;0;0;0;0;0
226.4726;1.42683;0.998;0;0;0;0;0
226.9728;1.43028;1.0066;0;0;0;0;0
227.4728;1.43E+00;1.0085;0;0;0;0;0
227.9726;1.43697;1.0043;0;0;0;0;0
228.4725;1.44E+00;1.0081;0;0;0;0;0
228.9726;1.44354;0.9974;0;0;0;0;0
229.4725;1.44638;1.0075;0;0;0;0;0
229.9725;1.44909;1.0043;0;0;0;0;0
230.4725;1.45348;1.0015;0;0;0;0;0
230.9725;1.46E+00;1.0062;0;0;0;0;0
231.4725;1.46017;1.0097;0;0;0;0;0
231.9725;1.46406;1.0062;0;0;0;0;0
232.4725;1.46681;1.0037;0;0;0;0;0
232.9727;1.47053;0.9999;0;0;0;0;0
233.4725;1.47359;1.0088;0;0;0;0;0
233.9725;1.47671;1.0056;0;0;0;0;0
234.4725;1.47987;1.0062;0;0;0;0;0
234.9724;1.4834;1.005;0;0;0;0;0
235.4724;1.48721;1.0066;0;0;0;0;0
235.9724;1.49069;1.0091;0;0;0;0;0
236.4724;1.49409;1.01;0;0;0;0;0
236.9726;1.49624;1.0081;0;0;0;0;0
237.4724;1.50051;1.0097;0;0;0;0;0
237.9724;1.50435;1.0059;0;0;0;0;0
238.4724;1.50757;1.0047;0;0;0;0;0
238.9724;1.50983;1.0085;0;0;0;0;0
239.4724;1.51358;1.0113;0;0;0;0;0
239.9723;1.52E+00;1.005;0;0;0;0;0
240.4726;1.52066;1.0085;0;0;0;0;0
240.9723;1.52205;1.0085;0;0;0;0;0
241.4723;1.52755;1.0097;0;0;0;0;0
241.9723;1.53E+00;1.0062;0;0;0;0;0
242.4726;1.53402;1.0028;0;0;0;0;0
242.9723;1.53761;1.0062;0;0;0;0;0
243.4723;1.54107;1.005;0;0;0;0;0
243.9723;1.54428;1.0091;0;0;0;0;0
244.4723;1.5474;1.0107;0;0;0;0;0
244.9723;1.55026;1.0113;0;0;0;0;0
245.4725;1.55466;1.0097;0;0;0;0;0
245.9723;1.55673;1.0113;0;0;0;0;0