File: LAB_DATA/AA7020-T6_results/DATA/SL_SH_45_1.csv
Time[s];Displacement[mm];Force[kN];AxStrain_1;AxStrain_2;Thickness[mm];OuterWidth[mm];InnerWidth[mm]
0;0;0.04551;0;0;1.015;0;0
0.4761;-0.001720924;0.00162;0;0;0;0;0
0.9761;0.000424764;0.04911;0;0;0;0;0
1.4761;-0.00022997;0.01281;0;0;0;0;0
1.9761;-6.64E-04;0.03168;0;0;0;0;0
2.4761;4.01E-04;0.03585;0;0;0;0;0
2.976;-0.001406312;0.01329;0;0;0;0;0
3.476;0.000691701;0.04608;0;0;0;0;0
3.976;-0.002024497;0.00456;0;0;0;0;0
4.476;0.000401508;0.04323;0;0;0;0;0
4.9763;-0.001192664;0.01308;0;0;0;0;0
5.476;-1.00E-03;0.02931;0;0;0;0;0
5.9759;0.000129673;0.033;0;0;0;0;0
6.4759;-1.53E-03;0.01611;0;0;0;0;0
6.9759;0.000424064;0.04344;0;0;0;0;0
7.4759;-0.001716906;0.01215;0;0;0;0;0
7.9759;0.000200681;0.04704;0;0;0;0;0
8.4759;-0.000100422;0.02628;0;0;0;0;0
8.9759;0.002765187;0.06003;0;0;0;0;0
9.4758;0.007606978;0.07917;0;0;0;0;0
9.9758;0.008275238;0.06921;0;0;0;0;0
10.4758;0.0139677;0.12534;0;0;0;0;0
10.9758;0.0151339;0.09681;0;0;0;0;0
11.4758;0.0186473;0.14298;0;0;0;0;0
11.9758;0.0220309;0.14391;0;0;0;0;0
12.4757;0.0238095;0.14877;0;0;0;0;0
12.9757;0.0295165;0.1956;0;0;0;0;0
13.4757;0.0295839;0.16734;0;0;0;0;0
13.9757;0.0343941;0.22158;0;0;0;0;0
14.4757;0.0366697;0.20433;0;0;0;0;0
14.9757;0.03919297;0.22905;0;0;0;0;0
15.4757;0.0446415;0.25512;0;0;0;0;0
15.9756;0.0441808;0.23571;0;0;0;0;0
16.4756;0.0499841;0.29163;0;0;0;0;0
16.9756;0.0512706;0.26337;0;0;0;0;0
17.4756;0.0547609;0.30264;0;0;0;0;0
17.9756;0.0584028;0.30954;0;0;0;0;0
18.4756;0.0592487;0.3015;0;0;0;0;0
18.9756;0.0652314;0.35175;0;0;0;0;0
19.4755;0.0657208;0.32103;0;0;0;0;0
19.9755;0.0698041;0.36576;0;0;0;0;0
20.4755;0.0728495;0.36027;0;0;0;0;0
20.9755;0.0745035;0.3633;0;0;0;0;0
21.4755;0.0798105;0.40482;0;0;0;0;0
21.9755;0.0800737;0.37185;0;0;0;0;0
22.4755;0.0858223;0.42351;0;0;0;0;0
22.9754;0.0876277;0.41544;0;0;0;0;0
23.4754;0.0904142;0.41973;0;0;0;0;0
23.9754;0.0946778;0.44361;0;0;0;0;0
24.4754;0.0961336;0.42948;0;0;0;0;0
24.9754;0.101585;0.47499;0;0;0;0;0
25.4754;0.101937;0.43896;0;0;0;0;0
25.9754;0.107407;0.48825;0;0;0;0;0
26.4753;0.109773;0.46398;0;0;0;0;0
26.9753;0.111685;0.48657;0;0;0;0;0
27.4753;0.116395;0.49974;0;0;0;0;0
27.9753;0.117479;0.47859;0;0;0;0;0
28.4753;0.123302;0.52941;0;0;0;0;0
28.9753;0.123194;0.48939;0;0;0;0;0
29.4752;0.128563;0.53196;0;0;0;0;0
29.9752;0.13162;0.51945;0;0;0;0;0
30.4752;0.13343;0.52134;0;0;0;0;0
30.9752;0.138894;0.5553;0;0;0;0;0
31.4752;0.139383;0.51945;0;0;0;0;0
31.9752;0.144887;0.56277;0;0;0;0;0
32.4752;0.146736;0.53793;0;0;0;0;0
32.9752;0.149378;0.55386;0;0;0;0;0
33.4751;0.154561;0.57492;0;0;0;0;0
33.9751;0.154431;0.54447;0;0;0;0;0
34.4751;0.160367;0.58923;0;0;0;0;0
34.9751;0.162386;0.55701;0;0;0;0;0
35.4751;0.165476;0.57822;0;0;0;0;0
35.975;0.170076;0.58818;0;0;0;0;0
36.475;0.170718;0.56733;0;0;0;0;0
36.975;0.176915;0.61266;0;0;0;0;0
37.475;0.177417;0.57474;0;0;0;0;0
37.975;0.182488;0.60849;0;0;0;0;0
38.475;0.18647;0.59937;0;0;0;0;0
38.975;0.187043;0.58791;0;0;0;0;0
39.4749;0.192773;0.62802;0;0;0;0;0
39.9749;0.192997;0.58848;0;0;0;0;0
40.4749;0.198667;0.63141;0;0;0;0;0
40.9749;0.201065;0.60837;0;0;0;0;0
41.4749;0.203572;0.61368;0;0;0;0;0
41.9749;0.208773;0.6393;0;0;0;0;0
42.4749;0.20897;0.61227;0;0;0;0;0
42.9749;0.215228;0.65769;0;0;0;0;0
43.4748;0.21659;0.62013;0;0;0;0;0
43.9748;0.220607;0.65172;0;0;0;0;0
44.4748;0.224661;0.64299;0;0;0;0;0
44.9748;0.22598;0.63351;0;0;0;0;0
45.4748;0.231882;0.66963;0;0;0;0;0
45.9747;0.232334;0.63039;0;0;0;0;0
46.4747;0.237025;0.67257;0;0;0;0;0
46.9747;0.239688;0.65172;0;0;0;0;0
47.4747;0.241877;0.65817;0;0;0;0;0
47.9747;0.247432;0.68223;0;0;0;0;0
48.4747;0.24818;0.6426;0;0;0;0;0
48.9747;0.2536022;0.68763;0;0;0;0;0
49.4746;0.255678;0.65691;0;0;0;0;0
49.9746;0.258583;0.67143;0;0;0;0;0
50.4746;0.264078;0.69228;0;0;0;0;0
50.9746;0.264827;0.65769;0;0;0;0;0
51.4746;0.270693;0.70017;0;0;0;0;0
51.9746;0.272346;0.67113;0;0;0;0;0
52.4746;0.274927;0.68139;0;0;0;0;0
52.9746;0.280081;0.70632;0;0;0;0;0
53.4745;0.280478;0.6666;0;0;0;0;0
53.9745;0.286895;0.71211;0;0;0;0;0
54.4745;0.288077;0.68214;0;0;0;0;0
54.9745;0.291286;0.69618;0;0;0;0;0
55.4745;0.296478;0.71475;0;0;0;0;0
55.9745;0.296911;0.67542;0;0;0;0;0
56.4744;0.302875;0.72528;0;0;0;0;0
56.9744;0.304266;0.68754;0;0;0;0;0
57.4744;0.307793;0.70782;0;0;0;0;0
57.9744;0.313186;0.71988;0;0;0;0;0
58.4744;0.313011;0.69399;0;0;0;0;0
58.9744;0.319582;0.73581;0;0;0;0;0
59.4744;0.32023;0.6996;0;0;0;0;0
59.9743;0.324705;0.73941;0;0;0;0;0
60.4743;0.328281;0.72252;0;0;0;0;0
60.9743;0.329333;0.71655;0;0;0;0;0
61.4743;0.335077;0.74973;0;0;0;0;0
61.9743;0.336021;0.71211;0;0;0;0;0
62.4743;0.341353;0.75219;0;0;0;0;0
62.9742;0.343797;0.72396;0;0;0;0;0
63.4742;0.346468;0.73884;0;0;0;0;0
63.9742;0.351968;0.75324;0;0;0;0;0
64.4742;0.35248;0.71826;0;0;0;0;0
64.9742;0.35814;0.76482;0;0;0;0;0
65.4742;0.360314;0.72681;0;0;0;0;0
65.9741;0.363567;0.75192;0;0;0;0;0
66.4741;0.368002;0.75648;0;0;0;0;0
66.9741;0.368547;0.73401;0;0;0;0;0
67.4741;0.374828;0.77478;0;0;0;0;0
67.9741;0.375903;0.73485;0;0;0;0;0
68.4741;0.379839;0.76329;0;0;0;0;0
68.9741;0.383872;0.76443;0;0;0;0;0
69.4741;0.385249;0.74463;0;0;0;0;0
69.974;0.391377;0.78246;0;0;0;0;0
70.474;0.392059;0.74376;0;0;0;0;0
70.974;0.396477;0.77733;0;0;0;0;0
71.474;0.400513;0.76908;0;0;0;0;0
71.974;0.40265;0.74955;0;0;0;0;0
72.474;0.406821;0.79194;0;0;0;0;0
72.9739;0.408254;0.75495;0;0;0;0;0
73.4739;0.413176;0.78822;0;0;0;0;0
73.9739;0.416143;0.77364;0;0;0;0;0
74.4741;0.417849;0.76623;0;0;0;0;0
74.9739;0.423956;0.79677;0;0;0;0;0
75.4739;0.424366;0.75921;0;0;0;0;0
75.9739;0.430023;0.79989;0;0;0;0;0
76.4738;0.431701;0.77031;0;0;0;0;0
76.9738;0.435119;0.79419;0;0;0;0;0
77.4738;0.439812;0.79515;0;0;0;0;0
77.9738;0.440505;0.77961;0;0;0;0;0
78.4738;0.4464;0.81591;0;0;0;0;0
78.9738;0.448042;0.77592;0;0;0;0;0
79.4738;0.451868;0.81249;0;0;0;0;0
79.9737;0.455894;0.79704;0;0;0;0;0
80.4737;0.457641;0.78672;0;0;0;0;0
80.9737;0.463609;0.82227;0;0;0;0;0
81.4737;0.463852;0.78159;0;0;0;0;0
81.9737;0.468585;0.82017;0;0;0;0;0
82.4737;0.4723;0.80076;0;0;0;0;0
82.9737;0.473836;0.79941;0;0;0;0;0
83.4736;0.479464;0.831;0;0;0;0;0
83.9736;0.4804548;0.7905;0;0;0;0;0
84.4736;0.486105;0.82881;0;0;0;0;0
84.9736;0.487836;0.80313;0;0;0;0;0
85.4736;0.490594;0.80889;0;0;0;0;0
85.9736;0.496498;0.83061;0;0;0;0;0
86.4735;0.496788;0.79317;0;0;0;0;0
86.9735;0.502551;0.83904;0;0;0;0;0
87.4735;0.504411;0.80709;0;0;0;0;0
87.9735;0.507276;0.81507;0;0;0;0;0
88.4735;0.512371;0.83811;0;0;0;0;0
88.9735;0.513113;0.79932;0;0;0;0;0
89.4735;0.519292;0.84483;0;0;0;0;0
89.9734;0.520691;0.81174;0;0;0;0;0
90.4734;0.523763;0.82491;0;0;0;0;0
90.9734;0.528831;0.84549;0;0;0;0;0
91.4734;0.529543;0.80739;0;0;0;0;0
91.9734;0.534967;0.85119;0;0;0;0;0
92.4734;0.537207;0.82311;0;0;0;0;0
92.9733;0.540094;0.83118;0;0;0;0;0
93.4733;0.545404;0.85356;0;0;0;0;0
93.9734;0.546192;0.8145;0;0;0;0;0
94.4733;0.551403;0.86265;0;0;0;0;0
94.9733;0.554367;0.83241;0;0;0;0;0
95.4733;0.555795;0.83649;0;0;0;0;0
95.9733;0.561779;0.86589;0;0;0;0;0
96.4733;0.562253;0.82503;0;0;0;0;0
96.9732;0.567088;0.86379;0;0;0;0;0
97.4733;0.571242;0.84777;0;0;0;0;0
97.9732;0.571878;0.83166;0;0;0;0;0
98.4732;0.577933;0.87177;0;0;0;0;0
98.9732;0.578887;0.83307;0;0;0;0;0
99.4732;0.583153;0.8637;0;0;0;0;0
99.9731;0.587963;0.86247;0;0;0;0;0
100.4731;0.58858;0.831;0;0;0;0;0
100.9731;0.594428;0.87726;0;0;0;0;0
101.4731;0.596024;0.84351;0;0;0;0;0
101.9731;0.599088;0.85572;0;0;0;0;0
102.4731;0.604151;0.87924;0;0;0;0;0
102.9731;0.604824;0.83745;0;0;0;0;0
103.4731;0.611208;0.8802;0;0;0;0;0
103.973;0.613233;0.85707;0;0;0;0;0
104.473;0.615289;0.85014;0;0;0;0;0
104.973;0.62079;0.88806;0;0;0;0;0
105.473;0.621751;0.84264;0;0;0;0;0
105.973;0.626813;0.87819;0;0;0;0;0
106.4729;0.630375;0.87081;0;0;0;0;0
106.9729;0.631142;0.85146;0;0;0;0;0
107.4729;0.638131;0.89241;0;0;0;0;0
107.9729;0.6387;0.84843;0;0;0;0;0
108.4729;0.643682;0.87999;0;0;0;0;0
108.9729;0.646997;0.87402;0;0;0;0;0
109.4729;0.648028;0.85572;0;0;0;0;0
109.9728;0.654547;0.89592;0;0;0;0;0
110.4728;0.654969;0.8511;0;0;0;0;0
110.9728;0.659883;0.88968;0;0;0;0;0
111.4728;0.663819;0.87678;0;0;0;0;0
111.9728;0.664833;0.87288;0;0;0;0;0
112.4728;0.670775;0.90675;0;0;0;0;0
112.9728;0.671562;0.86256;0;0;0;0;0
113.4727;0.676239;0.90654;0;0;0;0;0
113.9727;0.679591;0.88095;0;0;0;0;0
114.4727;0.680864;0.87603;0;0;0;0;0
114.9727;0.687376;0.91149;0;0;0;0;0
115.4727;0.687666;0.86712;0;0;0;0;0
115.9727;0.693168;0.90807;0;0;0;0;0
116.4726;0.696239;0.88749;0;0;0;0;0
116.9726;0.697367;0.88248;0;0;0;0;0
117.4726;0.7037367;0.91641;0;0;0;0;0
117.9726;0.704316;0.87165;0;0;0;0;0
118.4726;0.709279;0.91347;0;0;0;0;0
118.9726;0.712797;0.89412;0;0;0;0;0
119.4726;0.714227;0.87945;0;0;0;0;0
119.9725;0.72018;0.92334;0;0;0;0;0
120.4725;0.721266;0.87726;0;0;0;0;0
120.9725;0.725657;0.91035;0;0;0;0;0
121.4725;0.72985;0.909;0;0;0;0;0
121.9725;0.730809;0.87888;0;0;0;0;0
122.4725;0.737257;0.92418;0;0;0;0;0
122.9724;0.738432;0.88656;0;0;0;0;0
123.4724;0.741621;0.89898;0;0;0;0;0
123.9724;0.746775;0.92181;0;0;0;0;0
124.4724;0.746855;0.87954;0;0;0;0;0
124.9724;0.752832;0.92484;0;0;0;0;0
125.4724;0.755052;0.89964;0;0;0;0;0
125.9724;0.757262;0.89688;0;0;0;0;0
126.4723;0.763093;0.93234;0;0;0;0;0
126.9723;0.763634;0.88824;0;0;0;0;0
127.4723;0.768835;0.92313;0;0;0;0;0
127.9723;0.772417;0.9147;0;0;0;0;0
128.4723;0.773165;0.89328;0;0;0;0;0
128.9723;0.780176;0.93576;0;0;0;0;0
129.4723;0.780597;0.89583;0;0;0;0;0
129.9722;0.784809;0.93102;0;0;0;0;0
130.4722;0.789577;0.92628;0;0;0;0;0
130.9722;0.789824;0.89916;0;0;0;0;0
131.4722;0.79622;0.94485;0;0;0;0;0
131.9722;0.797739;0.9039;0;0;0;0;0
132.4722;0.800692;0.9255;0;0;0;0;0
132.9722;0.806516;0.93783;0;0;0;0;0
133.4721;0.806441;0.89754;0;0;0;0;0
133.9721;0.81239;0.94665;0;0;0;0;0
134.4721;0.814624;0.90987;0;0;0;0;0
134.9721;0.816912;0.9183;0;0;0;0;0
135.4721;0.823193;0.94818;0;0;0;0;0
135.9721;0.823294;0.90009;0;0;0;0;0
136.472;0.829088;0.95121;0;0;0;0;0
136.972;0.831564;0.91887;0;0;0;0;0
137.472;0.833752;0.91935;0;0;0;0;0
137.972;0.839203;0.95244;0;0;0;0;0
138.472;0.839543;0.90495;0;0;0;0;0
138.972;0.845757;0.95034;0;0;0;0;0
139.472;0.847708;0.92067;0;0;0;0;0
139.9719;0.850218;0.92334;0;0;0;0;0
140.4719;0.855733;0.95565;0;0;0;0;0
140.9719;0.855862;0.90891;0;0;0;0;0
141.4719;0.862058;0.95415;0;0;0;0;0
141.9719;0.864385;0.92484;0;0;0;0;0
142.4719;0.867289;0.92874;0;0;0;0;0
142.9719;0.872641;0.9567;0;0;0;0;0
143.4718;0.872729;0.9132;0;0;0;0;0
143.9718;0.878855;0.95916;0;0;0;0;0
144.4718;0.880652;0.92514;0;0;0;0;0
144.9718;0.883719;0.93291;0;0;0;0;0
145.4718;0.888861;0.96012;0;0;0;0;0
145.9718;0.889493;0.9165;0;0;0;0;0
146.4718;0.895627;0.96942;0;0;0;0;0
146.9717;0.897126;0.92532;0;0;0;0;0
147.4717;0.900456;0.95328;0;0;0;0;0
147.9717;0.905432;0.95595;0;0;0;0;0
148.4717;0.905843;0.92409;0;0;0;0;0
148.9717;0.912574;0.97425;0;0;0;0;0
149.4717;0.914088;0.92637;0;0;0;0;0
149.9716;0.917062;0.951;0;0;0;0;0
150.4716;0.922145;0.96021;0;0;0;0;0
150.9716;0.922588;0.9294;0;0;0;0;0
151.4716;0.92908;0.97641;0;0;0;0;0
151.9716;0.9297;0.92949;0;0;0;0;0
152.4716;0.934158;0.96012;0;0;0;0;0
152.9715;0.938791;0.96381;0;0;0;0;0
153.4715;0.939318;0.93348;0;0;0;0;0
153.9715;0.945897;0.9786;0;0;0;0;0
154.4715;0.946771;0.93024;0;0;0;0;0
154.9715;0.950674;0.9642;0;0;0;0;0
155.4715;0.95502;0.96174;0;0;0;0;0
155.9715;0.955406;0.93735;0;0;0;0;0
156.4714;0.961801;0.98088;0;0;0;0;0
156.9715;0.963039;0.93498;0;0;0;0;0
157.4714;0.967172;0.96675;0;0;0;0;0
157.9714;0.971634;0.96411;0;0;0;0;0
158.4714;0.972359;0.93774;0;0;0;0;0
158.9714;0.978907;0.98382;0;0;0;0;0
159.4714;0.979705;0.93651;0;0;0;0;0
159.9713;0.984492;0.97008;0;0;0;0;0
160.4713;0.988573;0.96618;0;0;0;0;0
160.9713;0.988865;0.94257;0;0;0;0;0
161.4713;0.995541;0.98589;0;0;0;0;0
161.9713;0.996005;0.94164;0;0;0;0;0
162.4713;1.00055;0.98184;0;0;0;0;0
162.9713;1.00466;0.96771;0;0;0;0;0
163.4712;1.00554;0.94542;0;0;0;0;0
163.9712;1.01185;0.99132;0;0;0;0;0
164.4712;1.01234;0.94446;0;0;0;0;0
164.9712;1.01751;0.99159;0;0;0;0;0
165.4712;1.02137;0.96495;0;0;0;0;0
165.9712;1.02247;0.95832;0;0;0;0;0
166.4711;1.02846;0.99537;0;0;0;0;0
166.9711;1.02929;0.95112;0;0;0;0;0
167.4711;1.03427;0.99255;0;0;0;0;0
167.9711;1.03759;0.96504;0;0;0;0;0
168.4711;1.03909;0.96732;0;0;0;0;0
168.9711;1.04541;0.99369;0;0;0;0;0
169.4711;1.04542;0.95328;0;0;0;0;0
169.971;1.05119;0.99483;0;0;0;0;0
170.471;1.05352;0.96315;0;0;0;0;0
170.971;1.05641;0.97074;0;0;0;0;0
171.471;1.06178;0.99234;0;0;0;0;0
171.971;1.06245;0.95367;0;0;0;0;0
172.471;1.06826;1.00125;0;0;0;0;0
172.971;1.07014;0.95898;0;0;0;0;0
173.471;1.0734;0.97641;0;0;0;0;0
173.9709;1.07867;0.9915;0;0;0;0;0
174.4709;1.07935;0.95463;0;0;0;0;0
174.9709;1.08523;1.00335;0;0;0;0;0
175.4709;1.08621;0.95841;0;0;0;0;0
175.9709;1.09029;0.9858;0;0;0;0;0
176.4709;1.095;0.98904;0;0;0;0;0
176.9708;1.09581;0.9621;0;0;0;0;0
177.4708;1.10246;1.00647;0;0;0;0;0
177.9708;1.10279;0.95898;0;0;0;0;0
178.4708;1.10739;0.9912;0;0;0;0;0
178.9708;1.11162;0.98979;0;0;0;0;0
179.4708;1.11248;0.96267;0;0;0;0;0
179.9707;1.11866;1.00914;0;0;0;0;0
180.4707;1.11936;0.96096;0;0;0;0;0
180.9707;1.12364;1.00515;0;0;0;0;0
181.4707;1.12826;0.98922;0;0;0;0;0
181.9707;1.12883;0.96846;0;0;0;0;0
182.4707;1.13554;1.01454;0;0;0;0;0
182.9707;1.13612;0.96495;0;0;0;0;0
183.4707;1.14009;0.99462;0;0;0;0;0
183.9706;1.1454;0.99966;0;0;0;0;0
184.4706;1.14504;0.96381;0;0;0;0;0
184.9706;1.15278;1.01502;0;0;0;0;0
185.4706;1.15298;0.97377;0;0;0;0;0
185.9706;1.15683;1.00155;0;0;0;0;0
186.4705;1.16113;1.00194;0;0;0;0;0
186.9705;1.1618;0.97311;0;0;0;0;0
187.4705;1.16834;1.01955;0;0;0;0;0
187.9705;1.16898;0.97083;0;0;0;0;0
188.4705;1.1739;1.00431;0;0;0;0;0
188.9705;1.17838;1.00125;0;0;0;0;0
189.4705;1.17892;0.97785;0;0;0;0;0
189.9704;1.18523;1.01709;0;0;0;0;0
190.4704;1.18612;0.97416;0;0;0;0;0
190.9704;1.19024;1.0026;0;0;0;0;0
191.4704;1.19443;1.0026;0;0;0;0;0
191.9704;1.19543;0.97662;0;0;0;0;0
192.4704;1.20169;1.02099;0;0;0;0;0
192.9704;1.20268;0.97425;0;0;0;0;0
193.4704;1.20677;1.00572;0;0;0;0;0
193.9703;1.21115;1.00164;0;0;0;0;0
194.4703;1.212;0.97956;0;0;0;0;0
194.9703;1.21873;1.01994;0;0;0;0;0
195.4703;1.21927;0.97548;0;0;0;0;0
195.9703;1.2241;1.01112;0;0;0;0;0
196.4703;1.22674;0.99633;0;0;0;0;0
196.9703;1.22909;0.98988;0;0;0;0;0
197.4702;1.23488;1.02249;0;0;0;0;0
197.9702;1.23562;0.97698;0;0;0;0;0
198.4702;1.2411;1.02933;0;0;0;0;0
198.9702;1.24382;0.98817;0;0;0;0;0
199.4702;1.24654;1.008;0;0;0;0;0
199.9702;1.25135;1.01367;0;0;0;0;0
200.4702;1.25212;0.98658;0;0;0;0;0
200.9701;1.25815;1.02867;0;0;0;0;0
201.4701;1.25926;0.98838;0;0;0;0;0
201.9701;1.26384;1.02297;0;0;0;0;0
202.4701;1.26694;0.9987;0;0;0;0;0
202.9701;1.26896;1.00317;0;0;0;0;0
203.47;1.27539;1.02042;0;0;0;0;0
203.97;1.27535;0.98457;0;0;0;0;0
204.47;1.28162;1.02924;0;0;0;0;0
204.97;1.28282;0.9606;0;0;0;0;0
205.47;1.28744;1.00107;0;0;0;0;0
205.97;1.29093;0.99804;0;0;0;0;0
206.47;1.29262;0.98295;0;0;0;0;0
206.9699;1.29836;1.0242;0;0;0;0;0
207.4699;1.29865;0.98448;0;0;0;0;0
207.9699;1.30441;1.02723;0;0;0;0;0
208.4699;1.30756;0.98808;0;0;0;0;0