File: polyN_optimization/results_exp/AA6014-T4/CH_45_3.csv
Time[s],Displacement[mm],Force[kN],AxStrain_1,AxStrain_2,Thickness[mm],OuterWidth[mm],Diameter[mm]
0.6,0,-0.0061597,0,0,1.1142,19.934,5.2297
1.1,-3.8e-05,0.0028615,6.5998e-05,1e-06,0,0,0
1.6,0.00043,0.013871,-2.4e-05,-5.4001e-05,0,0,0
2.1,0.000729,0.038282,-2.2e-05,7.2997e-05,0,0,0
2.6,0.001134,0.066427,0.00018298,6.6998e-05,0,0,0
3.1,0.001376,0.092573,1e-06,1.7e-05,0,0,0
3.6,0.001578,0.11385,8.2997e-05,0.00020598,0,0,0
4.1,0.001851,0.13029,8.5996e-05,0.00016299,0,0,0
4.6,0.0021,0.14643,0.00015399,0.00010499,0,0,0
5.1,0.002261,0.16585,0.00015099,0.00033994,0,0,0
5.6,0.002747,0.185,0.00013099,0.00016999,0,0,0
6.1,0.003108,0.20386,0.00028096,0.00013399,0,0,0
6.6,0.00339,0.22314,0.00012399,0.00031695,0,0,0
7.1,0.003533,0.24171,0.00010299,0.00025997,0,0,0
7.6,0.003948,0.25929,0.00017798,0.00017199,0,0,0
8.1,0.003776,0.27328,0.00033194,0.00024397,0,0,0
8.6,0.003826,0.28229,0.00028496,0.00010099,0,0,0
9.1,0.003928,0.29029,0.00023097,0.00012699,0,0,0
9.6,0.004153,0.302,0.00023997,0.00014899,0,0,0
10.1,0.00423,0.31571,0.00043491,0.00022397,0,0,0
10.6,0.004517,0.33015,0.00018998,0.00023397,0,0,0
11.1,0.004974,0.34485,0.00035094,0.00021698,0,0,0
11.6,0.00513,0.359,0.00045989,0.00029096,0,0,0
12.1,0.00563,0.37315,0.00047988,0.00035494,0,0,0
12.6,0.006031,0.389,0.0004359,0.00029696,0,0,0
13.1,0.006349,0.40514,0.00048788,0.00034394,0,0,0
13.6,0.006461,0.42057,0.00049388,0.0004399,0,0,0
14.1,0.006738,0.43543,0.00041291,0.00026896,0,0,0
14.6,0.007042,0.45,0.00034194,0.00048288,0,0,0
15.1,0.007174,0.46515,0.0004399,0.00042991,0,0,0
15.6,0.00749,0.48085,0.0004469,0.00047289,0,0,0
16.1,0.007453,0.496,0.00041291,0.00049988,0,0,0
16.6,0.007896,0.51115,0.00053686,0.00035594,0,0,0
17.1,0.008131,0.528,0.00059782,0.00040292,0,0,0
17.6,0.008239,0.544,0.00052386,0.00053386,0,0,0
18.1,0.008628,0.56015,0.0004499,0.0004529,0,0,0
18.6,0.008692,0.577,0.00058383,0.00052986,0,0,0
19.1,0.008964,0.59371,0.00047988,0.00055085,0,0,0
19.6,0.009199,0.60943,0.00050387,0.00040592,0,0,0
20.1,0.009326,0.62585,0.00067477,0.00057683,0,0,0
20.6,0.009612,0.64171,0.00054385,0.00041291,0,0,0
21.1,0.009984,0.65743,0.00061781,0.00051687,0,0,0
21.6,0.010414,0.67471,0.00073173,0.00050387,0,0,0
22.1,0.010807,0.69214,0.00074872,0.00061081,0,0,0
22.6,0.011304,0.70886,0.00087562,0.00043291,0,0,0
23.1,0.011626,0.72514,0.00078169,0.00064779,0,0,0
23.6,0.012052,0.741,0.00085264,0.00051387,0,0,0
24.1,0.012573,0.75686,0.00074872,0.00064779,0,0,0
24.6,0.013053,0.77314,0.00086962,0.00066078,0,0,0
25.1,0.013479,0.789,0.00091958,0.00057384,0,0,0
25.6,0.013496,0.80486,0.00094256,0.00072174,0,0,0
26.1,0.013916,0.82229,0.00084864,0.00082266,0,0,0
26.6,0.014104,0.83957,0.00091958,0.0007787,0,0,0
27.1,0.014366,0.85643,0.00082266,0.00071474,0,0,0
27.6,0.01457,0.87257,0.00073173,0.00084564,0,0,0
28.1,0.014617,0.88829,0.00098651,0.00090559,0,0,0
28.6,0.014809,0.90386,0.0010604,0.00083565,0,0,0
29.1,0.015145,0.92014,0.0009965,0.00085563,0,0,0
29.6,0.015346,0.93571,0.00087562,0.0010065,0,0,0
30.1,0.0154,0.95115,0.0010365,0.0010405,0,0,0
30.6,0.015735,0.968,0.0008896,0.0008956,0,0,0
31.1,0.016021,0.98514,0.0010574,0.00087562,0,0,0
31.6,0.016323,1.0016,0.0010704,0.00093257,0,0,0
32.1,0.016739,1.0174,0.0010574,0.0009965,0,0,0
32.6,0.017223,1.0327,0.0010734,0.00088261,0,0,0
33.1,0.017498,1.0481,0.0012213,0.00090559,0,0,0
33.6,0.018052,1.0639,0.0012922,0.0010405,0,0,0
34.1,0.018462,1.079,0.0013051,0.00096953,0,0,0
34.6,0.018891,1.0941,0.0011843,0.0011613,0,0,0
35.1,0.019472,1.111,0.001396,0.0011304,0,0,0
35.6,0.019794,1.1279,0.001379,0.00099351,0,0,0
36.1,0.020167,1.143,0.0014929,0.0011004,0,0,0
36.6,0.020627,1.1579,0.0014629,0.0013691,0,0,0
37.1,0.020795,1.1734,0.0015398,0.0012612,0,0,0
37.6,0.021147,1.1896,0.0015598,0.001416,0,0,0
38.1,0.021382,1.2051,0.0015937,0.0014999,0,0,0
38.6,0.021688,1.2197,0.0014589,0.0014859,0,0,0
39.1,0.021879,1.2344,0.0016676,0.0014759,0,0,0
39.6,0.022158,1.2499,0.0016107,0.0014689,0,0,0
40.1,0.022306,1.2659,0.0016506,0.0015298,0,0,0
40.6,0.022574,1.282,0.0017774,0.0016167,0,0,0
41.1,0.022678,1.2981,0.0016876,0.0016906,0,0,0
41.6,0.022903,1.3127,0.0016436,0.0015698,0,0,0
42.1,0.023229,1.3271,0.0017175,0.0016806,0,0,0
42.6,0.023565,1.3421,0.0017075,0.0016936,0,0,0
43.1,0.02385,1.357,0.0017674,0.0016307,0,0,0
43.6,0.024343,1.3719,0.002006,0.0017744,0,0,0
44.1,0.024847,1.388,0.0019591,0.0017874,0,0,0
44.6,0.025226,1.4039,0.002009,0.0019651,0,0,0
45.1,0.025777,1.4183,0.0022235,0.0019022,0,0,0
45.6,0.026234,1.4326,0.0022704,0.0018383,0,0,0
46.1,0.026717,1.4474,0.0024141,0.0022165,0,0,0
46.6,0.02708,1.4626,0.0025248,0.0021198,0,0,0
47.1,0.027258,1.4771,0.0025617,0.0022165,0,0,0
47.6,0.027738,1.491,0.0025847,0.0023143,0,0,0
48.1,0.027872,1.5051,0.0027592,0.0024081,0,0,0
48.6,0.028473,1.5199,0.0027223,0.0026485,0,0,0
49.1,0.028671,1.5349,0.002468,0.0026285,0,0,0
49.6,0.029141,1.5503,0.0028699,0.0027422,0,0,0
50.1,0.029269,1.5659,0.0027462,0.0025448,0,0,0
50.6,0.029732,1.58,0.0030065,0.0026385,0,0,0
51.1,0.02994,1.5939,0.0027991,0.0028459,0,0,0
51.6,0.030413,1.6081,0.0029068,0.0028061,0,0,0
52.1,0.030669,1.622,0.0030234,0.002826,0,0,0
52.6,0.031092,1.6359,0.0030374,0.0029337,0,0,0
53.1,0.031592,1.651,0.003148,0.0029766,0,0,0
53.6,0.031857,1.6659,0.0032308,0.0028499,0,0,0
54.1,0.032381,1.6801,0.0033285,0.0030743,0,0,0
54.6,0.032774,1.6939,0.0033454,0.0032009,0,0,0
55.1,0.033445,1.7073,0.0035328,0.003154,0,0,0
55.6,0.033955,1.7206,0.0037998,0.0033314,0,0,0
56.1,0.034382,1.7341,0.0039004,0.0034451,0,0,0
56.6,0.034798,1.7473,0.0040737,0.0036563,0,0,0
57.1,0.035053,1.7606,0.0041514,0.0037031,0,0,0
57.6,0.03557,1.7741,0.0045387,0.0040378,0,0,0
58.1,0.036289,1.7876,0.0047726,0.0041374,0,0,0
58.6,0.036544,1.8013,0.0046761,0.0041573,0,0,0
59.1,0.037098,1.8151,0.0048632,0.0044819,0,0,0
59.6,0.037568,1.8277,0.0051199,0.004472,0,0,0
60.1,0.038286,1.8399,0.0050532,0.0046223,0,0,0
60.6,0.038938,1.8524,0.0053606,0.0049129,0,0,0
61.1,0.039696,1.8644,0.0053805,0.0049199,0,0,0
61.6,0.040653,1.8759,0.0053268,0.0051338,0,0,0
62.1,0.041237,1.888,0.0055874,0.0051239,0,0,0
62.6,0.042332,1.9001,0.0056908,0.0052373,0,0,0
63.1,0.043282,1.9116,0.0059413,0.0054004,0,0,0
63.6,0.044155,1.9224,0.0062415,0.0054372,0,0,0
64.1,0.045434,1.9327,0.0063349,0.005818,0,0,0
64.6,0.046569,1.9426,0.0066916,0.0061182,0,0,0
65.1,0.047707,1.9524,0.0069389,0.0062286,0,0,0
65.6,0.048573,1.962,0.0071851,0.0064382,0,0,0
66.1,0.04952,1.9716,0.0076715,0.0068117,0,0,0
66.6,0.050671,1.9811,0.007988,0.0071424,0,0,0
67.1,0.051695,1.9906,0.0086039,0.0075792,0,0,0
67.6,0.052941,2,0.0088606,0.0080723,0,0,0
68.1,0.053965,2.0091,0.0093165,0.0083719,0,0,0
68.6,0.055358,2.0173,0.0097355,0.0087675,0,0,0
69.1,0.056939,2.0253,0.010131,0.0093333,0,0,0
69.6,0.058162,2.0337,0.010436,0.0096255,0,0,0
70.1,0.05983,2.0417,0.010679,0.010151,0,0,0
70.6,0.061556,2.0496,0.010911,0.010281,0,0,0
71.1,0.06314,2.0577,0.011058,0.01065,0,0,0
71.6,0.064913,2.0657,0.01132,0.010829,0,0,0
72.1,0.066605,2.0736,0.011476,0.011121,0,0,0
72.6,0.068468,2.0811,0.011798,0.011373,0,0,0
73.1,0.069835,2.0883,0.012226,0.011596,0,0,0
73.6,0.071329,2.0953,0.012498,0.012054,0,0,0
74.1,0.072873,2.1024,0.012893,0.012203,0,0,0
74.6,0.074357,2.1093,0.01324,0.012677,0,0,0
75.1,0.075985,2.116,0.013707,0.012995,0,0,0
75.6,0.077566,2.1233,0.014038,0.013397,0,0,0
76.1,0.079299,2.1301,0.014552,0.01392,0,0,0
76.6,0.081091,2.1371,0.01514,0.014284,0,0,0
77.1,0.083122,2.1441,0.015586,0.014863,0,0,0
77.6,0.08506,2.151,0.016106,0.015326,0,0,0
78.1,0.086977,2.1573,0.016498,0.015855,0,0,0
78.6,0.089001,2.1637,0.017072,0.016383,0,0,0
79.1,0.091173,2.17,0.017415,0.016767,0,0,0
79.6,0.09263,2.1763,0.017446,0.017331,0,0,0
80.1,0.094456,2.183,0.017831,0.017584,0,0,0
80.6,0.096313,2.1897,0.018247,0.018165,0,0,0
81.1,0.098143,2.1963,0.018464,0.018452,0,0,0
81.6,0.099818,2.2024,0.01886,0.0186,0,0,0
82.1,0.10165,2.2083,0.019054,0.018874,0,0,0
82.6,0.10367,2.2143,0.019357,0.019252,0,0,0
83.1,0.1055,2.2204,0.01963,0.019443,0,0,0
83.6,0.10769,2.226,0.020071,0.019884,0,0,0
84.1,0.10985,2.2316,0.020449,0.020167,0,0,0
84.6,0.11183,2.238,0.020884,0.020506,0,0,0
85.1,0.11398,2.2439,0.021324,0.02078,0,0,0
85.6,0.11586,2.2494,0.021693,0.021486,0,0,0
86.1,0.11765,2.2551,0.02227,0.021735,0,0,0
86.6,0.1198,2.2613,0.022661,0.022242,0,0,0
87.1,0.12152,2.267,0.02298,0.0227,0,0,0
87.6,0.12348,2.2727,0.023587,0.023285,0,0,0
88.1,0.12525,2.278,0.024012,0.023514,0,0,0
88.6,0.12733,2.2833,0.024357,0.02398,0,0,0
89.1,0.12928,2.289,0.02476,0.024456,0,0,0
89.6,0.13118,2.2947,0.024989,0.024891,0,0,0
90.1,0.13356,2.3003,0.025303,0.025241,0,0,0
90.6,0.13557,2.3057,0.025725,0.025454,0,0,0
91.1,0.13776,2.311,0.026164,0.026086,0,0,0
91.6,0.13993,2.3163,0.026344,0.026308,0,0,0
92.1,0.14219,2.3214,0.026766,0.026703,0,0,0
92.6,0.14402,2.3263,0.027284,0.026975,0,0,0
93.1,0.14589,2.3313,0.0277,0.027249,0,0,0
93.6,0.14794,2.337,0.027696,0.027602,0,0,0
94.1,0.15012,2.3427,0.028297,0.027952,0,0,0
94.6,0.15193,2.348,0.028715,0.028578,0,0,0
95.1,0.15408,2.353,0.029239,0.028796,0,0,0
95.6,0.15602,2.358,0.029654,0.029423,0,0,0
96.1,0.15827,2.363,0.030009,0.029687,0,0,0
96.6,0.16041,2.3677,0.030396,0.029966,0,0,0
97.1,0.16276,2.372,0.030722,0.030417,0,0,0
97.6,0.16503,2.3766,0.03111,0.03084,0,0,0
98.1,0.16705,2.3817,0.031458,0.031283,0,0,0
98.6,0.16913,2.387,0.031813,0.031757,0,0,0
99.1,0.17115,2.392,0.032131,0.032271,0,0,0
99.6,0.17319,2.3967,0.03272,0.032397,0,0,0
100.1,0.17515,2.401,0.033099,0.032723,0,0,0
100.6,0.17704,2.4056,0.033391,0.032979,0,0,0
101.1,0.1793,2.4104,0.033671,0.033441,0,0,0
101.6,0.18122,2.415,0.034197,0.033833,0,0,0
102.1,0.18361,2.4193,0.034466,0.034271,0,0,0
102.6,0.18568,2.424,0.034735,0.034593,0,0,0
103.1,0.18789,2.4287,0.035202,0.034946,0,0,0
103.6,0.19021,2.433,0.035581,0.035329,0,0,0
104.1,0.19251,2.4373,0.036006,0.035558,0,0,0
104.6,0.19467,2.4417,0.03629,0.036038,0,0,0
105.1,0.19666,2.4463,0.036657,0.036488,0,0,0
105.6,0.19885,2.4507,0.037028,0.036721,0,0,0
106.1,0.20072,2.455,0.037358,0.037239,0,0,0
106.6,0.20273,2.459,0.037721,0.037575,0,0,0
107.1,0.20477,2.4633,0.038192,0.037876,0,0,0
107.6,0.20682,2.4677,0.03848,0.038328,0,0,0
108.1,0.20891,2.472,0.038874,0.038642,0,0,0
108.6,0.21106,2.476,0.039116,0.039258,0,0,0
109.1,0.21336,2.48,0.039568,0.03952,0,0,0
109.6,0.21554,2.4843,0.039929,0.039874,0,0,0
110.1,0.21797,2.4884,0.040213,0.040159,0,0,0
110.6,0.21986,2.4923,0.040694,0.040555,0,0,0
111.1,0.22201,2.496,0.040971,0.041129,0,0,0
111.6,0.22397,2.5,0.041242,0.041245,0,0,0
112.1,0.22593,2.504,0.041654,0.041693,0,0,0
112.6,0.22764,2.508,0.041982,0.042018,0,0,0
113.1,0.22961,2.5117,0.042176,0.042253,0,0,0
113.6,0.23134,2.515,0.042504,0.042725,0,0,0
114.1,0.23339,2.5186,0.042887,0.042964,0,0,0
114.6,0.23517,2.5224,0.043119,0.043301,0,0,0
115.1,0.23748,2.526,0.043636,0.043568,0,0,0
115.6,0.23972,2.5293,0.043684,0.043995,0,0,0
116.1,0.2415,2.533,0.04407,0.044274,0,0,0
116.6,0.24353,2.5364,0.044583,0.044612,0,0,0
117.1,0.24543,2.5396,0.044808,0.044815,0,0,0
117.6,0.24732,2.5427,0.045129,0.045128,0,0,0
118.1,0.24897,2.546,0.045354,0.045706,0,0,0
118.6,0.25079,2.549,0.045867,0.045995,0,0,0
119.1,0.25233,2.552,0.045996,0.046347,0,0,0
119.6,0.25376,2.555,0.046156,0.046476,0,0,0
120.1,0.25557,2.5583,0.046605,0.046796,0,0,0
120.6,0.25715,2.5617,0.046797,0.04702,0,0,0
121.1,0.2591,2.565,0.046893,0.047341,0,0,0
121.6,0.26102,2.568,0.047278,0.047692,0,0,0
122.1,0.26297,2.571,0.047534,0.047885,0,0,0
122.6,0.26488,2.574,0.047662,0.048077,0,0,0
123.1,0.2668,2.577,0.048014,0.048333,0,0,0
123.6,0.26838,2.5797,0.048365,0.048524,0,0,0
124.1,0.27045,2.5823,0.048558,0.048972,0,0,0
124.6,0.27209,2.585,0.048814,0.049068,0,0,0
125.1,0.27366,2.588,0.048942,0.049419,0,0,0
125.6,0.27529,2.5913,0.049484,0.049707,0,0,0
126.1,0.27688,2.5947,0.049709,0.050027,0,0,0
126.6,0.27857,2.5977,0.05006,0.050282,0,0,0
127.1,0.28027,2.6003,0.05022,0.050506,0,0,0
127.6,0.28232,2.603,0.050539,0.050857,0,0,0
128.1,0.2841,2.6057,0.050826,0.051207,0,0,0
128.6,0.28613,2.6083,0.051145,0.051526,0,0,0
129.1,0.28817,2.611,0.051623,0.051877,0,0,0
129.6,0.29029,2.614,0.051464,0.052292,0,0,0
130.1,0.292,2.617,0.051846,0.052387,0,0,0
130.6,0.29398,2.62,0.052197,0.052673,0,0,0
131.1,0.29574,2.6227,0.052452,0.052865,0,0,0
131.6,0.2974,2.6253,0.052548,0.053151,0,0,0
132.1,0.29909,2.628,0.052898,0.053215,0,0,0
132.6,0.30086,2.6307,0.053026,0.053501,0,0,0
133.1,0.30263,2.633,0.053503,0.053915,0,0,0
133.6,0.30436,2.6356,0.053789,0.054073,0,0,0
134.1,0.30631,2.6387,0.054044,0.054169,0,0,0
134.6,0.30838,2.6417,0.05433,0.054487,0,0,0
135.1,0.3105,2.6443,0.05452,0.054837,0,0,0
135.6,0.31256,2.6467,0.054903,0.055122,0,0,0
136.1,0.3144,2.6493,0.055125,0.055536,0,0,0
136.6,0.31649,2.652,0.05557,0.055726,0,0,0
137.1,0.31824,2.6547,0.055792,0.055948,0,0,0
137.6,0.32021,2.6573,0.05611,0.05652,0,0,0
138.1,0.32175,2.6597,0.0563,0.056773,0,0,0
138.6,0.32358,2.6626,0.056617,0.056964,0,0,0
139.1,0.32559,2.6654,0.056934,0.057091,0,0,0
139.6,0.32732,2.668,0.057125,0.057439,0,0,0
140.1,0.32921,2.6703,0.05741,0.057724,0,0,0
140.6,0.331,2.6727,0.057569,0.057883,0,0,0
141.1,0.33299,2.6753,0.058012,0.058105,0,0,0
141.6,0.33487,2.6777,0.057918,0.058359,0,0,0
142.1,0.33703,2.6803,0.058171,0.058612,0,0,0
142.6,0.33905,2.6827,0.058551,0.058865,0,0,0
143.1,0.34088,2.6853,0.05874,0.059182,0,0,0
143.6,0.34273,2.6877,0.059184,0.059403,0,0,0
144.1,0.34435,2.6903,0.059563,0.05972,0,0,0
144.6,0.34609,2.6927,0.059659,0.060035,0,0,0
145.1,0.348,2.6953,0.06007,0.060193,0,0,0
145.6,0.34973,2.698,0.060386,0.060383,0,0,0
146.1,0.35152,2.7007,0.060512,0.060699,0,0,0
146.6,0.3534,2.7033,0.06067,0.061047,0,0,0
147.1,0.35536,2.7057,0.061049,0.061552,0,0,0
147.6,0.35721,2.7083,0.061429,0.061647,0,0,0
148.1,0.3592,2.7107,0.06146,0.062025,0,0,0
148.6,0.36129,2.7133,0.06187,0.062183,0,0,0
149.1,0.36335,2.7157,0.06206,0.062562,0,0,0
149.6,0.36508,2.718,0.062344,0.062814,0,0,0
150.1,0.36713,2.72,0.062721,0.063003,0,0,0
150.6,0.36889,2.7223,0.06288,0.063224,0,0,0
151.1,0.37057,2.7247,0.063132,0.063381,0,0,0
151.6,0.37224,2.7273,0.063447,0.063602,0,0,0
152.1,0.37418,2.7297,0.063511,0.063854,0,0,0
152.6,0.3759,2.732,0.064046,0.064231,0,0,0
153.1,0.37778,2.7343,0.064297,0.064484,0,0,0
153.6,0.37952,2.7367,0.064454,0.064673,0,0,0
154.1,0.38153,2.739,0.064769,0.06505,0,0,0
154.6,0.38376,2.7413,0.065115,0.065302,0,0,0
155.1,0.38553,2.7437,0.065273,0.065585,0,0,0
155.6,0.38762,2.746,0.065618,0.065962,0,0,0
156.1,0.38958,2.7483,0.065776,0.066213,0,0,0
156.6,0.39147,2.7507,0.066185,0.066464,0,0,0
157.1,0.39335,2.753,0.066373,0.066747,0,0,0
157.6,0.39491,2.7553,0.066594,0.066999,0,0,0
158.1,0.39679,2.7577,0.066907,0.067281,0,0,0
158.6,0.39853,2.76,0.06719,0.067406,0,0,0
159.1,0.40008,2.762,0.067472,0.067846,0,0,0
159.6,0.40213,2.764,0.067817,0.068097,0,0,0
160.1,0.40376,2.766,0.067943,0.068316,0,0,0
160.6,0.40596,2.7683,0.068037,0.068411,0,0,0
161.1,0.4078,2.771,0.068382,0.068598,0,0,0
161.6,0.4097,2.7737,0.06857,0.0691,0,0,0
162.1,0.41175,2.7757,0.068821,0.069225,0,0,0
162.6,0.41364,2.7776,0.069134,0.069601,0,0,0
163.1,0.41554,2.7797,0.069573,0.069977,0,0,0
163.6,0.41728,2.782,0.069823,0.070101,0,0,0
164.1,0.41897,2.784,0.070293,0.070415,0,0,0
164.6,0.42039,2.786,0.070198,0.070728,0,0,0
165.1,0.42224,2.7883,0.070542,0.070853,0,0,0
165.6,0.42388,2.7907,0.070825,0.071134,0,0,0
166.1,0.42577,2.793,0.071138,0.071478,0,0,0
166.6,0.42738,2.795,0.071294,0.071572,0,0,0
167.1,0.42938,2.797,0.071606,0.071977,0,0,0
167.6,0.43114,2.799,0.071731,0.07229,0,0,0
168.1,0.43325,2.801,0.0722,0.072446,0,0,0
168.6,0.43527,2.8033,0.07245,0.072821,0,0,0
169.1,0.437,2.8054,0.072855,0.073039,0,0,0
169.6,0.43901,2.8076,0.073012,0.07332,0,0,0
170.1,0.44051,2.8097,0.07323,0.073476,0,0,0
170.6,0.44219,2.812,0.073417,0.073632,0,0,0
171.1,0.44377,2.814,0.073418,0.074007,0,0,0
171.6,0.44563,2.816,0.073854,0.074163,0,0,0
172.1,0.44722,2.818,0.074103,0.074567,0,0,0
172.6,0.44893,2.82,0.074509,0.074567,0,0,0
173.1,0.45077,2.822,0.074509,0.074848,0,0,0
173.6,0.4528,2.8243,0.074664,0.075252,0,0,0
174.1,0.45472,2.8264,0.075038,0.075347,0,0,0
174.6,0.45666,2.8286,0.07535,0.075595,0,0,0
175.1,0.45874,2.8304,0.075537,0.075937,0,0,0
175.6,0.46055,2.8323,0.075599,0.075999,0,0,0
176.1,0.4626,2.834,0.076252,0.076373,0,0,0
176.6,0.4644,2.836,0.076345,0.076746,0,0,0
177.1,0.46608,2.838,0.076656,0.07684,0,0,0
177.6,0.46791,2.84,0.076968,0.07715,0,0,0
178.1,0.46941,2.842,0.077123,0.07743,0,0,0
178.6,0.47113,2.844,0.077496,0.077586,0,0,0
179.1,0.47271,2.846,0.07762,0.07774,0,0,0
179.6,0.4747,2.848,0.077806,0.078238,0,0,0
180.1,0.47662,2.85,0.077961,0.078424,0,0,0
180.6,0.47832,2.852,0.078304,0.078641,0,0,0
181.1,0.48045,2.854,0.078551,0.078858,0,0,0
181.6,0.48248,2.856,0.078769,0.079014,0,0,0
182.1,0.48418,2.858,0.079079,0.079354,0,0,0
182.6,0.4862,2.86,0.079203,0.079633,0,0,0
183.1,0.48772,2.8617,0.07939,0.079912,0,0,0
183.6,0.48951,2.8633,0.079607,0.080191,0,0,0
184.1,0.49111,2.865,0.079979,0.080161,0,0,0
184.6,0.49271,2.867,0.080195,0.080749,0,0,0
185.1,0.49429,2.869,0.080412,0.080718,0,0,0
185.6,0.49623,2.871,0.080783,0.080935,0,0,0
186.1,0.49791,2.873,0.081,0.081183,0,0,0
186.6,0.49966,2.875,0.081341,0.081306,0,0,0
187.1,0.50137,2.877,0.081619,0.081616,0,0,0
187.6,0.50359,2.879,0.081898,0.081956,0,0,0
188.1,0.50543,2.881,0.082084,0.082141,0,0,0
188.6,0.50718,2.883,0.082455,0.08242,0,0,0
189.1,0.50892,2.8847,0.082516,0.082729,0,0,0
189.6,0.51064,2.8863,0.082764,0.083069,0,0,0
190.1,0.51218,2.888,0.08298,0.083316,0,0,0
190.6,0.51386,2.89,0.083351,0.083625,0,0,0
191.1,0.5155,2.892,0.083444,0.083964,0,0,0
191.6,0.51712,2.8937,0.083846,0.08415,0,0,0
192.1,0.51886,2.8953,0.083938,0.084396,0,0,0
192.6,0.52061,2.897,0.084154,0.084551,0,0,0
193.1,0.52272,2.899,0.084462,0.084828,0,0,0
193.6,0.52467,2.901,0.08474,0.085075,0,0,0
194.1,0.52645,2.903,0.08474,0.08526,0,0,0
194.6,0.5284,2.905,0.085203,0.08563,0,0,0
195.1,0.53028,2.907,0.085295,0.085723,0,0,0
195.6,0.53209,2.9087,0.085634,0.085846,0,0,0
196.1,0.53383,2.9106,0.086035,0.086092,0,0,0
196.6,0.53551,2.9124,0.086313,0.086277,0,0,0
197.1,0.53733,2.9143,0.086404,0.086616,0,0,0
197.6,0.53897,2.916,0.086651,0.086678,0,0,0
198.1,0.54085,2.9177,0.086804,0.087139,0,0,0
198.6,0.54233,2.9193,0.087174,0.087508,0,0,0
199.1,0.54401,2.921,0.087327,0.087662,0,0,0
199.6,0.54582,2.923,0.087574,0.08797,0,0,0
200.1,0.54777,2.925,0.087973,0.088399,0,0,0
200.6,0.54992,2.927,0.088127,0.088461,0,0,0
201.1,0.5518,2.9287,0.088342,0.088922,0,0,0
201.6,0.55374,2.9303,0.088589,0.089137,0,0,0
202.1,0.55562,2.932,0.088711,0.089321,0,0,0
202.6,0.55754,2.9337,0.088865,0.089659,0,0,0
203.1,0.55908,2.9353,0.089357,0.089874,0,0,0
203.6,0.56093,2.9367,0.089418,0.090119,0,0,0
204.1,0.56254,2.9383,0.089939,0.090303,0,0,0
204.6,0.56418,2.94,0.090062,0.090549,0,0,0
205.1,0.56586,2.942,0.090369,0.090671,0,0,0
205.6,0.56784,2.944,0.090615,0.091008,0,0,0
206.1,0.56956,2.946,0.090829,0.091315,0,0,0
206.6,0.5713,2.948,0.091044,0.091407,0,0,0
207.1,0.57322,2.9497,0.091197,0.091713,0,0,0
207.6,0.5752,2.9513,0.091565,0.091897,0,0,0
208.1,0.57684,2.953,0.09181,0.092111,0,0,0
208.6,0.57869,2.955,0.092178,0.092326,0,0,0
209.1,0.58053,2.9567,0.092178,0.092846,0,0,0
209.6,0.58221,2.9583,0.092423,0.09309,0,0,0
210.1,0.58386,2.9597,0.092759,0.093305,0,0,0
210.6,0.58557,2.9616,0.093034,0.093641,0,0,0
211.1,0.58732,2.9634,0.093248,0.093977,0,0,0
211.6,0.58933,2.9653,0.093463,0.094282,0,0,0
212.1,0.59087,2.9667,0.093707,0.094435,0,0,0
212.6,0.59249,2.9683,0.093952,0.094649,0,0,0
213.1,0.59437,2.97,0.094104,0.094955,0,0,0
213.6,0.59648,2.972,0.094502,0.095137,0,0,0
214.1,0.59823,2.9737,0.094746,0.095474,0,0,0
214.6,0.60014,2.9753,0.094868,0.095565,0,0,0
215.1,0.60212,2.977,0.095296,0.095839,0,0,0
215.6,0.60403,2.979,0.095479,0.096054,0,0,0
216.1,0.60545,2.9807,0.095693,0.096175,0,0,0
216.6,0.60736,2.9823,0.095998,0.096541,0,0,0
217.1,0.60914,2.9837,0.096211,0.096663,0,0,0
217.6,0.61068,2.9853,0.096394,0.096906,0,0,0
218.1,0.61233,2.987,0.09673,0.097303,0,0,0
218.6,0.61397,2.9887,0.096821,0.097577,0,0,0
219.1,0.61552,2.9903,0.097156,0.09782,0,0,0
219.6,0.61767,2.992,0.097644,0.097972,0,0,0
220.1,0.61971,2.994,0.097643,0.098368,0,0,0
220.6,0.62153,2.9957,0.097765,0.098611,0,0,0
221.1,0.62354,2.9973,0.0981,0.098794,0,0,0
221.6,0.62542,2.999,0.098221,0.09925,0,0,0
222.1,0.627,3.001,0.098709,0.099402,0,0,0
222.6,0.62894,3.0027,0.098952,0.099585,0,0,0
223.1,0.63042,3.0043,0.099135,0.099858,0,0,0
223.6,0.6323,3.0057,0.099469,0.10013,0,0,0
224.1,0.63401,3.0073,0.099591,0.1004,0,0,0
224.6,0.63583,3.009,0.099773,0.10053,0,0,0
225.1,0.63744,3.0107,0.10023,0.10089,0,0,0
225.6,0.63935,3.012,0.10035,0.10122,0,0,0
226.1,0.64123,3.0133,0.10062,0.10141,0,0,0
226.6,0.64298,3.015,0.10111,0.1015,0,0,0
227.1,0.64489,3.0167,0.10123,0.10177,0,0,0
227.6,0.64664,3.0183,0.10132,0.10219,0,0,0
228.1,0.64858,3.0197,0.10159,0.10241,0,0,0
228.6,0.65046,3.0216,0.10184,0.10256,0,0,0
229.1,0.65228,3.0234,0.10205,0.1028,0,0,0
229.6,0.65382,3.025,0.10223,0.10322,0,0,0
230.1,0.6555,3.0263,0.10247,0.10328,0,0,0
230.6,0.65721,3.028,0.10275,0.10362,0,0,0
231.1,0.65872,3.03,0.1032,0.10386,0,0,0
231.6,0.66057,3.0317,0.10323,0.10416,0,0,0
232.1,0.66218,3.0333,0.10362,0.10443,0,0,0
232.6,0.66423,3.0347,0.10378,0.10456,0,0,0
233.1,0.66604,3.0363,0.10408,0.10495,0,0,0
233.6,0.66799,3.0377,0.10429,0.10504,0,0,0
234.1,0.66997,3.0393,0.10453,0.10537,0,0,0
234.6,0.67185,3.041,0.10484,0.10573,0,0,0
235.1,0.67353,3.0427,0.10511,0.10616,0,0,0
235.6,0.67527,3.0443,0.10532,0.10625,0,0,0
236.1,0.67705,3.0457,0.10541,0.10646,0,0,0
236.6,0.6788,3.0473,0.10586,0.10694,0,0,0
237.1,0.68055,3.049,0.10616,0.10712,0,0,0
237.6,0.68219,3.0507,0.10641,0.10739,0,0,0
238.1,0.68394,3.0523,0.10668,0.10758,0,0,0
238.6,0.68572,3.0537,0.1068,0.10809,0,0,0
239.1,0.68776,3.0553,0.1071,0.10815,0,0,0
239.6,0.68944,3.0567,0.10737,0.10842,0,0,0
240.1,0.69139,3.0583,0.1077,0.10869,0,0,0
240.6,0.69334,3.06,0.10791,0.10899,0,0,0
241.1,0.69525,3.062,0.10816,0.10929,0,0,0
241.6,0.69713,3.0637,0.10852,0.1095,0,0,0
242.1,0.69891,3.0653,0.10873,0.10974,0,0,0
242.6,0.70076,3.0667,0.109,0.10992,0,0,0
243.1,0.70233,3.068,0.10924,0.11019,0,0,0
243.6,0.70421,3.0696,0.10954,0.1104,0,0,0
244.1,0.70593,3.0714,0.10978,0.11059,0,0,0
244.6,0.70777,3.0733,0.10996,0.11119,0,0,0
245.1,0.70945,3.0747,0.11029,0.11149,0,0,0
245.6,0.71153,3.076,0.11044,0.1117,0,0,0
246.1,0.71328,3.0773,0.11086,0.11194,0,0,0
246.6,0.71513,3.079,0.11086,0.11224,0,0,0
247.1,0.71714,3.0807,0.11146,0.11248,0,0,0
247.6,0.71902,3.082,0.1117,0.11296,0,0,0
248.1,0.72076,3.0833,0.11188,0.11305,0,0,0
248.6,0.72251,3.0847,0.11216,0.11338,0,0,0
249.1,0.72436,3.0863,0.1123,0.11359,0,0,0
249.6,0.72617,3.0877,0.11258,0.1138,0,0,0
250.1,0.72781,3.0893,0.11306,0.1141,0,0,0
250.6,0.72946,3.0907,0.11315,0.11425,0,0,0
251.1,0.73114,3.0923,0.11326,0.11445,0,0,0
251.6,0.73278,3.094,0.11365,0.11458,0,0,0
252.1,0.7349,3.0957,0.11395,0.11478,0,0,0
252.6,0.73661,3.097,0.11425,0.11526,0,0,0
253.1,0.73842,3.0983,0.11455,0.11544,0,0,0
253.6,0.7401,3.0997,0.11485,0.1158,0,0,0
254.1,0.74212,3.1013,0.115,0.11598,0,0,0
254.6,0.74393,3.103,0.11527,0.11634,0,0,0
255.1,0.74578,3.1047,0.11554,0.11664,0,0,0
255.6,0.74732,3.1063,0.11569,0.11685,0,0,0
256.1,0.74887,3.1077,0.1159,0.11718,0,0,0
256.6,0.75085,3.109,0.11629,0.11756,0,0,0
257.1,0.75246,3.1103,0.11653,0.11774,0,0,0
257.6,0.75417,3.112,0.11695,0.11792,0,0,0
258.1,0.75598,3.1137,0.11713,0.11825,0,0,0
258.6,0.75776,3.1153,0.11748,0.11852,0,0,0
259.1,0.75947,3.1167,0.11754,0.11891,0,0,0
259.6,0.76149,3.1183,0.11772,0.11912,0,0,0
260.1,0.7634,3.1197,0.11823,0.11923,0,0,0
260.6,0.76525,3.121,0.11841,0.11953,0,0,0
261.1,0.76713,3.122,0.11874,0.11983,0,0,0
261.6,0.76897,3.1233,0.119,0.11995,0,0,0
262.1,0.77082,3.125,0.1193,0.12022,0,0,0
262.6,0.77237,3.1267,0.11945,0.12063,0,0,0
263.1,0.77431,3.1283,0.11987,0.12078,0,0,0
263.6,0.77582,3.1297,0.12002,0.12123,0,0,0
264.1,0.77764,3.131,0.12023,0.12138,0,0,0
264.6,0.77921,3.1323,0.12049,0.12164,0,0,0
265.1,0.7814,3.1337,0.12064,0.12203,0,0,0
265.6,0.78271,3.1353,0.12088,0.12215,0,0,0
266.1,0.78472,3.1367,0.12103,0.12257,0,0,0
266.6,0.78647,3.1383,0.12144,0.12289,0,0,0
267.1,0.78824,3.14,0.12171,0.12301,0,0,0
267.6,0.7906,3.1417,0.12204,0.12346,0,0,0
268.1,0.79231,3.1433,0.12231,0.12355,0,0,0
268.6,0.79399,3.1447,0.12255,0.12384,0,0,0
269.1,0.7958,3.146,0.12281,0.12402,0,0,0
269.6,0.79738,3.147,0.12311,0.12447,0,0,0
270.1,0.79916,3.1483,0.12344,0.12455,0,0,0
270.6,0.80093,3.15,0.12376,0.12494,0,0,0
271.1,0.80241,3.1517,0.12415,0.12515,0,0,0
271.6,0.80429,3.153,0.1243,0.12541,0,0,0
272.1,0.8061,3.154,0.12456,0.12577,0,0,0
272.6,0.80812,3.155,0.12477,0.12601,0,0,0
273.1,0.8099,3.1563,0.12524,0.1263,0,0,0
273.6,0.81168,3.158,0.12551,0.12683,0,0,0
274.1,0.81359,3.1597,0.12554,0.1268,0,0,0
274.6,0.81534,3.161,0.1256,0.12719,0,0,0
275.1,0.81735,3.1623,0.12607,0.12745,0,0,0
275.6,0.81883,3.1637,0.12634,0.12766,0,0,0
276.1,0.82047,3.1653,0.12655,0.12793,0,0,0
276.6,0.82222,3.1667,0.12696,0.12819,0,0,0
277.1,0.82397,3.1683,0.12711,0.12861,0,0,0
277.6,0.82578,3.1697,0.12743,0.1287,0,0,0
278.1,0.82746,3.1713,0.12797,0.12887,0,0,0
278.6,0.82944,3.1727,0.12811,0.12911,0,0,0
279.1,0.83118,3.174,0.12823,0.12952,0,0,0
279.6,0.83313,3.1753,0.12876,0.12976,0,0,0
280.1,0.83498,3.1767,0.12897,0.13017,0,0,0
280.6,0.83679,3.1783,0.12915,0.13046,0,0,0
281.1,0.83887,3.1797,0.12941,0.13073,0,0,0
281.6,0.84062,3.181,0.12974,0.13099,0,0,0
282.1,0.8423,3.1823,0.12997,0.13132,0,0,0
282.6,0.84418,3.184,0.13041,0.13161,0,0,0
283.1,0.84575,3.1857,0.13068,0.13191,0,0,0
283.6,0.84763,3.187,0.13086,0.13232,0,0,0
284.1,0.84941,3.188,0.13112,0.13264,0,0,0
284.6,0.85126,3.1893,0.13127,0.133,0,0,0
285.1,0.85321,3.1907,0.13165,0.13305,0,0,0
285.6,0.85509,3.192,0.13192,0.13338,0,0,0
286.1,0.85693,3.1933,0.13218,0.13358,0,0,0
286.6,0.85875,3.1947,0.13254,0.13382,0,0,0
287.1,0.86066,3.1963,0.13274,0.13423,0,0,0
287.6,0.86267,3.1977,0.13309,0.13441,0,0,0
288.1,0.86439,3.199,0.13342,0.13461,0,0,0
288.6,0.86637,3.2003,0.1338,0.13499,0,0,0
289.1,0.86798,3.2017,0.134,0.13534,0,0,0
289.6,0.86966,3.203,0.13427,0.13561,0,0,0
290.1,0.87144,3.2043,0.13447,0.13599,0,0,0
290.6,0.87328,3.2057,0.13471,0.13614,0,0,0
291.1,0.87523,3.207,0.135,0.13649,0,0,0
291.6,0.87704,3.2083,0.13527,0.13675,0,0,0
292.1,0.87896,3.2097,0.13556,0.1371,0,0,0
292.6,0.88097,3.2113,0.13591,0.13731,0,0,0
293.1,0.88279,3.2127,0.13626,0.1376,0,0,0
293.6,0.88453,3.214,0.13629,0.13772,0,0,0
294.1,0.88624,3.2153,0.13661,0.13813,0,0,0
294.6,0.88822,3.2167,0.13688,0.13851,0,0,0
295.1,0.89,3.2183,0.13714,0.13871,0,0,0
295.6,0.89165,3.2194,0.13752,0.13886,0,0,0
296.1,0.89343,3.2206,0.13776,0.13924,0,0,0
296.6,0.89514,3.2217,0.13787,0.13938,0,0,0
297.1,0.89692,3.223,0.13834,0.13991,0,0,0
297.6,0.89866,3.2243,0.13872,0.14026,0,0,0
298.1,0.90044,3.2257,0.13907,0.14035,0,0,0
298.6,0.90232,3.2273,0.13922,0.1407,0,0,0
299.1,0.90424,3.2287,0.13942,0.1409,0,0,0
299.6,0.90595,3.2303,0.13977,0.14145,0,0,0
300.1,0.90793,3.2317,0.14009,0.1416,0,0,0
300.6,0.90978,3.233,0.14007,0.14198,0,0,0
301.1,0.91169,3.2343,0.14074,0.14212,0,0,0
301.6,0.91327,3.2357,0.14085,0.14236,0,0,0
302.1,0.91512,3.237,0.14103,0.14273,0,0,0
302.6,0.91666,3.238,0.14138,0.14294,0,0,0
303.1,0.91857,3.2393,0.1417,0.14332,0,0,0
303.6,0.92035,3.2407,0.14179,0.14361,0,0,0
304.1,0.92213,3.242,0.14216,0.14387,0,0,0
304.6,0.92398,3.243,0.14257,0.14419,0,0,0
305.1,0.92592,3.2443,0.14275,0.14431,0,0,0
305.6,0.92777,3.2457,0.14298,0.1446,0,0,0
306.1,0.92962,3.247,0.14333,0.14489,0,0,0
306.6,0.93143,3.2483,0.14373,0.14532,0,0,0
307.1,0.93344,3.2497,0.14394,0.14564,0,0,0
307.6,0.93516,3.251,0.14429,0.14605,0,0,0
308.1,0.93704,3.2523,0.14452,0.14631,0,0,0
308.6,0.93885,3.2537,0.14481,0.14651,0,0,0
309.1,0.94066,3.255,0.14507,0.14689,0,0,0
309.6,0.94244,3.2563,0.14533,0.14718,0,0,0
310.1,0.94422,3.2577,0.14565,0.14761,0,0,0
310.6,0.94603,3.259,0.14586,0.14779,0,0,0
311.1,0.94805,3.2603,0.14638,0.14808,0,0,0
311.6,0.94976,3.2617,0.14647,0.14842,0,0,0
312.1,0.95161,3.263,0.14676,0.14866,0,0,0
312.6,0.95372,3.2643,0.14725,0.14903,0,0,0
313.1,0.9554,3.2657,0.14745,0.14921,0,0,0
313.6,0.95735,3.267,0.14777,0.14949,0,0,0
314.1,0.95923,3.2683,0.14797,0.14967,0,0,0
314.6,0.96111,3.2697,0.14829,0.15004,0,0,0
315.1,0.96265,3.271,0.14858,0.15045,0,0,0
315.6,0.96457,3.272,0.14878,0.15068,0,0,0
316.1,0.96635,3.2733,0.1491,0.15105,0,0,0
316.6,0.96819,3.2747,0.14939,0.15134,0,0,0
317.1,0.97004,3.276,0.14959,0.15163,0,0,0
317.6,0.97178,3.2773,0.15008,0.15204,0,0,0
318.1,0.9737,3.2787,0.15029,0.15221,0,0,0
318.6,0.97564,3.28,0.15055,0.15264,0,0,0
319.1,0.97756,3.281,0.15092,0.15301,0,0,0
319.6,0.97947,3.282,0.15118,0.15307,0,0,0
320.1,0.98139,3.283,0.15161,0.15356,0,0,0
320.6,0.983,3.2843,0.15173,0.15385,0,0,0
321.1,0.98474,3.2857,0.15222,0.15408,0,0,0
321.6,0.98676,3.287,0.1528,0.15428,0,0,0
322.1,0.98823,3.2883,0.15306,0.15468,0,0,0
322.6,0.99025,3.2897,0.15329,0.15486,0,0,0
323.1,0.99199,3.291,0.15366,0.15532,0,0,0
323.6,0.99384,3.2923,0.15392,0.15578,0,0,0
324.1,0.99596,3.2937,0.15429,0.15592,0,0,0
324.6,0.9976,3.295,0.15432,0.15624,0,0,0
325.1,0.99935,3.296,0.15461,0.15684,0,0,0
325.6,1.0014,3.2973,0.15487,0.15698,0,0,0
326.1,1.0035,3.2987,0.15516,0.15733,0,0,0
326.6,1.0053,3.3,0.15547,0.1577,0,0,0
327.1,1.0073,3.301,0.15585,0.15796,0,0,0
327.6,1.0088,3.3023,0.15622,0.15827,0,0,0
328.1,1.0109,3.3037,0.15648,0.15842,0,0,0
328.6,1.0125,3.305,0.15671,0.15876,0,0,0
329.1,1.0145,3.306,0.15717,0.15905,0,0,0
329.6,1.016,3.3073,0.15745,0.15939,0,0,0
330.1,1.018,3.3087,0.1578,0.15962,0,0,0
330.6,1.0198,3.31,0.15794,0.15996,0,0,0
331.1,1.0217,3.311,0.15849,0.16031,0,0,0
331.6,1.0236,3.312,0.15854,0.16059,0,0,0
332.1,1.0258,3.3133,0.15906,0.16096,0,0,0
332.6,1.0276,3.3147,0.15938,0.16119,0,0,0
333.1,1.0294,3.316,0.15952,0.16153,0,0,0
333.6,1.0313,3.317,0.15986,0.16193,0,0,0
334.1,1.033,3.318,0.16015,0.16219,0,0,0
334.6,1.035,3.3193,0.16046,0.16271,0,0,0
335.1,1.0367,3.3207,0.16066,0.16268,0,0,0
335.6,1.0385,3.322,0.16109,0.16308,0,0,0
336.1,1.0402,3.3233,0.16138,0.16336,0,0,0
336.6,1.0422,3.3247,0.16158,0.16373,0,0,0
337.1,1.0439,3.326,0.16195,0.16405,0,0,0
337.6,1.0459,3.327,0.16212,0.16439,0,0,0
338.1,1.0477,3.3283,0.16255,0.16439,0,0,0
338.6,1.0495,3.3294,0.16292,0.16496,0,0,0
339.1,1.0514,3.3306,0.16346,0.16513,0,0,0
339.6,1.0532,3.3317,0.16355,0.1655,0,0,0
340.1,1.055,3.333,0.1638,0.1657,0,0,0
340.6,1.0568,3.3343,0.16409,0.16618,0,0,0
341.1,1.0585,3.3357,0.16446,0.16629,0,0,0
341.6,1.0604,3.337,0.16477,0.16681,0,0,0
342.1,1.0623,3.338,0.16486,0.167,0,0,0
342.6,1.0639,3.339,0.16511,0.1674,0,0,0
343.1,1.0659,3.34,0.16548,0.16783,0,0,0
343.6,1.0674,3.3413,0.16562,0.168,0,0,0
344.1,1.0693,3.3427,0.16608,0.16837,0,0,0
344.6,1.0713,3.344,0.16639,0.16859,0,0,0
345.1,1.0732,3.345,0.16653,0.16882,0,0,0
345.6,1.0751,3.3463,0.16699,0.16927,0,0,0
346.1,1.077,3.3477,0.16736,0.16956,0,0,0
346.6,1.0787,3.349,0.16764,0.16981,0,0,0
347.1,1.0808,3.35,0.16787,0.17001,0,0,0
347.6,1.0823,3.351,0.16841,0.17046,0,0,0
348.1,1.0841,3.3523,0.16869,0.17078,0,0,0
348.6,1.0862,3.3537,0.16892,0.17117,0,0,0
349.1,1.0878,3.355,0.16937,0.1714,0,0,0
349.6,1.0898,3.356,0.16988,0.17177,0,0,0
350.1,1.0917,3.357,0.16983,0.17233,0,0,0
350.6,1.0936,3.358,0.17022,0.1727,0,0,0
351.1,1.0954,3.359,0.17056,0.17284,0,0,0
351.6,1.0973,3.3603,0.17096,0.17321,0,0,0
352.1,1.0993,3.3617,0.17116,0.17349,0,0,0
352.6,1.101,3.363,0.17161,0.1738,0,0,0
353.1,1.1029,3.3643,0.17181,0.17405,0,0,0
353.6,1.1048,3.3657,0.1722,0.17439,0,0,0
354.1,1.1068,3.367,0.17246,0.17467,0,0,0
354.6,1.1087,3.368,0.17271,0.1751,0,0,0
355.1,1.1104,3.369,0.17311,0.17532,0,0,0
355.6,1.1122,3.3697,0.17342,0.17555,0,0,0
356.1,1.114,3.3706,0.17378,0.17597,0,0,0
356.6,1.116,3.3717,0.17415,0.17634,0,0,0
357.1,1.1178,3.373,0.17443,0.17662,0,0,0
357.6,1.1197,3.3743,0.17486,0.17709,0,0,0
358.1,1.1217,3.3757,0.17522,0.17755,0,0,0
358.6,1.1235,3.3767,0.17536,0.17794,0,0,0
359.1,1.1256,3.3776,0.17579,0.17825,0,0,0
359.6,1.1274,3.3787,0.17604,0.1787,0,0,0
360.1,1.1291,3.38,0.1766,0.17889,0,0,0
360.6,1.131,3.381,0.17688,0.17926,0,0,0
361.1,1.1328,3.382,0.17725,0.17971,0,0,0
361.6,1.1346,3.383,0.17748,0.17993,0,0,0
362.1,1.1365,3.3846,0.17804,0.18035,0,0,0
362.6,1.1384,3.3861,0.17821,0.18052,0,0,0
363.1,1.1405,3.3873,0.17865,0.18083,0,0,0
363.6,1.1423,3.3883,0.17891,0.18125,0,0,0
364.1,1.1441,3.3894,0.17919,0.18164,0,0,0
364.6,1.146,3.3903,0.1795,0.18178,0,0,0
365.1,1.1478,3.391,0.17978,0.18217,0,0,0
365.6,1.15,3.392,0.18003,0.18279,0,0,0
366.1,1.1515,3.3933,0.18037,0.18287,0,0,0
366.6,1.1534,3.3947,0.18084,0.18323,0,0,0
367.1,1.1552,3.396,0.18104,0.1836,0,0,0
367.6,1.157,3.397,0.1814,0.1841,0,0,0
368.1,1.159,3.3983,0.18185,0.18444,0,0,0
368.6,1.1607,3.3994,0.18202,0.18483,0,0,0
369.1,1.1627,3.4006,0.18216,0.18522,0,0,0
369.6,1.1645,3.4017,0.18278,0.18541,0,0,0
370.1,1.1664,3.403,0.18305,0.18605,0,0,0
370.6,1.1684,3.404,0.18364,0.18625,0,0,0
371.1,1.1703,3.405,0.18387,0.18661,0,0,0
371.6,1.1722,3.406,0.18437,0.18692,0,0,0
372.1,1.174,3.407,0.18476,0.18731,0,0,0
372.6,1.1759,3.4083,0.18495,0.18742,0,0,0
373.1,1.1777,3.4097,0.18532,0.18784,0,0,0
373.6,1.1797,3.411,0.18565,0.1882,0,0,0
374.1,1.1813,3.4117,0.1859,0.18845,0,0,0
374.6,1.1833,3.4123,0.18629,0.18884,0,0,0
375.1,1.1851,3.4133,0.18646,0.18934,0,0,0
375.6,1.1869,3.4147,0.18671,0.18948,0,0,0
376.1,1.1889,3.416,0.18718,0.19006,0,0,0
376.6,1.1906,3.417,0.18755,0.19042,0,0,0
377.1,1.1926,3.418,0.18788,0.1907,0,0,0
377.6,1.1946,3.419,0.18819,0.19092,0,0,0
378.1,1.1965,3.4203,0.18844,0.19131,0,0,0
378.6,1.1981,3.4217,0.1888,0.19153,0,0,0
379.1,1.2003,3.423,0.18944,0.192,0,0,0
379.6,1.2022,3.424,0.1896,0.19236,0,0,0
380.1,1.2038,3.425,0.18991,0.1928,0,0,0
380.6,1.2056,3.426,0.19019,0.19303,0,0,0
381.1,1.2074,3.427,0.19069,0.19325,0,0,0
381.6,1.2093,3.428,0.19094,0.19369,0,0,0
382.1,1.2112,3.429,0.19113,0.19413,0,0,0
382.6,1.213,3.43,0.19169,0.19452,0,0,0
383.1,1.215,3.431,0.19191,0.19477,0,0,0
383.6,1.217,3.432,0.19216,0.19521,0,0,0
384.1,1.2187,3.433,0.19252,0.19551,0,0,0
384.6,1.2206,3.434,0.19288,0.19609,0,0,0
385.1,1.2223,3.4353,0.19318,0.19634,0,0,0
385.6,1.2241,3.4367,0.19357,0.19678,0,0,0
386.1,1.226,3.438,0.19407,0.197,0,0,0
386.6,1.2279,3.439,0.19423,0.19742,0,0,0
387.1,1.2297,3.44,0.19478,0.19775,0,0,0
387.6,1.2314,3.441,0.19498,0.19802,0,0,0
388.1,1.2333,3.442,0.19537,0.19852,0,0,0
388.6,1.2352,3.443,0.19567,0.19877,0,0,0
389.1,1.2372,3.444,0.19619,0.19907,0,0,0
389.6,1.2389,3.445,0.1965,0.19937,0,0,0
390.1,1.2408,3.446,0.19663,0.19981,0,0,0
390.6,1.2426,3.447,0.19705,0.2,0,0,0
391.1,1.2447,3.448,0.19738,0.2005,0,0,0
391.6,1.2465,3.449,0.19776,0.20075,0,0,0
392.1,1.2484,3.45,0.19818,0.20116,0,0,0
392.6,1.2501,3.451,0.1984,0.20171,0,0,0
393.1,1.252,3.452,0.19876,0.20193,0,0,0
393.6,1.2539,3.4533,0.19914,0.20245,0,0,0
394.1,1.2557,3.4547,0.19966,0.20289,0,0,0
394.6,1.2576,3.456,0.19986,0.20316,0,0,0
395.1,1.2595,3.457,0.20032,0.20354,0,0,0
395.6,1.2613,3.458,0.20074,0.20398,0,0,0
396.1,1.2633,3.4587,0.20126,0.20428,0,0,0
396.6,1.2651,3.4596,0.2014,0.20469,0,0,0
397.1,1.267,3.4607,0.20181,0.20494,0,0,0
397.6,1.2689,3.462,0.20225,0.20546,0,0,0
398.1,1.2708,3.463,0.20266,0.20576,0,0,0
398.6,1.2728,3.464,0.20288,0.20603,0,0,0
399.1,1.2747,3.465,0.20326,0.20647,0,0,0
399.6,1.2766,3.466,0.20373,0.20674,0,0,0
400.1,1.2784,3.467,0.20427,0.20715,0,0,0
400.6,1.2804,3.468,0.20446,0.20759,0,0,0
401.1,1.2824,3.469,0.20493,0.20794,0,0,0
401.6,1.2844,3.47,0.20531,0.20832,0,0,0
402.1,1.2863,3.471,0.20545,0.20865,0,0,0
402.6,1.288,3.472,0.20613,0.20909,0,0,0
403.1,1.29,3.473,0.20632,0.20944,0,0,0
403.6,1.292,3.474,0.20671,0.20993,0,0,0
404.1,1.2939,3.475,0.20717,0.21018,0,0,0
404.6,1.2958,3.476,0.20758,0.21069,0,0,0
405.1,1.2977,3.477,0.20802,0.21097,0,0,0
405.6,1.2993,3.478,0.20823,0.21143,0,0,0
406.1,1.3012,3.479,0.2084,0.21181,0,0,0
406.6,1.3033,3.48,0.20892,0.21208,0,0,0
407.1,1.3051,3.481,0.2093,0.21268,0,0,0
407.6,1.3071,3.482,0.20976,0.21298,0,0,0
408.1,1.3089,3.483,0.21011,0.21335,0,0,0
408.6,1.311,3.484,0.21066,0.21382,0,0,0
409.1,1.3127,3.485,0.21082,0.2139,0,0,0
409.6,1.3148,3.486,0.21123,0.21439,0,0,0
410.1,1.3166,3.487,0.21188,0.21471,0,0,0
410.6,1.3184,3.488,0.21212,0.2152,0,0,0
411.1,1.3205,3.489,0.21245,0.21579,0,0,0
411.6,1.3223,3.49,0.21305,0.21601,0,0,0
412.1,1.3243,3.491,0.21335,0.21639,0,0,0
412.6,1.3261,3.492,0.21389,0.21679,0,0,0
413.1,1.328,3.4933,0.21427,0.2172,0,0,0
413.6,1.3298,3.4944,0.21454,0.21766,0,0,0
414.1,1.3316,3.4953,0.21492,0.21809,0,0,0
414.6,1.3338,3.496,0.21532,0.21855,0,0,0
415.1,1.3355,3.497,0.2156,0.21885,0,0,0
415.6,1.3377,3.498,0.21603,0.21939,0,0,0
416.1,1.3395,3.499,0.2163,0.21965,0,0,0
416.6,1.3415,3.5,0.21679,0.22009,0,0,0
417.1,1.3433,3.501,0.21703,0.22046,0,0,0
417.6,1.3453,3.502,0.21751,0.22087,0,0,0
418.1,1.3473,3.503,0.21792,0.2213,0,0,0
418.6,1.3492,3.504,0.2183,0.22165,0,0,0
419.1,1.3511,3.505,0.21878,0.22208,0,0,0
419.6,1.353,3.506,0.2193,0.22251,0,0,0
420.1,1.3549,3.507,0.21959,0.22275,0,0,0
420.6,1.3568,3.508,0.22005,0.22345,0,0,0
421.1,1.3588,3.509,0.22024,0.22377,0,0,0
421.6,1.3606,3.51,0.22081,0.22406,0,0,0
422.1,1.3628,3.511,0.22118,0.22452,0,0,0
422.6,1.3648,3.512,0.22156,0.22498,0,0,0
423.1,1.3665,3.513,0.22202,0.22533,0,0,0
423.6,1.3686,3.514,0.22228,0.22567,0,0,0
424.1,1.3704,3.515,0.2228,0.22629,0,0,0
424.6,1.3722,3.5157,0.22331,0.22672,0,0,0
425.1,1.3742,3.5166,0.22368,0.22691,0,0,0
425.6,1.3763,3.5174,0.22408,0.22728,0,0,0
426.1,1.3781,3.5183,0.22433,0.22779,0,0,0
426.6,1.38,3.5193,0.22483,0.22856,0,0,0
427.1,1.3819,3.5204,0.22521,0.2287,0,0,0
427.6,1.3836,3.5213,0.22567,0.22904,0,0,0
428.1,1.3857,3.522,0.22599,0.22942,0,0,0
428.6,1.3876,3.523,0.22663,0.22976,0,0,0
429.1,1.3895,3.524,0.22682,0.2304,0,0,0
429.6,1.3913,3.5253,0.22733,0.23059,0,0,0
430.1,1.3933,3.5264,0.2277,0.2311,0,0,0
430.6,1.3951,3.5276,0.22805,0.23155,0,0,0
431.1,1.3973,3.5287,0.22845,0.23192,0,0,0
431.6,1.399,3.5297,0.22909,0.23269,0,0,0
432.1,1.4011,3.5303,0.2293,0.23296,0,0,0
432.6,1.4028,3.531,0.22989,0.23339,0,0,0
433.1,1.4049,3.532,0.22992,0.2336,0,0,0
433.6,1.4066,3.533,0.23058,0.23424,0,0,0
434.1,1.4087,3.534,0.23101,0.23463,0,0,0
434.6,1.4106,3.535,0.23141,0.23509,0,0,0
435.1,1.4126,3.5357,0.23176,0.2354,0,0,0
435.6,1.4145,3.5363,0.23216,0.23588,0,0,0
436.1,1.4164,3.537,0.23261,0.23607,0,0,0
436.6,1.4186,3.538,0.23306,0.23673,0,0,0
437.1,1.4203,3.539,0.23346,0.23697,0,0,0
437.6,1.4223,3.54,0.23391,0.2375,0,0,0
438.1,1.4243,3.541,0.23439,0.23795,0,0,0
438.6,1.4261,3.542,0.23489,0.23842,0,0,0
439.1,1.4279,3.543,0.23532,0.23877,0,0,0
439.6,1.4302,3.544,0.23582,0.23922,0,0,0
440.1,1.4319,3.545,0.23614,0.23988,0,0,0
440.6,1.4339,3.546,0.23664,0.24025,0,0,0
441.1,1.4358,3.5467,0.23702,0.24051,0,0,0
441.6,1.4378,3.5473,0.23739,0.24112,0,0,0
442.1,1.4398,3.548,0.23808,0.24154,0,0,0
442.6,1.4416,3.549,0.23829,0.24188,0,0,0
443.1,1.4437,3.55,0.23863,0.24252,0,0,0
443.6,1.4457,3.551,0.23916,0.24288,0,0,0
444.1,1.4476,3.552,0.23953,0.24331,0,0,0
444.6,1.4495,3.553,0.2399,0.24365,0,0,0
445.1,1.4513,3.554,0.24035,0.2442,0,0,0
445.6,1.4532,3.555,0.24053,0.24452,0,0,0
446.1,1.4554,3.5557,0.24119,0.24504,0,0,0
446.6,1.4573,3.5563,0.24156,0.24549,0,0,0
447.1,1.4594,3.557,0.24198,0.24575,0,0,0
447.6,1.4612,3.558,0.24233,0.24633,0,0,0
448.1,1.463,3.559,0.24301,0.24675,0,0,0
448.6,1.4651,3.56,0.24354,0.24722,0,0,0
449.1,1.4671,3.561,0.24417,0.24761,0,0,0
449.6,1.4691,3.562,0.24454,0.24829,0,0,0
450.1,1.471,3.563,0.24512,0.24856,0,0,0
450.6,1.4731,3.5637,0.24538,0.24918,0,0,0
451.1,1.475,3.5643,0.24588,0.24971,0,0,0
451.6,1.4768,3.565,0.24632,0.25023,0,0,0
452.1,1.479,3.566,0.2468,0.25049,0,0,0
452.6,1.481,3.567,0.2474,0.25107,0,0,0
453.1,1.4827,3.568,0.2479,0.25167,0,0,0
453.6,1.4845,3.569,0.24821,0.25206,0,0,0
454.1,1.4867,3.57,0.24866,0.2525,0,0,0
454.6,1.4886,3.5707,0.24905,0.2531,0,0,0
455.1,1.4905,3.5716,0.24955,0.25347,0,0,0
455.6,1.4925,3.5727,0.25002,0.25388,0,0,0
456.1,1.4944,3.574,0.25067,0.25443,0,0,0
456.6,1.4964,3.575,0.25099,0.25485,0,0,0
457.1,1.4983,3.5757,0.25135,0.25521,0,0,0
457.6,1.5003,3.5763,0.25208,0.25573,0,0,0
458.1,1.5023,3.577,0.25252,0.25615,0,0,0
458.6,1.5045,3.578,0.25302,0.25664,0,0,0
459.1,1.5063,3.579,0.25325,0.25706,0,0,0
459.6,1.508,3.58,0.2538,0.25752,0,0,0
460.1,1.5101,3.5807,0.25443,0.25796,0,0,0
460.6,1.5123,3.5813,0.25497,0.25861,0,0,0
461.1,1.5139,3.582,0.25531,0.25892,0,0,0
461.6,1.516,3.5827,0.25578,0.25931,0,0,0
462.1,1.5179,3.5833,0.25622,0.2597,0,0,0
462.6,1.52,3.5843,0.25684,0.26058,0,0,0
463.1,1.522,3.5854,0.25726,0.26092,0,0,0
463.6,1.5239,3.5863,0.25775,0.26141,0,0,0
464.1,1.5259,3.5873,0.25848,0.26211,0,0,0
464.6,1.5278,3.5884,0.25887,0.2627,0,0,0
465.1,1.53,3.5893,0.25957,0.26311,0,0,0
465.6,1.5319,3.59,0.26006,0.26327,0,0,0
466.1,1.5338,3.591,0.26045,0.26402,0,0,0
466.6,1.5358,3.592,0.26091,0.26451,0,0,0
467.1,1.538,3.593,0.26146,0.26505,0,0,0
467.6,1.54,3.5937,0.26195,0.26559,0,0,0
468.1,1.5423,3.5943,0.26264,0.26605,0,0,0
468.6,1.5439,3.595,0.26277,0.2668,0,0,0
469.1,1.546,3.596,0.26352,0.267,0,0,0
469.6,1.548,3.597,0.26383,0.26728,0,0,0
470.1,1.5502,3.5977,0.2644,0.2679,0,0,0
470.6,1.5522,3.5983,0.26504,0.26859,0,0,0
471.1,1.5542,3.599,0.26556,0.26895,0,0,0
471.6,1.5562,3.6,0.266,0.26954,0,0,0
472.1,1.558,3.601,0.26674,0.27008,0,0,0
472.6,1.56,3.6017,0.26723,0.27057,0,0,0
473.1,1.5622,3.6023,0.26774,0.27118,0,0,0
473.6,1.5642,3.603,0.26849,0.27172,0,0,0
474.1,1.5662,3.604,0.26893,0.27241,0,0,0
474.6,1.5683,3.605,0.26944,0.273,0,0,0
475.1,1.5705,3.6057,0.26998,0.27353,0,0,0
475.6,1.5724,3.6063,0.27046,0.27405,0,0,0
476.1,1.5747,3.607,0.2709,0.27461,0,0,0
476.6,1.5767,3.608,0.27149,0.27519,0,0,0
477.1,1.579,3.609,0.27187,0.27583,0,0,0
477.6,1.5807,3.6097,0.27246,0.27624,0,0,0
478.1,1.5828,3.6103,0.27305,0.2767,0,0,0
478.6,1.5848,3.6113,0.27348,0.27741,0,0,0
479.1,1.5869,3.6124,0.27394,0.27789,0,0,0
479.6,1.5889,3.6133,0.27471,0.2783,0,0,0
480.1,1.5908,3.6137,0.27514,0.27876,0,0,0
480.6,1.593,3.6143,0.2759,0.27942,0,0,0
481.1,1.5952,3.615,0.27631,0.28018,0,0,0
481.6,1.597,3.616,0.27692,0.28063,0,0,0
482.1,1.5994,3.617,0.27756,0.28112,0,0,0
482.6,1.6014,3.618,0.27812,0.2817,0,0,0
483.1,1.6033,3.6187,0.27868,0.28246,0,0,0
483.6,1.6055,3.6193,0.27919,0.28291,0,0,0
484.1,1.6074,3.62,0.27962,0.28345,0,0,0
484.6,1.6096,3.621,0.28035,0.28415,0,0,0
485.1,1.6115,3.6217,0.28111,0.28476,0,0,0
485.6,1.6136,3.6223,0.2815,0.28519,0,0,0
486.1,1.6157,3.623,0.28203,0.28592,0,0,0
486.6,1.6178,3.624,0.28246,0.28655,0,0,0
487.1,1.62,3.625,0.28322,0.28716,0,0,0
487.6,1.6217,3.6257,0.28375,0.28784,0,0,0
488.1,1.6239,3.6263,0.28438,0.28834,0,0,0
488.6,1.6262,3.627,0.28496,0.28882,0,0,0
489.1,1.6282,3.628,0.28541,0.28947,0,0,0
489.6,1.6304,3.629,0.28602,0.29005,0,0,0
490.1,1.6322,3.63,0.28665,0.29075,0,0,0
490.6,1.6343,3.631,0.28705,0.2913,0,0,0
491.1,1.6363,3.6317,0.28786,0.29198,0,0,0
491.6,1.6386,3.6323,0.28841,0.29256,0,0,0
492.1,1.6406,3.6327,0.28879,0.29311,0,0,0
492.6,1.6427,3.6333,0.28954,0.29356,0,0,0
493.1,1.6451,3.634,0.28982,0.29403,0,0,0
493.6,1.6471,3.6347,0.29083,0.29473,0,0,0
494.1,1.6491,3.6356,0.29133,0.29521,0,0,0
494.6,1.6512,3.6364,0.2918,0.29573,0,0,0
495.1,1.6534,3.6373,0.29246,0.29641,0,0,0
495.6,1.6556,3.638,0.29313,0.29713,0,0,0
496.1,1.6577,3.639,0.29376,0.29781,0,0,0
496.6,1.6597,3.6397,0.29408,0.2984,0,0,0
497.1,1.6617,3.6403,0.29476,0.29893,0,0,0
497.6,1.6639,3.6407,0.29546,0.29955,0,0,0
498.1,1.666,3.6413,0.29593,0.30039,0,0,0
498.6,1.6682,3.642,0.29668,0.30099,0,0,0
499.1,1.6702,3.643,0.29726,0.30144,0,0,0
499.6,1.6724,3.644,0.29763,0.30218,0,0,0
500.1,1.675,3.6447,0.29833,0.30273,0,0,0
500.6,1.6769,3.6453,0.2987,0.30337,0,0,0
501.1,1.679,3.646,0.29967,0.30409,0,0,0
501.6,1.6812,3.6467,0.30037,0.30483,0,0,0
502.1,1.6836,3.6473,0.30079,0.30535,0,0,0
502.6,1.6853,3.648,0.30151,0.30592,0,0,0
503.1,1.6873,3.6487,0.30216,0.30676,0,0,0
503.6,1.6896,3.6493,0.30278,0.30718,0,0,0
504.1,1.6915,3.65,0.30355,0.3081,0,0,0
504.6,1.6937,3.651,0.30417,0.30861,0,0,0
505.1,1.6959,3.652,0.30471,0.30967,0,0,0
505.6,1.698,3.6527,0.30558,0.31019,0,0,0
506.1,1.7002,3.6533,0.306,0.31081,0,0,0
506.6,1.7024,3.654,0.30694,0.31157,0,0,0
507.1,1.7046,3.6547,0.3077,0.31206,0,0,0
507.6,1.7069,3.6553,0.30812,0.31282,0,0,0
508.1,1.709,3.656,0.30896,0.31331,0,0,0
508.6,1.7111,3.6567,0.30975,0.31417,0,0,0
509.1,1.7133,3.6573,0.31036,0.31478,0,0,0
509.6,1.7155,3.658,0.31108,0.31532,0,0,0
510.1,1.7177,3.6587,0.31179,0.31618,0,0,0
510.6,1.7198,3.659,0.31228,0.31699,0,0,0
511.1,1.722,3.6593,0.31287,0.31753,0,0,0
511.6,1.7242,3.66,0.31339,0.31826,0,0,0
512.1,1.7265,3.661,0.31415,0.31904,0,0,0
512.6,1.7288,3.662,0.31481,0.31941,0,0,0
513.1,1.7309,3.6627,0.31545,0.32033,0,0,0
513.6,1.7332,3.6633,0.31608,0.32099,0,0,0
514.1,1.7351,3.6637,0.31684,0.3217,0,0,0
514.6,1.7372,3.6643,0.3177,0.3224,0,0,0
515.1,1.7396,3.665,0.3184,0.32296,0,0,0
515.6,1.7418,3.666,0.31931,0.32381,0,0,0
516.1,1.7441,3.6667,0.32002,0.32437,0,0,0
516.6,1.7462,3.6673,0.32075,0.32502,0,0,0
517.1,1.7484,3.668,0.3214,0.32602,0,0,0
517.6,1.7508,3.6687,0.32238,0.32703,0,0,0
518.1,1.7529,3.6693,0.32296,0.32776,0,0,0
518.6,1.7552,3.6697,0.32352,0.32829,0,0,0
519.1,1.7573,3.67,0.32456,0.32914,0,0,0
519.6,1.7598,3.6706,0.32539,0.33006,0,0,0
520.1,1.7621,3.6714,0.32612,0.33061,0,0,0
520.6,1.7642,3.6723,0.32692,0.33162,0,0,0
521.1,1.7664,3.6727,0.32769,0.33227,0,0,0
521.6,1.7687,3.673,0.32851,0.33292,0,0,0
522.1,1.7709,3.6733,0.32917,0.33369,0,0,0
522.6,1.7731,3.674,0.32989,0.33442,0,0,0
523.1,1.7752,3.675,0.33085,0.33511,0,0,0
523.6,1.7775,3.676,0.33151,0.33605,0,0,0
524.1,1.7798,3.6767,0.33218,0.33708,0,0,0
524.6,1.7821,3.6773,0.33317,0.33794,0,0,0
525.1,1.7846,3.6777,0.33398,0.33864,0,0,0
525.6,1.7867,3.6783,0.33473,0.33935,0,0,0
526.1,1.7892,3.6787,0.3354,0.34019,0,0,0
526.6,1.7912,3.6793,0.33629,0.34107,0,0,0
527.1,1.7938,3.6797,0.33711,0.34186,0,0,0
527.6,1.796,3.6803,0.33833,0.34277,0,0,0
528.1,1.7984,3.681,0.33907,0.34358,0,0,0
528.6,1.8005,3.6817,0.33993,0.34424,0,0,0
529.1,1.8031,3.682,0.341,0.34529,0,0,0
529.6,1.8052,3.6823,0.3417,0.34593,0,0,0
530.1,1.8076,3.683,0.34244,0.34714,0,0,0
530.6,1.81,3.6837,0.34327,0.34785,0,0,0
531.1,1.8125,3.684,0.3441,0.34864,0,0,0
531.6,1.8147,3.6843,0.34475,0.34968,0,0,0
532.1,1.817,3.6847,0.34577,0.35039,0,0,0
532.6,1.8193,3.6853,0.34679,0.35157,0,0,0
533.1,1.8217,3.6857,0.34755,0.35223,0,0,0
533.6,1.8243,3.6863,0.34843,0.35324,0,0,0
534.1,1.8265,3.687,0.34954,0.35398,0,0,0
534.6,1.8289,3.6877,0.35018,0.35487,0,0,0
535.1,1.8312,3.6883,0.35122,0.35583,0,0,0
535.6,1.8334,3.6887,0.35214,0.3568,0,0,0
536.1,1.8358,3.6893,0.35289,0.35793,0,0,0
536.6,1.8387,3.6897,0.35374,0.35863,0,0,0
537.1,1.8408,3.69,0.35445,0.35957,0,0,0
537.6,1.8433,3.69,0.35539,0.36067,0,0,0
538.1,1.8458,3.6903,0.35628,0.36156,0,0,0
538.6,1.8481,3.691,0.35718,0.3628,0,0,0
539.1,1.8506,3.6917,0.35802,0.3635,0,0,0
539.6,1.8533,3.6923,0.35931,0.36476,0,0,0
540.1,1.8555,3.6927,0.36011,0.36569,0,0,0
540.6,1.8578,3.693,0.36107,0.36664,0,0,0
541.1,1.8603,3.6933,0.36224,0.36781,0,0,0
541.6,1.863,3.6937,0.36329,0.3685,0,0,0
542.1,1.8657,3.694,0.36418,0.36966,0,0,0
542.6,1.8679,3.6943,0.3652,0.37061,0,0,0
543.1,1.8705,3.6947,0.36611,0.37161,0,0,0
543.6,1.873,3.695,0.3672,0.373,0,0,0
544.1,1.8756,3.6953,0.36823,0.37408,0,0,0
544.6,1.878,3.6957,0.36904,0.37517,0,0,0
545.1,1.8808,3.696,0.37027,0.37634,0,0,0
545.6,1.8833,3.696,0.37143,0.37733,0,0,0
546.1,1.8857,3.6963,0.37247,0.37839,0,0,0
546.6,1.8882,3.6967,0.37347,0.37947,0,0,0
547.1,1.8908,3.697,0.37474,0.38062,0,0,0
547.6,1.8935,3.6973,0.37575,0.38168,0,0,0
548.1,1.8961,3.6977,0.37716,0.38284,0,0,0
548.6,1.8989,3.698,0.37833,0.38385,0,0,0
549.1,1.9016,3.698,0.3793,0.38543,0,0,0
549.6,1.9039,3.6983,0.38031,0.38627,0,0,0
550.1,1.9068,3.6987,0.38132,0.38759,0,0,0
550.6,1.9094,3.699,0.38242,0.38876,0,0,0
551.1,1.9122,3.699,0.38361,0.39033,0,0,0
551.6,1.9149,3.699,0.38443,0.39128,0,0,0
552.1,1.9173,3.699,0.38585,0.39266,0,0,0
552.6,1.9202,3.699,0.38715,0.39386,0,0,0
553.1,1.9228,3.699,0.38865,0.395,0,0,0
553.6,1.9254,3.699,0.38956,0.39649,0,0,0
554.1,1.9284,3.699,0.39106,0.39739,0,0,0
554.6,1.931,3.699,0.39229,0.39877,0,0,0
555.1,1.9339,3.699,0.39362,0.39971,0,0,0
555.6,1.9367,3.699,0.39462,0.40138,0,0,0
556.1,1.9394,3.699,0.3958,0.4029,0,0,0
556.6,1.9421,3.699,0.39706,0.40432,0,0,0
557.1,1.9448,3.699,0.39805,0.40588,0,0,0
557.6,1.9476,3.699,0.39936,0.40729,0,0,0
558.1,1.9504,3.699,0.40058,0.40881,0,0,0
558.6,1.9534,3.699,0.40204,0.41012,0,0,0
559.1,1.9564,3.6987,0.40316,0.4113,0,0,0
559.6,1.9587,3.6983,0.40464,0.41253,0,0,0
560.1,1.9617,3.698,0.4058,0.41402,0,0,0
560.6,1.9647,3.6977,0.40721,0.41557,0,0,0
561.1,1.9677,3.6973,0.40837,0.41676,0,0,0
561.6,1.9706,3.697,0.40971,0.41838,0,0,0
562.1,1.9736,3.697,0.41111,0.41981,0,0,0
562.6,1.9764,3.6967,0.41251,0.42149,0,0,0
563.1,1.9793,3.6963,0.41374,0.42323,0,0,0
563.6,1.9822,3.6957,0.41511,0.42479,0,0,0
564.1,1.9851,3.6953,0.4168,0.42652,0,0,0
564.6,1.9883,3.6947,0.41837,0.42836,0,0,0
565.1,1.9914,3.694,0.41954,0.42987,0,0,0
565.6,1.9943,3.6933,0.42128,0.43126,0,0,0
566.1,1.997,3.6927,0.42242,0.43261,0,0,0
566.6,2.0002,3.6923,0.42377,0.43438,0,0,0
567.1,2.0032,3.6917,0.42506,0.43614,0,0,0
567.6,2.0062,3.691,0.42662,0.43796,0,0,0
568.1,2.0092,3.6903,0.42806,0.43962,0,0,0
568.6,2.0125,3.6897,0.42968,0.44153,0,0,0
569.1,2.0154,3.689,0.43092,0.4436,0,0,0
569.6,2.0185,3.6877,0.43243,0.44474,0,0,0
570.1,2.0216,3.6863,0.43443,0.44657,0,0,0
570.6,2.0247,3.685,0.43582,0.44841,0,0,0
571.1,2.028,3.6843,0.43743,0.44987,0,0,0
571.6,2.0309,3.6834,0.43892,0.45194,0,0,0
572.1,2.0341,3.6823,0.44035,0.45348,0,0,0
572.6,2.0372,3.6807,0.44186,0.4558,0,0,0
573.1,2.0404,3.6793,0.4434,0.4575,0,0,0
573.6,2.0435,3.6777,0.44492,0.45975,0,0,0
574.1,2.0467,3.676,0.44679,0.46174,0,0,0
574.6,2.05,3.6743,0.44845,0.46388,0,0,0
575.1,2.0534,3.6727,0.44997,0.46557,0,0,0
575.6,2.0569,3.671,0.45196,0.46759,0,0,0
576.1,2.0601,3.669,0.45349,0.4699,0,0,0
576.6,2.0635,3.6664,0.45537,0.47239,0,0,0
577.1,2.0668,3.6633,0.45711,0.47465,0,0,0
577.6,2.0704,3.658,0.45887,0.47482,0,0,0
578.1,2.0745,3.6486,0.46123,0.47728,0,0,0