File: polyN_optimization/results_exp/AA6014-T4/CH_90_3.csv
Time[s],Displacement[mm],Force[kN],AxStrain_1,AxStrain_2,Thickness[mm],OuterWidth[mm],Diameter[mm]
0.64,0,-0.005123,0,0,1.1245,20.044,5.2046
1.14,-8e-05,0.0046656,0.00027696,-5.0001e-05,0,0,0
1.64,0.000705,0.016008,0.00027896,-0.00016701,0,0,0
2.14,0.001057,0.040432,0.00041092,-0.00010501,0,0,0
2.64,0.001384,0.068996,0.00026696,0.00010399,0,0,0
3.14,0.00182,0.093137,0.00040792,-5.5002e-05,0,0,0
3.64,0.002004,0.11071,0.00022697,-3.6001e-05,0,0,0
4.14,0.001967,0.12586,0.00031495,-1.8e-05,0,0,0
4.64,0.002371,0.14315,0.00034894,-2.4e-05,0,0,0
5.14,0.002844,0.163,0.0004559,0.00014499,0,0,0
5.64,0.002928,0.18285,0.00043291,2e-05,0,0,0
6.14,0.003122,0.20071,0.00041391,8e-06,0,0,0
6.64,0.00336,0.21442,0.00035694,8.6996e-05,0,0,0
7.14,0.003323,0.22343,0.00034794,4.1999e-05,0,0,0
7.64,0.003609,0.23072,0.00033694,3.7999e-05,0,0,0
8.14,0.003751,0.24172,0.00031395,0.00013699,0,0,0
8.64,0.003974,0.25585,0.00035894,7.8997e-05,0,0,0
9.14,0.004336,0.27115,0.00046989,0.00016699,0,0,0
9.64,0.004512,0.287,0.00043391,0.00016899,0,0,0
10.14,0.005139,0.30314,0.0004419,0.00024697,0,0,0
10.64,0.005168,0.31771,0.00039592,0.00018098,0,0,0
11.14,0.00547,0.33215,0.0004419,0.00029196,0,0,0
11.64,0.005707,0.34714,0.00057983,0.00030795,0,0,0
12.14,0.006203,0.36171,0.00055385,0.00037793,0,0,0
12.64,0.006382,0.37615,0.00064079,0.00022997,0,0,0
13.14,0.00664,0.39114,0.00058083,0.00039592,0,0,0
13.64,0.006956,0.40686,0.00071474,0.00014799,0,0,0
14.14,0.007189,0.423,0.00084264,0.00020498,0,0,0
14.64,0.007329,0.43914,0.00059782,0.00033194,0,0,0
15.14,0.007487,0.45371,0.00071474,0.00029196,0,0,0
15.64,0.007648,0.46815,0.00058783,0.00026197,0,0,0
16.14,0.007765,0.48343,0.00060082,0.00041591,0,0,0
16.64,0.007829,0.49843,0.00080168,0.0004429,0,0,0
17.14,0.007947,0.51343,0.00088561,0.00040992,0,0,0
17.64,0.008188,0.52914,0.0006308,0.00041991,0,0,0
18.14,0.008319,0.54557,0.00059782,0.00036893,0,0,0
18.64,0.008712,0.56229,0.00064079,0.00056684,0,0,0
19.14,0.009071,0.57885,0.0006308,0.0004399,0,0,0
19.64,0.009293,0.59429,0.00066778,0.00029196,0,0,0
20.14,0.009417,0.60986,0.00061081,0.00045989,0,0,0
20.64,0.009884,0.62585,0.00079568,0.00041991,0,0,0
21.14,0.010327,0.64129,0.00080168,0.00042291,0,0,0
21.64,0.010552,0.65686,0.00066778,0.00064079,0,0,0
22.14,0.010961,0.67285,0.0007717,0.00057084,0,0,0
22.64,0.011378,0.68943,0.00099351,0.00061381,0,0,0
23.14,0.012046,0.70671,0.00061381,0.00048688,0,0,0
23.64,0.012375,0.72414,0.00086962,0.00058783,0,0,0
24.14,0.012751,0.73971,0.00087262,0.00080168,0,0,0
24.64,0.013177,0.75543,0.0010135,0.00060382,0,0,0
25.14,0.013231,0.77157,0.00092657,0.00088261,0,0,0
25.64,0.013818,0.78729,0.0010574,0.00068177,0,0,0
26.14,0.013929,0.80286,0.0009965,0.00071774,0,0,0
26.64,0.014124,0.81885,0.00094955,0.00084564,0,0,0
27.14,0.014074,0.83543,0.0010804,0.00074172,0,0,0
27.64,0.014433,0.85271,0.0008956,0.00072474,0,0,0
28.14,0.014493,0.86985,0.00087961,0.00069476,0,0,0
28.64,0.014567,0.88529,0.00096653,0.00081567,0,0,0
29.14,0.014946,0.90086,0.00091958,0.00084864,0,0,0
29.64,0.015071,0.91685,0.00092257,0.00086962,0,0,0
30.14,0.015292,0.932,0.00099351,0.00074872,0,0,0
30.64,0.015521,0.94715,0.0010305,0.00081567,0,0,0
31.14,0.015742,0.96285,0.0010405,0.00092257,0,0,0
31.64,0.016266,0.97915,0.0010974,0.00094655,0,0,0
32.14,0.016672,0.996,0.0010634,0.0010065,0,0,0
32.64,0.017239,1.0129,0.0010704,0.0010335,0,0,0
33.14,0.017542,1.0283,0.0011374,0.0010475,0,0,0
33.64,0.018012,1.0436,0.0012512,0.0011104,0,0,0
34.14,0.01867,1.0591,0.0012243,0.0011573,0,0,0
34.64,0.018979,1.0743,0.001416,0.0010934,0,0,0
35.14,0.019381,1.0896,0.0011573,0.0012512,0,0,0
35.64,0.019747,1.1054,0.0013251,0.0011983,0,0,0
36.14,0.020197,1.1207,0.0015837,0.0013251,0,0,0
36.64,0.020392,1.137,0.001392,0.0011943,0,0,0
37.14,0.020654,1.1537,0.0015528,0.0012652,0,0,0
37.64,0.020896,1.1693,0.0013421,0.0011403,0,0,0
38.14,0.021174,1.1839,0.0015029,0.001402,0,0,0
38.64,0.021164,1.1991,0.0016407,0.0013721,0,0,0
39.14,0.021543,1.214,0.0015228,0.0012183,0,0,0
39.64,0.021779,1.2291,0.0015867,0.0011773,0,0,0
40.14,0.021866,1.2449,0.0016097,0.0012452,0,0,0
40.64,0.021916,1.2606,0.0014959,0.0012552,0,0,0
41.14,0.022101,1.2766,0.0016037,0.0013691,0,0,0
41.64,0.022447,1.2926,0.0016067,0.0014799,0,0,0
42.14,0.022735,1.3073,0.0016367,0.001426,0,0,0
42.64,0.023108,1.3219,0.0017245,0.001379,0,0,0
43.14,0.023521,1.3371,0.0018144,0.001419,0,0,0
43.64,0.024001,1.3517,0.0016676,0.0015029,0,0,0
44.14,0.024427,1.3661,0.0019082,0.0016207,0,0,0
44.64,0.024703,1.3811,0.0019321,0.0015738,0,0,0
45.14,0.02527,1.3957,0.002009,0.0016167,0,0,0
45.64,0.025851,1.411,0.0022505,0.001992,0,0,0
46.14,0.026344,1.427,0.0022674,0.0018553,0,0,0
46.64,0.026741,1.4423,0.002431,0.0019721,0,0,0
47.14,0.026908,1.4566,0.0025418,0.0019251,0,0,0
47.64,0.027278,1.4714,0.0026116,0.0019152,0,0,0
48.14,0.027513,1.4857,0.0025418,0.0020559,0,0,0
48.64,0.027647,1.4999,0.0025009,0.002016,0,0,0
49.14,0.02813,1.5141,0.0023911,0.0021467,0,0,0
49.64,0.02855,1.5291,0.0023772,0.0021257,0,0,0
50.14,0.028668,1.5447,0.0025248,0.0020689,0,0,0
50.64,0.028933,1.5601,0.0024979,0.0020958,0,0,0
51.14,0.029191,1.574,0.0027223,0.0021836,0,0,0
51.64,0.029433,1.5879,0.0027293,0.0022934,0,0,0
52.14,0.029779,1.6021,0.0027153,0.0022704,0,0,0
52.64,0.03044,1.616,0.0026415,0.0022066,0,0,0
53.14,0.030843,1.6299,0.0029068,0.0024949,0,0,0
53.64,0.031004,1.6439,0.0029496,0.0024749,0,0,0
54.14,0.031508,1.6581,0.0030135,0.002448,0,0,0
54.64,0.031965,1.6721,0.0032108,0.0027462,0,0,0
55.14,0.032243,1.6869,0.0033314,0.0026894,0,0,0
55.64,0.032911,1.7011,0.003452,0.0028868,0,0,0
56.14,0.03318,1.7156,0.0036324,0.0029835,0,0,0
56.64,0.03363,1.7294,0.0038595,0.0031909,0,0,0
57.14,0.034106,1.7427,0.0040408,0.0032876,0,0,0
57.64,0.034506,1.7561,0.0041613,0.0036463,0,0,0
58.14,0.034956,1.7699,0.0042818,0.0035218,0,0,0
58.64,0.035288,1.7839,0.0042181,0.0036762,0,0,0
59.14,0.035708,1.798,0.0043047,0.0037828,0,0,0
59.64,0.036242,1.8121,0.004462,0.0037928,0,0,0
60.14,0.036809,1.825,0.004458,0.0036862,0,0,0
60.64,0.037346,1.8379,0.0043983,0.00375,0,0,0
61.14,0.037857,1.8509,0.0046392,0.0037898,0,0,0
61.64,0.038733,1.863,0.004696,0.003987,0,0,0
62.14,0.039441,1.8749,0.0046691,0.0039372,0,0,0
62.64,0.039961,1.8871,0.004896,0.0040837,0,0,0
63.14,0.041026,1.8999,0.0049935,0.0042141,0,0,0
63.64,0.041643,1.9119,0.0052532,0.0043714,0,0,0
64.14,0.042604,1.9236,0.0053407,0.0045755,0,0,0
64.64,0.043544,1.9344,0.005654,0.0048691,0,0,0
65.14,0.044272,1.9456,0.0060348,0.0050562,0,0,0
65.64,0.0454,1.9561,0.0063548,0.005294,0,0,0
66.14,0.046229,1.9657,0.0068058,0.0057813,0,0,0
66.64,0.04719,1.9746,0.0071424,0.0059284,0,0,0
67.14,0.048438,1.9834,0.0075355,0.0064382,0,0,0
67.64,0.049271,1.9926,0.0080981,0.0068018,0,0,0
68.14,0.050533,2.0017,0.0085375,0.0072884,0,0,0
68.64,0.051695,2.0104,0.0087447,0.0075921,0,0,0
69.14,0.05378,2.018,0.0091599,0.0079047,0,0,0
69.64,0.055156,2.0256,0.0093363,0.0082945,0,0,0
70.14,0.056737,2.0334,0.0095859,0.0085375,0,0,0
70.64,0.058658,2.041,0.0098018,0.0088904,0,0,0
71.14,0.060608,2.0483,0.010115,0.0089072,0,0,0
71.64,0.062253,2.0554,0.010191,0.0091163,0,0,0
72.14,0.064026,2.0629,0.01047,0.0095928,0,0,0
72.64,0.065651,2.0707,0.010908,0.0098216,0,0,0
73.14,0.067353,2.0787,0.01118,0.010074,0,0,0
73.64,0.0688,2.0857,0.011506,0.010466,0,0,0
74.14,0.070485,2.0923,0.011745,0.010828,0,0,0
74.64,0.072063,2.099,0.012295,0.01119,0,0,0
75.14,0.07356,2.1057,0.012912,0.011519,0,0,0
75.64,0.075548,2.1123,0.013413,0.012077,0,0,0
76.14,0.077522,2.1187,0.013932,0.012637,0,0,0
76.64,0.079355,2.1256,0.014416,0.013264,0,0,0
77.14,0.08153,2.1327,0.014981,0.013743,0,0,0
77.64,0.083508,2.1397,0.015441,0.014214,0,0,0
78.14,0.085727,2.146,0.015685,0.014541,0,0,0
78.64,0.087607,2.152,0.016152,0.015087,0,0,0
79.14,0.08941,2.158,0.016537,0.015378,0,0,0
79.64,0.091233,2.164,0.016779,0.015741,0,0,0
80.14,0.093059,2.1703,0.016835,0.016228,0,0,0
80.64,0.094943,2.1764,0.017271,0.016508,0,0,0
81.14,0.096618,2.1826,0.017716,0.016588,0,0,0
81.64,0.098686,2.189,0.017874,0.017152,0,0,0
82.14,0.10064,2.1957,0.017957,0.017188,0,0,0
82.64,0.1026,2.2017,0.018576,0.017541,0,0,0
83.14,0.10469,2.2073,0.018794,0.017891,0,0,0
83.64,0.10666,2.2127,0.019166,0.018194,0,0,0
84.14,0.10888,2.2183,0.01962,0.01861,0,0,0
84.64,0.11114,2.2243,0.020009,0.018929,0,0,0
85.14,0.11312,2.2304,0.020335,0.019436,0,0,0
85.64,0.11507,2.2363,0.020848,0.019867,0,0,0
86.14,0.11674,2.242,0.021486,0.020302,0,0,0
86.64,0.11875,2.2477,0.021893,0.020762,0,0,0
87.14,0.12073,2.253,0.02231,0.021433,0,0,0
87.64,0.12269,2.2586,0.022777,0.021767,0,0,0
88.14,0.12477,2.2641,0.023236,0.022129,0,0,0
88.64,0.12672,2.2696,0.023429,0.022635,0,0,0
89.14,0.12879,2.275,0.023721,0.022897,0,0,0
89.64,0.13103,2.2807,0.024062,0.02331,0,0,0
90.14,0.13323,2.2863,0.024475,0.023737,0,0,0
90.64,0.13549,2.292,0.024734,0.023957,0,0,0
91.14,0.13776,2.2974,0.025057,0.024124,0,0,0
91.64,0.13968,2.3023,0.025493,0.024638,0,0,0
92.14,0.14186,2.3073,0.025906,0.02491,0,0,0
92.64,0.1438,2.3127,0.02633,0.025313,0,0,0
93.14,0.14572,2.3177,0.026583,0.025617,0,0,0
93.64,0.14769,2.3226,0.02704,0.02616,0,0,0
94.14,0.14985,2.3277,0.027154,0.026588,0,0,0
94.64,0.15213,2.3333,0.027794,0.02702,0,0,0
95.14,0.15423,2.3387,0.02817,0.027301,0,0,0
95.64,0.15643,2.344,0.02859,0.027725,0,0,0
96.14,0.15883,2.3487,0.028936,0.02814,0,0,0
96.64,0.16108,2.3536,0.029311,0.028518,0,0,0
97.14,0.16335,2.3584,0.029778,0.028953,0,0,0
97.64,0.16562,2.3633,0.030062,0.029298,0,0,0
98.14,0.16772,2.368,0.030442,0.029614,0,0,0
98.64,0.16971,2.3727,0.030787,0.030025,0,0,0
99.14,0.17181,2.3776,0.031273,0.030402,0,0,0
99.64,0.17389,2.3827,0.031628,0.030706,0,0,0
100.14,0.17591,2.388,0.031981,0.031054,0,0,0
100.64,0.17807,2.3927,0.032453,0.03145,0,0,0
101.14,0.18028,2.3973,0.032778,0.031854,0,0,0
101.64,0.18269,2.4017,0.033015,0.032336,0,0,0
102.14,0.18501,2.4063,0.033603,0.03264,0,0,0
102.64,0.18738,2.411,0.033651,0.033073,0,0,0
103.14,0.18973,2.4157,0.034226,0.033492,0,0,0
103.64,0.19205,2.42,0.034553,0.033784,0,0,0
104.14,0.19413,2.4246,0.034797,0.034144,0,0,0
104.64,0.19633,2.4294,0.035215,0.034624,0,0,0
105.14,0.1984,2.4343,0.035613,0.03511,0,0,0
105.64,0.20054,2.439,0.03594,0.035447,0,0,0
106.14,0.20257,2.4437,0.036267,0.0357,0,0,0
106.64,0.20502,2.448,0.036834,0.036173,0,0,0
107.14,0.2072,2.452,0.037209,0.036564,0,0,0
107.64,0.20963,2.456,0.037471,0.03696,0,0,0
108.14,0.21173,2.4606,0.037885,0.0373,0,0,0
108.64,0.21408,2.4654,0.03828,0.037662,0,0,0
109.14,0.21637,2.47,0.038709,0.037927,0,0,0
109.64,0.21861,2.474,0.039023,0.03835,0,0,0
110.14,0.22082,2.4783,0.039435,0.038763,0,0,0
110.64,0.22307,2.4827,0.039751,0.039105,0,0,0
111.14,0.22479,2.487,0.040223,0.039409,0,0,0
111.64,0.22719,2.4913,0.04043,0.039735,0,0,0
112.14,0.22938,2.4954,0.04078,0.040225,0,0,0
112.64,0.23142,2.4996,0.040974,0.040538,0,0,0
113.14,0.23338,2.5037,0.041222,0.040996,0,0,0
113.64,0.23583,2.508,0.041731,0.041137,0,0,0
114.14,0.23817,2.512,0.042021,0.04154,0,0,0
114.64,0.24043,2.516,0.042407,0.042074,0,0,0
115.14,0.24269,2.52,0.042739,0.042255,0,0,0
115.64,0.245,2.524,0.043051,0.042754,0,0,0
116.14,0.24721,2.528,0.043362,0.043072,0,0,0
116.64,0.24923,2.532,0.043909,0.043489,0,0,0
117.14,0.25128,2.536,0.04423,0.043844,0,0,0
117.64,0.25332,2.54,0.044423,0.0441,0,0,0
118.14,0.25514,2.544,0.044904,0.044582,0,0,0
118.64,0.25715,2.5477,0.045354,0.044999,0,0,0
119.14,0.25927,2.5516,0.04561,0.045288,0,0,0
119.64,0.26155,2.5554,0.046188,0.045577,0,0,0
120.14,0.26365,2.559,0.046508,0.045737,0,0,0
120.64,0.26597,2.5623,0.046635,0.046315,0,0,0
121.14,0.26811,2.5657,0.047052,0.046699,0,0,0
121.64,0.27015,2.5693,0.047277,0.046924,0,0,0
122.14,0.27216,2.5727,0.047532,0.047179,0,0,0
122.64,0.27382,2.5763,0.047725,0.047564,0,0,0
123.14,0.27601,2.5794,0.048141,0.048044,0,0,0
123.64,0.27792,2.5826,0.048365,0.048108,0,0,0
124.14,0.27966,2.5857,0.048781,0.04862,0,0,0
124.64,0.28105,2.5887,0.049132,0.048907,0,0,0
125.14,0.28282,2.5916,0.049164,0.049291,0,0,0
125.64,0.28464,2.5944,0.049548,0.049451,0,0,0
126.14,0.28639,2.5973,0.049995,0.049738,0,0,0
126.64,0.28797,2.6,0.050219,0.050026,0,0,0
127.14,0.28984,2.6027,0.050442,0.050185,0,0,0
127.64,0.29153,2.6053,0.050634,0.0506,0,0,0
128.14,0.29329,2.608,0.050889,0.051048,0,0,0
128.64,0.295,2.6107,0.051335,0.051111,0,0,0
129.14,0.29632,2.6133,0.051527,0.051462,0,0,0
129.64,0.29794,2.6157,0.051814,0.051621,0,0,0
130.14,0.29935,2.6183,0.051974,0.051781,0,0,0
130.64,0.30085,2.621,0.052069,0.051972,0,0,0
131.14,0.30243,2.6237,0.052516,0.052131,0,0,0
131.64,0.30398,2.6266,0.052516,0.052387,0,0,0
132.14,0.30535,2.6294,0.052674,0.052609,0,0,0
132.64,0.30692,2.6323,0.052706,0.05296,0,0,0
133.14,0.30848,2.6347,0.053089,0.05315,0,0,0
133.64,0.31027,2.6373,0.05328,0.053405,0,0,0
134.14,0.3121,2.64,0.053534,0.053532,0,0,0
134.64,0.31408,2.6427,0.05382,0.053882,0,0,0
135.14,0.31572,2.6453,0.053948,0.053978,0,0,0
135.64,0.31751,2.6477,0.054393,0.054392,0,0,0
136.14,0.31901,2.6503,0.054743,0.054804,0,0,0
136.64,0.32091,2.653,0.054933,0.054868,0,0,0
137.14,0.32252,2.656,0.055378,0.055439,0,0,0
137.64,0.32412,2.6587,0.055506,0.055567,0,0,0
138.14,0.32552,2.661,0.05576,0.055821,0,0,0
138.64,0.32737,2.6633,0.056204,0.056138,0,0,0
139.14,0.32929,2.6657,0.056299,0.056202,0,0,0
139.64,0.33098,2.6683,0.056489,0.056519,0,0,0
140.14,0.33311,2.671,0.056902,0.056741,0,0,0
140.64,0.33531,2.6737,0.057187,0.056995,0,0,0
141.14,0.33702,2.676,0.057377,0.057312,0,0,0
141.64,0.33898,2.6783,0.057694,0.05747,0,0,0
142.14,0.34094,2.6807,0.05779,0.057819,0,0,0
142.64,0.34313,2.683,0.058233,0.058168,0,0,0
143.14,0.34454,2.6853,0.058518,0.05839,0,0,0
143.64,0.34651,2.6877,0.058645,0.058706,0,0,0
144.14,0.34805,2.6903,0.058898,0.059054,0,0,0
144.64,0.35,2.6927,0.05931,0.05937,0,0,0
145.14,0.35193,2.6953,0.059499,0.059719,0,0,0
145.64,0.3536,2.6977,0.059816,0.060003,0,0,0
146.14,0.35561,2.7003,0.060226,0.060256,0,0,0
146.64,0.35735,2.7027,0.060416,0.060477,0,0,0
147.14,0.35935,2.705,0.060827,0.060825,0,0,0
147.64,0.36196,2.7073,0.061206,0.061204,0,0,0
148.14,0.36408,2.71,0.061364,0.061488,0,0,0
148.64,0.36587,2.7127,0.061553,0.061519,0,0,0
149.14,0.36755,2.715,0.061932,0.061898,0,0,0
149.64,0.36948,2.7173,0.062216,0.062088,0,0,0
150.14,0.37107,2.7197,0.062279,0.062245,0,0,0
150.64,0.37317,2.7223,0.062469,0.06253,0,0,0
151.14,0.37489,2.7247,0.062878,0.06275,0,0,0
151.64,0.37682,2.727,0.062973,0.063128,0,0,0
152.14,0.37853,2.7293,0.063287,0.063192,0,0,0
152.64,0.38045,2.7317,0.063477,0.063475,0,0,0
153.14,0.38248,2.7343,0.063698,0.063916,0,0,0
153.64,0.3844,2.7367,0.063855,0.063979,0,0,0
154.14,0.38668,2.7393,0.064169,0.064608,0,0,0
154.64,0.38905,2.7417,0.064516,0.064672,0,0,0
155.14,0.3908,2.744,0.06461,0.065049,0,0,0
155.64,0.39216,2.746,0.06502,0.065175,0,0,0
156.14,0.39403,2.748,0.06524,0.065521,0,0,0
156.64,0.3957,2.7503,0.065585,0.065866,0,0,0
157.14,0.39764,2.753,0.065774,0.066244,0,0,0
157.64,0.39989,2.7557,0.06612,0.066558,0,0,0
158.14,0.40131,2.758,0.066151,0.066589,0,0,0
158.64,0.40301,2.76,0.06656,0.066998,0,0,0
159.14,0.40489,2.7623,0.066812,0.067248,0,0,0
159.64,0.407,2.7647,0.067188,0.067186,0,0,0
160.14,0.40873,2.767,0.067314,0.067657,0,0,0
160.64,0.41115,2.769,0.067659,0.067688,0,0,0
161.14,0.41282,2.7713,0.067941,0.068002,0,0,0
161.64,0.41483,2.7737,0.068192,0.068064,0,0,0
162.14,0.41655,2.776,0.068223,0.068566,0,0,0
162.64,0.4179,2.778,0.06838,0.068629,0,0,0
163.14,0.41957,2.7803,0.068724,0.068849,0,0,0
163.64,0.42186,2.7827,0.069101,0.069099,0,0,0
164.14,0.42341,2.785,0.069101,0.069537,0,0,0
164.64,0.4249,2.7873,0.069351,0.069788,0,0,0
165.14,0.42662,2.7894,0.069602,0.070132,0,0,0
165.64,0.42859,2.7916,0.069884,0.070445,0,0,0
166.14,0.43032,2.7937,0.070166,0.070695,0,0,0
166.64,0.43306,2.796,0.070572,0.071008,0,0,0
167.14,0.43455,2.798,0.070791,0.071321,0,0,0
167.64,0.43661,2.8,0.070916,0.071634,0,0,0
168.14,0.43843,2.802,0.071229,0.071977,0,0,0
168.64,0.44014,2.804,0.071604,0.071946,0,0,0
169.14,0.44187,2.806,0.071917,0.072258,0,0,0
169.64,0.44352,2.808,0.072136,0.072445,0,0,0
170.14,0.4454,2.8103,0.072416,0.072789,0,0,0
170.64,0.44701,2.813,0.072666,0.072946,0,0,0
171.14,0.44888,2.8154,0.072885,0.07307,0,0,0
171.64,0.4507,2.8173,0.073104,0.073257,0,0,0
172.14,0.4525,2.8193,0.07329,0.073631,0,0,0
172.64,0.45466,2.8217,0.073447,0.073725,0,0,0
173.14,0.45675,2.824,0.07354,0.074068,0,0,0
173.64,0.45893,2.826,0.074008,0.074318,0,0,0
174.14,0.46118,2.828,0.074132,0.074504,0,0,0
174.64,0.46277,2.83,0.07432,0.074847,0,0,0
175.14,0.46457,2.832,0.074568,0.075065,0,0,0
175.64,0.46631,2.834,0.074694,0.075283,0,0,0
176.14,0.4681,2.836,0.074974,0.075594,0,0,0
176.64,0.46982,2.838,0.075316,0.075906,0,0,0
177.14,0.47149,2.84,0.075659,0.076248,0,0,0
177.64,0.47334,2.842,0.075877,0.076341,0,0,0
178.14,0.47522,2.844,0.076063,0.076745,0,0,0
178.64,0.47725,2.846,0.076375,0.076901,0,0,0
179.14,0.47897,2.848,0.076624,0.07715,0,0,0
179.64,0.48109,2.8503,0.076966,0.077367,0,0,0
180.14,0.48314,2.8524,0.077183,0.077647,0,0,0
180.64,0.48497,2.8543,0.077401,0.077802,0,0,0
181.14,0.48692,2.8563,0.077836,0.078175,0,0,0
181.64,0.48874,2.8584,0.07765,0.078206,0,0,0
182.14,0.49053,2.8603,0.078146,0.078578,0,0,0
182.64,0.49229,2.862,0.078146,0.078578,0,0,0
183.14,0.49387,2.864,0.078488,0.079044,0,0,0
183.64,0.49557,2.866,0.078705,0.079106,0,0,0
184.14,0.49721,2.868,0.07886,0.079261,0,0,0
184.64,0.49913,2.87,0.079077,0.079664,0,0,0
185.14,0.50097,2.872,0.079171,0.07985,0,0,0
185.64,0.50296,2.874,0.079511,0.080253,0,0,0
186.14,0.50474,2.876,0.079635,0.080408,0,0,0
186.64,0.50676,2.878,0.080101,0.080748,0,0,0
187.14,0.50852,2.88,0.080163,0.080841,0,0,0
187.64,0.51036,2.8817,0.080503,0.081213,0,0,0
188.14,0.51191,2.8833,0.08072,0.081368,0,0,0
188.64,0.51392,2.8853,0.080968,0.081832,0,0,0
189.14,0.51583,2.8874,0.081246,0.081955,0,0,0
189.64,0.5165,2.8893,0.081463,0.082141,0,0,0
190.14,0.51875,2.891,0.081834,0.082543,0,0,0
190.64,0.5203,2.893,0.082051,0.082697,0,0,0
191.14,0.52218,2.895,0.082082,0.082945,0,0,0
191.64,0.52392,2.897,0.082484,0.083037,0,0,0
192.14,0.5258,2.8987,0.082577,0.083408,0,0,0
192.64,0.52789,2.9003,0.082916,0.083655,0,0,0
193.14,0.5298,2.902,0.082979,0.083748,0,0,0
193.64,0.53175,2.904,0.083195,0.084087,0,0,0
194.14,0.53336,2.906,0.083503,0.084396,0,0,0
194.64,0.53517,2.908,0.08372,0.084458,0,0,0
195.14,0.53698,2.91,0.083905,0.084797,0,0,0
195.64,0.53846,2.912,0.08409,0.085074,0,0,0
196.14,0.54051,2.9137,0.084369,0.085383,0,0,0
196.64,0.54175,2.9153,0.084615,0.085599,0,0,0
197.14,0.544,2.917,0.084738,0.085691,0,0,0
197.64,0.54565,2.919,0.085048,0.086184,0,0,0
198.14,0.54746,2.921,0.085355,0.086276,0,0,0
198.64,0.54934,2.9227,0.08551,0.086523,0,0,0
199.14,0.55108,2.9246,0.085972,0.086861,0,0,0
199.64,0.553,2.9267,0.08591,0.087169,0,0,0
200.14,0.55528,2.9287,0.086311,0.087415,0,0,0
200.64,0.55706,2.9303,0.086495,0.087631,0,0,0
201.14,0.55884,2.9317,0.086773,0.087815,0,0,0
201.64,0.56052,2.9333,0.08705,0.088245,0,0,0
202.14,0.56246,2.935,0.087295,0.088245,0,0,0
202.64,0.56414,2.937,0.087419,0.088675,0,0,0
203.14,0.56555,2.9387,0.087572,0.088707,0,0,0
203.64,0.56727,2.9403,0.08785,0.088952,0,0,0
204.14,0.56881,2.942,0.088065,0.089106,0,0,0
204.64,0.57069,2.944,0.088156,0.089413,0,0,0
205.14,0.57254,2.946,0.088526,0.089689,0,0,0
205.64,0.57452,2.948,0.08874,0.090057,0,0,0
206.14,0.57647,2.95,0.089049,0.090363,0,0,0
206.64,0.57834,2.9517,0.089416,0.090456,0,0,0
207.14,0.58009,2.9533,0.089539,0.090763,0,0,0
207.64,0.58187,2.955,0.089815,0.0911,0,0,0
208.14,0.58368,2.957,0.090214,0.091192,0,0,0
208.64,0.58536,2.9587,0.090276,0.09159,0,0,0
209.14,0.58691,2.9603,0.09049,0.091774,0,0,0
209.64,0.58855,2.9617,0.090858,0.092111,0,0,0
210.14,0.58993,2.9633,0.090858,0.092325,0,0,0
210.64,0.59174,2.965,0.091257,0.092294,0,0,0
211.14,0.59369,2.967,0.091502,0.092661,0,0,0
211.64,0.59527,2.9687,0.091778,0.092906,0,0,0
212.14,0.59704,2.9703,0.09187,0.092998,0,0,0
212.64,0.59913,2.972,0.092053,0.093427,0,0,0
213.14,0.60097,2.974,0.092359,0.09358,0,0,0
213.64,0.60279,2.9757,0.092696,0.093824,0,0,0
214.14,0.60483,2.9773,0.092665,0.094221,0,0,0
214.64,0.60675,2.9787,0.092971,0.094404,0,0,0
215.14,0.60842,2.9803,0.093216,0.094679,0,0,0
215.64,0.61024,2.982,0.09343,0.094985,0,0,0
216.14,0.61158,2.984,0.093858,0.095198,0,0,0
216.64,0.61329,2.986,0.094072,0.095473,0,0,0
217.14,0.61507,2.9877,0.094194,0.095808,0,0,0
217.64,0.61705,2.9893,0.094347,0.0959,0,0,0
218.14,0.61873,2.991,0.094806,0.096174,0,0,0
218.64,0.62048,2.993,0.094866,0.096509,0,0,0
219.14,0.62229,2.9947,0.095233,0.096601,0,0,0
219.64,0.6243,2.9963,0.095447,0.096967,0,0,0
220.14,0.62618,2.998,0.095812,0.097241,0,0,0
220.64,0.6281,2.9997,0.095904,0.097333,0,0,0
221.14,0.63001,3.0013,0.096148,0.097698,0,0,0
221.64,0.63142,3.003,0.096453,0.097728,0,0,0
222.14,0.63334,3.0047,0.096605,0.098002,0,0,0
222.64,0.63511,3.0063,0.096818,0.098216,0,0,0
223.14,0.63696,3.008,0.097062,0.09849,0,0,0
223.64,0.63864,3.0097,0.097336,0.098824,0,0,0
224.14,0.64052,3.0113,0.097366,0.099006,0,0,0
224.64,0.64216,3.013,0.097641,0.099371,0,0,0
225.14,0.64415,3.0147,0.097884,0.099675,0,0,0
225.64,0.64609,3.016,0.098127,0.099827,0,0,0
226.14,0.64814,3.0176,0.09831,0.10013,0,0,0
226.64,0.64985,3.0194,0.098615,0.10047,0,0,0
227.14,0.65156,3.0213,0.098888,0.10065,0,0,0
227.64,0.65318,3.0227,0.09901,0.10089,0,0,0
228.14,0.65519,3.0243,0.099283,0.10113,0,0,0
228.64,0.65687,3.026,0.099649,0.10134,0,0,0
229.14,0.65845,3.0277,0.099831,0.10162,0,0,0
229.64,0.65999,3.0293,0.10013,0.10186,0,0,0
230.14,0.66164,3.0307,0.10053,0.10207,0,0,0
230.64,0.66348,3.0326,0.10083,0.10219,0,0,0
231.14,0.66536,3.0344,0.10098,0.10247,0,0,0
231.64,0.66704,3.0363,0.10123,0.10274,0,0,0
232.14,0.66889,3.0377,0.10144,0.1028,0,0,0
232.64,0.67104,3.0393,0.10171,0.10332,0,0,0
233.14,0.67275,3.0407,0.1018,0.10344,0,0,0
233.64,0.67443,3.0423,0.10196,0.10374,0,0,0
234.14,0.67654,3.044,0.10214,0.10419,0,0,0
234.64,0.67812,3.0457,0.10247,0.10428,0,0,0
235.14,0.6799,3.0473,0.10262,0.10465,0,0,0
235.64,0.68154,3.049,0.10293,0.10486,0,0,0
236.14,0.68322,3.0507,0.10305,0.10504,0,0,0
236.64,0.68487,3.0523,0.10332,0.10549,0,0,0
237.14,0.68688,3.0537,0.10368,0.10552,0,0,0
237.64,0.68863,3.0553,0.10389,0.10592,0,0,0
238.14,0.69044,3.057,0.10408,0.1061,0,0,0
238.64,0.69219,3.0587,0.10447,0.10619,0,0,0
239.14,0.6942,3.06,0.10474,0.10643,0,0,0
239.64,0.69632,3.0616,0.10498,0.10697,0,0,0
240.14,0.69816,3.0634,0.10528,0.107,0,0,0
240.64,0.69984,3.0653,0.10562,0.10709,0,0,0
241.14,0.70169,3.0667,0.10595,0.10739,0,0,0
241.64,0.7034,3.068,0.10622,0.10763,0,0,0
242.14,0.70518,3.0696,0.10649,0.10806,0,0,0
242.64,0.70699,3.0714,0.10667,0.10818,0,0,0
243.14,0.70881,3.0733,0.10682,0.10845,0,0,0
243.64,0.71052,3.0747,0.10704,0.10875,0,0,0
244.14,0.71233,3.0763,0.10716,0.10911,0,0,0
244.64,0.71424,3.0777,0.10752,0.10941,0,0,0
245.14,0.71639,3.0793,0.10767,0.10983,0,0,0
245.64,0.71814,3.0807,0.10773,0.11004,0,0,0
246.14,0.72002,3.0823,0.10782,0.11019,0,0,0
246.64,0.72203,3.084,0.1083,0.11046,0,0,0
247.14,0.72371,3.0857,0.10866,0.11092,0,0,0
247.64,0.72546,3.0873,0.10872,0.11095,0,0,0
248.14,0.7275,3.0887,0.10902,0.11116,0,0,0
248.64,0.72905,3.0903,0.10942,0.11149,0,0,0
249.14,0.73063,3.0917,0.10981,0.11188,0,0,0
249.64,0.73237,3.0933,0.11008,0.11194,0,0,0
250.14,0.73405,3.0947,0.11038,0.11218,0,0,0
250.64,0.73586,3.0963,0.11056,0.11245,0,0,0
251.14,0.73761,3.098,0.1108,0.1126,0,0,0
251.64,0.73966,3.0997,0.1111,0.11281,0,0,0
252.14,0.7414,3.1013,0.1114,0.11326,0,0,0
252.64,0.74342,3.1027,0.11167,0.1135,0,0,0
253.14,0.74503,3.1043,0.112,0.11383,0,0,0
253.64,0.74708,3.106,0.11209,0.11398,0,0,0
254.14,0.74872,3.1077,0.1123,0.1143,0,0,0
254.64,0.7505,3.109,0.1126,0.11445,0,0,0
255.14,0.75208,3.11,0.11275,0.11475,0,0,0
255.64,0.75399,3.1113,0.1129,0.11508,0,0,0
256.14,0.7554,3.113,0.11329,0.11535,0,0,0
256.64,0.75728,3.115,0.11353,0.11556,0,0,0
257.14,0.75856,3.1167,0.11368,0.11583,0,0,0
257.64,0.76081,3.1183,0.11398,0.11619,0,0,0
258.14,0.76265,3.1197,0.11425,0.11619,0,0,0
258.64,0.76477,3.1213,0.11449,0.11655,0,0,0
259.14,0.76648,3.123,0.11473,0.117,0,0,0
259.64,0.76829,3.1247,0.11509,0.11712,0,0,0
260.14,0.77018,3.126,0.11512,0.11733,0,0,0
260.64,0.77195,3.127,0.11566,0.11774,0,0,0
261.14,0.77384,3.1283,0.11584,0.11798,0,0,0
261.64,0.77545,3.13,0.11607,0.11816,0,0,0
262.14,0.77719,3.1317,0.11634,0.11837,0,0,0
262.64,0.779,3.1333,0.11667,0.11861,0,0,0
263.14,0.78062,3.1347,0.11682,0.11903,0,0,0
263.64,0.78233,3.136,0.11712,0.11932,0,0,0
264.14,0.78428,3.1373,0.1173,0.11947,0,0,0
264.64,0.78619,3.139,0.11766,0.11968,0,0,0
265.14,0.7883,3.141,0.11793,0.11995,0,0,0
265.64,0.79015,3.1427,0.11823,0.12028,0,0,0
266.14,0.79186,3.144,0.11843,0.12046,0,0,0
266.64,0.79381,3.1453,0.11882,0.12078,0,0,0
267.14,0.79586,3.147,0.11888,0.12123,0,0,0
267.64,0.7974,3.1487,0.11927,0.12147,0,0,0
268.14,0.79915,3.15,0.11939,0.12153,0,0,0
268.64,0.80079,3.151,0.1196,0.12206,0,0,0
269.14,0.80264,3.1523,0.11992,0.12236,0,0,0
269.64,0.80452,3.154,0.1201,0.12263,0,0,0
270.14,0.8063,3.156,0.12028,0.12286,0,0,0
270.64,0.80828,3.1574,0.12064,0.1234,0,0,0
271.14,0.80996,3.1586,0.12088,0.12349,0,0,0
271.64,0.8118,3.1597,0.12106,0.12387,0,0,0
272.14,0.81365,3.1613,0.12135,0.12414,0,0,0
272.64,0.8156,3.1627,0.12174,0.12417,0,0,0
273.14,0.81741,3.1643,0.12201,0.12461,0,0,0
273.64,0.81932,3.1657,0.12236,0.1247,0,0,0
274.14,0.8209,3.167,0.12254,0.125,0,0,0
274.64,0.82255,3.1683,0.1229,0.12521,0,0,0
275.14,0.82439,3.1697,0.12308,0.12532,0,0,0
275.64,0.82577,3.1713,0.12349,0.12565,0,0,0
276.14,0.82762,3.173,0.12382,0.12595,0,0,0
276.64,0.82946,3.1747,0.12414,0.12612,0,0,0
277.14,0.83138,3.176,0.12417,0.12657,0,0,0
277.64,0.83312,3.1773,0.12447,0.1268,0,0,0
278.14,0.83507,3.179,0.12477,0.12716,0,0,0
278.64,0.83675,3.1807,0.12488,0.12734,0,0,0
279.14,0.83883,3.182,0.1253,0.12769,0,0,0
279.64,0.84044,3.1833,0.12536,0.1281,0,0,0
280.14,0.84232,3.1847,0.1256,0.12843,0,0,0
280.64,0.844,3.1863,0.12574,0.12869,0,0,0
281.14,0.84595,3.1877,0.12598,0.1292,0,0,0
281.64,0.84763,3.189,0.12628,0.1294,0,0,0
282.14,0.8494,3.1903,0.12669,0.12937,0,0,0
282.64,0.85118,3.192,0.12702,0.12979,0,0,0
283.14,0.8531,3.1937,0.12716,0.13029,0,0,0
283.64,0.85501,3.195,0.12746,0.13032,0,0,0
284.14,0.85676,3.1963,0.12802,0.13052,0,0,0
284.64,0.85867,3.1977,0.12841,0.13088,0,0,0
285.14,0.86072,3.199,0.12864,0.13105,0,0,0
285.64,0.8624,3.2003,0.12876,0.13126,0,0,0
286.14,0.86445,3.2017,0.129,0.13155,0,0,0
286.64,0.86626,3.203,0.12935,0.13188,0,0,0
287.14,0.86817,3.2043,0.12956,0.13205,0,0,0
287.64,0.86982,3.206,0.12985,0.13244,0,0,0
288.14,0.87166,3.2077,0.13009,0.13267,0,0,0
288.64,0.87344,3.209,0.13035,0.13308,0,0,0
289.14,0.87522,3.2103,0.13071,0.13332,0,0,0
289.64,0.87704,3.2117,0.13062,0.13379,0,0,0
290.14,0.87881,3.213,0.131,0.13399,0,0,0
290.64,0.88086,3.2143,0.13124,0.13446,0,0,0
291.14,0.88271,3.2157,0.13153,0.13455,0,0,0
291.64,0.88445,3.2173,0.13165,0.13473,0,0,0
292.14,0.88643,3.2187,0.13212,0.13517,0,0,0
292.64,0.88835,3.2203,0.13238,0.13537,0,0,0
293.14,0.8904,3.2217,0.1328,0.13575,0,0,0
293.64,0.89207,3.2233,0.13306,0.1359,0,0,0
294.14,0.89409,3.2247,0.13327,0.13616,0,0,0
294.64,0.89553,3.226,0.13365,0.1364,0,0,0
295.14,0.89721,3.227,0.13382,0.13687,0,0,0
295.64,0.89919,3.228,0.13397,0.1371,0,0,0
296.14,0.9007,3.2293,0.13418,0.13739,0,0,0
296.64,0.90255,3.231,0.1345,0.13769,0,0,0
297.14,0.90443,3.2327,0.13482,0.13801,0,0,0
297.64,0.90628,3.234,0.13514,0.13827,0,0,0
298.14,0.90802,3.235,0.1352,0.13854,0,0,0
298.64,0.90994,3.2363,0.13555,0.13883,0,0,0
299.14,0.91205,3.2377,0.13579,0.13886,0,0,0
299.64,0.91366,3.2393,0.13617,0.1395,0,0,0
300.14,0.91541,3.2407,0.13643,0.13953,0,0,0
300.64,0.91709,3.242,0.13676,0.13985,0,0,0
301.14,0.9189,3.2433,0.13714,0.13973,0,0,0
301.64,0.92038,3.2447,0.13725,0.14026,0,0,0
302.14,0.92232,3.2463,0.13755,0.14046,0,0,0
302.64,0.92397,3.2477,0.13778,0.14099,0,0,0
303.14,0.92568,3.249,0.13813,0.14113,0,0,0
303.64,0.92766,3.25,0.13851,0.1414,0,0,0
304.14,0.92961,3.2513,0.13886,0.14189,0,0,0
304.64,0.93132,3.2527,0.13904,0.14227,0,0,0
305.14,0.93347,3.2543,0.13936,0.1425,0,0,0
305.64,0.93538,3.2557,0.13927,0.14291,0,0,0
306.14,0.93683,3.257,0.13971,0.14317,0,0,0
306.64,0.93861,3.258,0.13985,0.14375,0,0,0
307.14,0.94012,3.2593,0.14023,0.14378,0,0,0
307.64,0.9422,3.2607,0.14056,0.1439,0,0,0
308.14,0.94394,3.262,0.14079,0.14433,0,0,0
308.64,0.94596,3.2633,0.14108,0.14457,0,0,0
309.14,0.94737,3.2647,0.14123,0.14474,0,0,0
309.64,0.94911,3.2663,0.14158,0.14497,0,0,0
310.14,0.95133,3.2677,0.14178,0.14535,0,0,0
310.64,0.95314,3.2693,0.14213,0.14538,0,0,0
311.14,0.95516,3.2707,0.1426,0.1455,0,0,0
311.64,0.957,3.272,0.14286,0.14605,0,0,0
312.14,0.95902,3.273,0.14303,0.14634,0,0,0
312.64,0.9607,3.274,0.14341,0.14657,0,0,0
313.14,0.96264,3.2753,0.14388,0.14706,0,0,0
313.64,0.96429,3.2767,0.14393,0.14735,0,0,0
314.14,0.96603,3.2783,0.14428,0.14755,0,0,0
314.64,0.96768,3.2797,0.14454,0.14805,0,0,0
315.14,0.96953,3.281,0.14472,0.14845,0,0,0
315.64,0.97127,3.2823,0.14498,0.14883,0,0,0
316.14,0.97312,3.2837,0.1455,0.14918,0,0,0
316.64,0.97503,3.285,0.14556,0.14929,0,0,0
317.14,0.97678,3.286,0.14579,0.14975,0,0,0
317.64,0.97903,3.2873,0.14614,0.15004,0,0,0
318.14,0.98067,3.2887,0.1464,0.15027,0,0,0
318.64,0.98259,3.29,0.14663,0.15071,0,0,0
319.14,0.98443,3.291,0.14701,0.15082,0,0,0
319.64,0.98635,3.2923,0.14724,0.15114,0,0,0
320.14,0.98782,3.2937,0.1475,0.15131,0,0,0
320.64,0.98943,3.295,0.14785,0.15178,0,0,0
321.14,0.99142,3.2963,0.14831,0.15215,0,0,0
321.64,0.99299,3.2974,0.14846,0.15227,0,0,0
322.14,0.99487,3.2986,0.14884,0.1527,0,0,0
322.64,0.99669,3.3,0.1493,0.15287,0,0,0
323.14,0.99843,3.3017,0.14962,0.15319,0,0,0
323.64,1.0002,3.303,0.14967,0.15345,0,0,0
324.14,1.0022,3.3043,0.15008,0.15385,0,0,0
324.64,1.0041,3.3054,0.1504,0.15425,0,0,0
325.14,1.006,3.3066,0.15063,0.15454,0,0,0
325.64,1.0076,3.3077,0.15083,0.15466,0,0,0
326.14,1.0096,3.3093,0.15132,0.15494,0,0,0
326.64,1.0113,3.3107,0.15135,0.15546,0,0,0
327.14,1.0132,3.312,0.15187,0.15566,0,0,0
327.64,1.015,3.3133,0.1521,0.15595,0,0,0
328.14,1.0167,3.3147,0.15233,0.15621,0,0,0
328.64,1.0185,3.316,0.15273,0.15647,0,0,0
329.14,1.0204,3.317,0.15302,0.15672,0,0,0
329.64,1.022,3.318,0.15337,0.15736,0,0,0
330.14,1.0242,3.319,0.15354,0.15753,0,0,0
330.64,1.026,3.3203,0.15397,0.1581,0,0,0
331.14,1.0279,3.3217,0.15423,0.15853,0,0,0
331.64,1.0296,3.323,0.15472,0.15862,0,0,0
332.14,1.0316,3.324,0.15486,0.15893,0,0,0
332.64,1.0331,3.3253,0.15538,0.15953,0,0,0
333.14,1.0351,3.3267,0.15547,0.15953,0,0,0
333.64,1.0368,3.328,0.15573,0.15976,0,0,0
334.14,1.0384,3.3293,0.1561,0.15999,0,0,0
334.64,1.0404,3.3307,0.15644,0.16039,0,0,0
335.14,1.0421,3.332,0.15682,0.16042,0,0,0
335.64,1.0438,3.333,0.15696,0.16085,0,0,0
336.14,1.046,3.3343,0.15731,0.16099,0,0,0
336.64,1.0477,3.3357,0.15759,0.16122,0,0,0
337.14,1.0497,3.337,0.15779,0.16159,0,0,0
337.64,1.0514,3.338,0.15819,0.16193,0,0,0
338.14,1.053,3.339,0.15877,0.16222,0,0,0
338.64,1.0548,3.34,0.15888,0.16253,0,0,0
339.14,1.0568,3.3413,0.15914,0.16308,0,0,0
339.64,1.0585,3.3427,0.15951,0.16356,0,0,0
340.14,1.0602,3.344,0.15977,0.1637,0,0,0
340.64,1.0621,3.3453,0.15991,0.16433,0,0,0
341.14,1.0637,3.3464,0.16043,0.16484,0,0,0
341.64,1.0655,3.3476,0.16077,0.16493,0,0,0
342.14,1.0672,3.3487,0.16086,0.16521,0,0,0
342.64,1.069,3.35,0.16117,0.16558,0,0,0
343.14,1.0707,3.351,0.16157,0.16595,0,0,0
343.64,1.0728,3.3523,0.1618,0.16621,0,0,0
344.14,1.0744,3.3537,0.16214,0.16644,0,0,0
344.64,1.0762,3.355,0.16243,0.16669,0,0,0
345.14,1.0779,3.356,0.16274,0.16692,0,0,0
345.64,1.0798,3.357,0.163,0.16712,0,0,0
346.14,1.0817,3.358,0.16345,0.16751,0,0,0
346.64,1.0832,3.359,0.16357,0.16771,0,0,0
347.14,1.0851,3.3603,0.16394,0.16797,0,0,0
347.64,1.0867,3.362,0.16431,0.16845,0,0,0
348.14,1.0886,3.3634,0.16462,0.16859,0,0,0
348.64,1.0904,3.3646,0.16482,0.1691,0,0,0
349.14,1.0921,3.3654,0.16522,0.16961,0,0,0
349.64,1.0941,3.3666,0.16545,0.17007,0,0,0
350.14,1.0957,3.3677,0.16576,0.17024,0,0,0
350.64,1.0979,3.3693,0.16624,0.17061,0,0,0
351.14,1.0997,3.3707,0.16644,0.17083,0,0,0
351.64,1.1016,3.372,0.16687,0.17126,0,0,0
352.14,1.1035,3.373,0.16707,0.17165,0,0,0
352.64,1.1052,3.3743,0.16752,0.17205,0,0,0
353.14,1.1068,3.3754,0.16772,0.17193,0,0,0
353.64,1.1086,3.3763,0.16812,0.17267,0,0,0
354.14,1.1103,3.3773,0.16843,0.1729,0,0,0
354.64,1.1123,3.3787,0.16877,0.17321,0,0,0
355.14,1.1141,3.38,0.1692,0.17363,0,0,0
355.64,1.1161,3.381,0.16942,0.174,0,0,0
356.14,1.1181,3.382,0.16979,0.17411,0,0,0
356.64,1.1197,3.383,0.1701,0.1745,0,0,0
357.14,1.1216,3.384,0.17042,0.17501,0,0,0
357.64,1.1235,3.385,0.17075,0.17527,0,0,0
358.14,1.1252,3.3863,0.17104,0.17572,0,0,0
358.64,1.1272,3.3877,0.17138,0.176,0,0,0
359.14,1.1289,3.389,0.1716,0.17645,0,0,0
359.64,1.1307,3.39,0.17189,0.1765,0,0,0
360.14,1.1324,3.391,0.17222,0.17693,0,0,0
360.64,1.1342,3.3923,0.17239,0.17715,0,0,0
361.14,1.1358,3.3937,0.1729,0.17757,0,0,0
361.64,1.1378,3.395,0.17327,0.17783,0,0,0
362.14,1.1395,3.396,0.17369,0.17822,0,0,0
362.64,1.1413,3.397,0.17403,0.17861,0,0,0
363.14,1.1433,3.398,0.1742,0.17886,0,0,0
363.64,1.145,3.3993,0.17465,0.17931,0,0,0
364.14,1.147,3.4007,0.1751,0.17962,0,0,0
364.64,1.1487,3.4017,0.17539,0.18016,0,0,0
365.14,1.1507,3.4023,0.17567,0.18041,0,0,0
365.64,1.1526,3.403,0.17612,0.18077,0,0,0
366.14,1.1542,3.4043,0.17631,0.18125,0,0,0
366.64,1.1554,3.4057,0.17671,0.18139,0,0,0
367.14,1.1572,3.407,0.1771,0.18178,0,0,0
367.64,1.1594,3.408,0.17733,0.18203,0,0,0
368.14,1.1612,3.409,0.17764,0.18251,0,0,0
368.64,1.163,3.4103,0.17778,0.18282,0,0,0
369.14,1.1647,3.4117,0.17825,0.18329,0,0,0
369.64,1.1667,3.413,0.17845,0.18335,0,0,0
370.14,1.1684,3.414,0.17887,0.18365,0,0,0
370.64,1.1702,3.415,0.17915,0.18418,0,0,0
371.14,1.172,3.416,0.17946,0.18452,0,0,0
371.64,1.174,3.4173,0.18008,0.18477,0,0,0
372.14,1.1759,3.4187,0.18033,0.18513,0,0,0
372.64,1.1774,3.42,0.1807,0.18552,0,0,0
373.14,1.1791,3.421,0.18095,0.18614,0,0,0
373.64,1.1811,3.4217,0.18134,0.18636,0,0,0
374.14,1.1829,3.4226,0.18165,0.18653,0,0,0
374.64,1.1847,3.4237,0.18201,0.18695,0,0,0
375.14,1.1864,3.425,0.18257,0.18725,0,0,0
375.64,1.1882,3.426,0.18274,0.18761,0,0,0
376.14,1.1905,3.427,0.18308,0.18803,0,0,0
376.64,1.1919,3.428,0.18321,0.18825,0,0,0
377.14,1.194,3.4293,0.18372,0.18856,0,0,0
377.64,1.1956,3.4307,0.1838,0.18892,0,0,0
378.14,1.1975,3.432,0.18425,0.18903,0,0,0
378.64,1.1991,3.433,0.1845,0.1895,0,0,0
379.14,1.2011,3.434,0.18478,0.19,0,0,0
379.64,1.2027,3.435,0.18509,0.19042,0,0,0
380.14,1.2046,3.436,0.18556,0.19075,0,0,0
380.64,1.2063,3.437,0.18598,0.19103,0,0,0
381.14,1.2079,3.438,0.18623,0.19159,0,0,0
381.64,1.2097,3.439,0.18651,0.19203,0,0,0
382.14,1.2116,3.44,0.18698,0.19225,0,0,0
382.64,1.2133,3.441,0.18726,0.19269,0,0,0
383.14,1.2151,3.442,0.18757,0.19322,0,0,0
383.64,1.2173,3.4433,0.18796,0.19339,0,0,0
384.14,1.2188,3.4444,0.18826,0.19352,0,0,0
384.64,1.2207,3.4456,0.1886,0.19405,0,0,0
385.14,1.2223,3.4467,0.18915,0.19441,0,0,0
385.64,1.224,3.448,0.18904,0.19471,0,0,0
386.14,1.2256,3.449,0.18951,0.19507,0,0,0
386.64,1.2275,3.45,0.19004,0.19546,0,0,0
387.14,1.2293,3.451,0.19018,0.19579,0,0,0
387.64,1.2312,3.452,0.19035,0.19607,0,0,0
388.14,1.233,3.453,0.19098,0.19653,0,0,0
388.64,1.2349,3.454,0.19115,0.19681,0,0,0
389.14,1.2366,3.455,0.19137,0.19703,0,0,0
389.64,1.2385,3.456,0.19187,0.19742,0,0,0
390.14,1.2404,3.4573,0.19229,0.19794,0,0,0
390.64,1.2423,3.4584,0.19273,0.19835,0,0,0
391.14,1.244,3.4593,0.1932,0.19866,0,0,0
391.64,1.2458,3.46,0.19337,0.19923,0,0,0
392.14,1.2475,3.461,0.19389,0.19956,0,0,0
392.64,1.2493,3.462,0.19425,0.19984,0,0,0
393.14,1.2511,3.463,0.19447,0.2002,0,0,0
393.64,1.2527,3.464,0.19486,0.20075,0,0,0
394.14,1.2545,3.4653,0.19505,0.20086,0,0,0
394.64,1.2568,3.4667,0.19541,0.2014,0,0,0
395.14,1.2585,3.468,0.1958,0.20171,0,0,0
395.64,1.2603,3.469,0.19613,0.20209,0,0,0
396.14,1.262,3.47,0.1963,0.20253,0,0,0
396.64,1.2641,3.471,0.19668,0.20302,0,0,0
397.14,1.2661,3.472,0.19704,0.20365,0,0,0
397.64,1.2678,3.473,0.19751,0.20404,0,0,0
398.14,1.2696,3.474,0.19789,0.20417,0,0,0
398.64,1.2713,3.475,0.19814,0.20458,0,0,0
399.14,1.2732,3.476,0.19872,0.20491,0,0,0
399.64,1.275,3.477,0.19908,0.20535,0,0,0
400.14,1.2771,3.478,0.19944,0.20576,0,0,0
400.64,1.2789,3.479,0.19993,0.20625,0,0,0
401.14,1.2805,3.48,0.20023,0.2065,0,0,0
401.64,1.2824,3.481,0.20053,0.20671,0,0,0
402.14,1.2845,3.482,0.20114,0.20704,0,0,0
402.64,1.2863,3.483,0.20147,0.20751,0,0,0
403.14,1.2882,3.484,0.20193,0.20792,0,0,0
403.64,1.2899,3.485,0.2021,0.20841,0,0,0
404.14,1.2918,3.486,0.2027,0.20892,0,0,0
404.64,1.2937,3.487,0.20295,0.20928,0,0,0
405.14,1.2953,3.488,0.20344,0.20993,0,0,0
405.64,1.2973,3.489,0.20377,0.21026,0,0,0
406.14,1.2992,3.49,0.20396,0.21078,0,0,0
406.64,1.3008,3.491,0.2044,0.21129,0,0,0
407.14,1.3027,3.492,0.20489,0.21159,0,0,0
407.64,1.3046,3.493,0.20508,0.21194,0,0,0
408.14,1.3065,3.494,0.20544,0.21235,0,0,0
408.64,1.3082,3.495,0.20588,0.2127,0,0,0
409.14,1.3101,3.4963,0.20629,0.213,0,0,0
409.64,1.312,3.4977,0.20656,0.21341,0,0,0
410.14,1.3141,3.4987,0.20689,0.21376,0,0,0
410.64,1.3158,3.4993,0.20735,0.21406,0,0,0
411.14,1.3177,3.5,0.20776,0.21493,0,0,0
411.64,1.3194,3.501,0.20825,0.21498,0,0,0
412.14,1.3214,3.502,0.20861,0.21536,0,0,0
412.64,1.3232,3.5033,0.20912,0.2159,0,0,0
413.14,1.3249,3.5044,0.20931,0.21636,0,0,0
413.64,1.3267,3.5053,0.2098,0.21696,0,0,0
414.14,1.3286,3.506,0.21021,0.21701,0,0,0
414.64,1.3307,3.507,0.21054,0.21744,0,0,0
415.14,1.3323,3.508,0.21116,0.21795,0,0,0
415.64,1.3345,3.509,0.21152,0.21828,0,0,0
416.14,1.3362,3.51,0.21195,0.21863,0,0,0
416.64,1.3379,3.511,0.21228,0.21909,0,0,0
417.14,1.34,3.512,0.21274,0.21944,0,0,0
417.64,1.3419,3.513,0.2132,0.2196,0,0,0
418.14,1.3435,3.514,0.21369,0.22001,0,0,0
418.64,1.3454,3.515,0.21388,0.22054,0,0,0
419.14,1.3473,3.516,0.21461,0.22122,0,0,0
419.64,1.3492,3.517,0.21467,0.22175,0,0,0
420.14,1.3511,3.518,0.2148,0.222,0,0,0
420.64,1.3531,3.519,0.21534,0.22264,0,0,0
421.14,1.3547,3.52,0.21572,0.22304,0,0,0
421.64,1.3567,3.521,0.21605,0.22377,0,0,0
422.14,1.3586,3.522,0.21651,0.22415,0,0,0
422.64,1.3604,3.523,0.21683,0.22449,0,0,0
423.14,1.3625,3.524,0.21729,0.22492,0,0,0
423.64,1.3644,3.525,0.21767,0.22533,0,0,0
424.14,1.3661,3.526,0.21796,0.2257,0,0,0
424.64,1.3678,3.5267,0.21845,0.22602,0,0,0
425.14,1.3698,3.5273,0.21883,0.22626,0,0,0
425.64,1.3713,3.5283,0.21939,0.22669,0,0,0
426.14,1.3734,3.5294,0.21953,0.22715,0,0,0
426.64,1.3749,3.5303,0.22018,0.22749,0,0,0
427.14,1.3773,3.531,0.22085,0.22763,0,0,0
427.64,1.3789,3.532,0.22096,0.22827,0,0,0
428.14,1.3807,3.533,0.22147,0.2288,0,0,0
428.64,1.3825,3.5343,0.22176,0.22934,0,0,0
429.14,1.3845,3.5354,0.22228,0.22987,0,0,0
429.64,1.3862,3.5363,0.22265,0.2304,0,0,0
430.14,1.3881,3.537,0.22311,0.23083,0,0,0
430.64,1.3902,3.5383,0.2237,0.23139,0,0,0
431.14,1.3919,3.5394,0.22394,0.23182,0,0,0
431.64,1.3939,3.5403,0.2244,0.23235,0,0,0
432.14,1.3958,3.541,0.22458,0.23269,0,0,0
432.64,1.3973,3.542,0.22501,0.23323,0,0,0
433.14,1.3993,3.543,0.22533,0.23357,0,0,0
433.64,1.4013,3.544,0.22595,0.23384,0,0,0
434.14,1.4034,3.545,0.22608,0.23426,0,0,0
434.64,1.4052,3.546,0.22646,0.2344,0,0,0
435.14,1.407,3.5467,0.22694,0.23493,0,0,0
435.64,1.4089,3.5473,0.22753,0.2353,0,0,0
436.14,1.4109,3.548,0.22798,0.23586,0,0,0
436.64,1.4128,3.549,0.22833,0.23657,0,0,0
437.14,1.4146,3.55,0.22873,0.23715,0,0,0
437.64,1.4164,3.551,0.22929,0.23766,0,0,0
438.14,1.4183,3.552,0.22991,0.23805,0,0,0
438.64,1.4202,3.553,0.23028,0.23882,0,0,0
439.14,1.4222,3.554,0.23084,0.2394,0,0,0
439.64,1.4241,3.555,0.23121,0.2398,0,0,0
440.14,1.426,3.556,0.23175,0.24012,0,0,0
440.64,1.428,3.5567,0.23236,0.24064,0,0,0
441.14,1.4299,3.5573,0.23276,0.24099,0,0,0
441.64,1.4317,3.558,0.23313,0.24125,0,0,0
442.14,1.4335,3.559,0.23356,0.2417,0,0,0
442.64,1.4358,3.56,0.23398,0.24233,0,0,0
443.14,1.4374,3.561,0.23446,0.24257,0,0,0
443.64,1.4395,3.562,0.23488,0.24323,0,0,0
444.14,1.4413,3.563,0.23526,0.24354,0,0,0
444.64,1.4434,3.564,0.23573,0.24407,0,0,0
445.14,1.4451,3.565,0.23621,0.24459,0,0,0
445.64,1.4472,3.5657,0.23671,0.2453,0,0,0
446.14,1.4492,3.5663,0.23711,0.24601,0,0,0
446.64,1.451,3.567,0.23775,0.2467,0,0,0
447.14,1.4528,3.568,0.23814,0.24725,0,0,0
447.64,1.455,3.569,0.23849,0.24759,0,0,0
448.14,1.4569,3.57,0.23909,0.24824,0,0,0
448.64,1.4588,3.571,0.23944,0.24858,0,0,0
449.14,1.4606,3.5717,0.23989,0.24921,0,0,0
449.64,1.4626,3.5723,0.24044,0.24966,0,0,0
450.14,1.4644,3.573,0.24076,0.24989,0,0,0
450.64,1.4663,3.574,0.24126,0.25034,0,0,0
451.14,1.4682,3.575,0.24166,0.25083,0,0,0
451.64,1.4701,3.576,0.24226,0.25143,0,0,0
452.14,1.4717,3.577,0.24258,0.25195,0,0,0
452.64,1.4738,3.578,0.24318,0.25237,0,0,0
453.14,1.4756,3.579,0.24371,0.25292,0,0,0
453.64,1.4776,3.58,0.24405,0.25357,0,0,0
454.14,1.4799,3.581,0.24471,0.25433,0,0,0
454.64,1.4816,3.582,0.24521,0.25459,0,0,0
455.14,1.4836,3.5827,0.24555,0.25513,0,0,0
455.64,1.4855,3.5833,0.24602,0.25573,0,0,0
456.14,1.4874,3.584,0.24678,0.25625,0,0,0
456.64,1.4894,3.585,0.24731,0.25669,0,0,0
457.14,1.4912,3.586,0.24781,0.25716,0,0,0
457.64,1.4933,3.587,0.2483,0.25781,0,0,0
458.14,1.495,3.588,0.24872,0.25817,0,0,0
458.64,1.4971,3.5887,0.24919,0.25879,0,0,0
459.14,1.4991,3.5893,0.24982,0.25942,0,0,0
459.64,1.5012,3.5897,0.25019,0.25993,0,0,0
460.14,1.5032,3.5906,0.25074,0.26063,0,0,0
460.64,1.505,3.5917,0.25123,0.26115,0,0,0
461.14,1.5068,3.5927,0.25165,0.26177,0,0,0
461.64,1.5086,3.5933,0.25223,0.26244,0,0,0
462.14,1.5108,3.594,0.25264,0.26301,0,0,0
462.64,1.5128,3.595,0.25303,0.26327,0,0,0
463.14,1.5147,3.596,0.25363,0.26383,0,0,0
463.64,1.5167,3.597,0.25413,0.26456,0,0,0
464.14,1.5186,3.598,0.25467,0.26492,0,0,0
464.64,1.5205,3.599,0.25501,0.26548,0,0,0
465.14,1.5225,3.5997,0.2554,0.2661,0,0,0
465.64,1.5248,3.6003,0.25626,0.26654,0,0,0
466.14,1.5269,3.601,0.25657,0.2671,0,0,0
466.64,1.5288,3.602,0.25725,0.26762,0,0,0
467.14,1.5305,3.6027,0.25805,0.26818,0,0,0
467.64,1.5328,3.6033,0.25849,0.26857,0,0,0
468.14,1.5346,3.604,0.25899,0.26921,0,0,0
468.64,1.5367,3.605,0.25963,0.27008,0,0,0
469.14,1.5388,3.606,0.2602,0.27054,0,0,0
469.64,1.5408,3.607,0.26062,0.27113,0,0,0
470.14,1.5428,3.6077,0.26147,0.27177,0,0,0
470.64,1.5446,3.6083,0.26186,0.27239,0,0,0
471.14,1.5466,3.6093,0.26243,0.2729,0,0,0
471.64,1.5487,3.6104,0.2631,0.27336,0,0,0
472.14,1.5508,3.6113,0.26343,0.27417,0,0,0
472.64,1.5527,3.612,0.26403,0.27471,0,0,0
473.14,1.5547,3.6127,0.26457,0.27545,0,0,0
473.64,1.5565,3.6133,0.26539,0.27619,0,0,0
474.14,1.5587,3.614,0.26588,0.27647,0,0,0
474.64,1.5609,3.615,0.26627,0.27728,0,0,0
475.14,1.5628,3.6157,0.26688,0.27807,0,0,0
475.64,1.5648,3.6163,0.26745,0.27883,0,0,0
476.14,1.5667,3.617,0.26804,0.27916,0,0,0
476.64,1.5687,3.618,0.26853,0.27998,0,0,0
477.14,1.5707,3.619,0.26917,0.28063,0,0,0
477.64,1.5727,3.62,0.26966,0.28089,0,0,0
478.14,1.5747,3.621,0.27022,0.28167,0,0,0
478.64,1.5768,3.6217,0.27083,0.28213,0,0,0
479.14,1.579,3.6223,0.27135,0.28271,0,0,0
479.64,1.5811,3.6227,0.27183,0.28337,0,0,0
480.14,1.5829,3.6236,0.27278,0.28372,0,0,0
480.64,1.585,3.6244,0.27319,0.28463,0,0,0
481.14,1.5872,3.6253,0.2736,0.28519,0,0,0
481.64,1.5891,3.626,0.27451,0.2859,0,0,0
482.14,1.5913,3.6267,0.27518,0.2865,0,0,0
482.64,1.5931,3.6273,0.27581,0.28721,0,0,0
483.14,1.5951,3.628,0.27663,0.28796,0,0,0
483.64,1.5974,3.6287,0.27721,0.28874,0,0,0
484.14,1.5996,3.6293,0.27775,0.28935,0,0,0
484.64,1.6016,3.63,0.27841,0.29022,0,0,0
485.14,1.6035,3.631,0.27905,0.2905,0,0,0
485.64,1.6057,3.632,0.27976,0.29155,0,0,0
486.14,1.6079,3.633,0.28011,0.29201,0,0,0
486.64,1.61,3.6337,0.28065,0.29283,0,0,0
487.14,1.6122,3.6343,0.28128,0.29328,0,0,0
487.64,1.614,3.635,0.28214,0.29396,0,0,0
488.14,1.616,3.6357,0.28262,0.29451,0,0,0
488.64,1.6181,3.6363,0.2831,0.29538,0,0,0
489.14,1.6203,3.637,0.28356,0.29616,0,0,0
489.64,1.6223,3.638,0.28442,0.29683,0,0,0
490.14,1.6244,3.639,0.28532,0.29751,0,0,0
490.64,1.6266,3.6397,0.28593,0.29825,0,0,0
491.14,1.6289,3.6403,0.28679,0.29898,0,0,0
491.64,1.6309,3.641,0.28739,0.29972,0,0,0
492.14,1.6332,3.6417,0.288,0.30067,0,0,0
492.64,1.6351,3.6423,0.28865,0.30126,0,0,0
493.14,1.6373,3.6427,0.2895,0.30181,0,0,0
493.64,1.6396,3.6433,0.29013,0.30246,0,0,0
494.14,1.6415,3.644,0.29101,0.3034,0,0,0
494.64,1.6438,3.645,0.29151,0.30379,0,0,0
495.14,1.6457,3.646,0.29207,0.30461,0,0,0
495.64,1.6479,3.6467,0.29274,0.30523,0,0,0
496.14,1.6504,3.6473,0.29364,0.30607,0,0,0
496.64,1.6524,3.6477,0.29417,0.30716,0,0,0
497.14,1.6546,3.6483,0.29494,0.30788,0,0,0
497.64,1.6566,3.649,0.29574,0.30859,0,0,0
498.14,1.6589,3.65,0.29634,0.3094,0,0,0
498.64,1.6609,3.6507,0.29707,0.31004,0,0,0
499.14,1.6631,3.6513,0.29767,0.31093,0,0,0
499.64,1.6655,3.6517,0.29849,0.31147,0,0,0
500.14,1.6673,3.6523,0.29921,0.31216,0,0,0
500.64,1.6697,3.653,0.29968,0.31282,0,0,0
501.14,1.6719,3.6537,0.30045,0.31358,0,0,0
501.64,1.6738,3.6543,0.30132,0.31444,0,0,0
502.14,1.6761,3.655,0.30202,0.31498,0,0,0
502.64,1.6783,3.6557,0.30296,0.3162,0,0,0
503.14,1.6804,3.6563,0.30361,0.31691,0,0,0
503.64,1.6825,3.657,0.30455,0.3176,0,0,0
504.14,1.6851,3.6577,0.30509,0.31858,0,0,0
504.64,1.6872,3.6583,0.30598,0.31923,0,0,0
505.14,1.6894,3.6587,0.30672,0.32011,0,0,0
505.64,1.6914,3.6593,0.30739,0.32099,0,0,0
506.14,1.6938,3.66,0.30838,0.32148,0,0,0
506.64,1.696,3.661,0.30899,0.3224,0,0,0
507.14,1.6983,3.6617,0.30986,0.32325,0,0,0
507.64,1.7004,3.662,0.31059,0.32391,0,0,0
508.14,1.7026,3.6623,0.31116,0.32485,0,0,0
508.64,1.7049,3.6627,0.31195,0.32573,0,0,0
509.14,1.7071,3.6633,0.31295,0.32636,0,0,0
509.64,1.7094,3.6637,0.31352,0.3273,0,0,0
510.14,1.7117,3.6643,0.31462,0.32832,0,0,0
510.64,1.7138,3.6647,0.31521,0.32936,0,0,0
511.14,1.716,3.6653,0.31629,0.33025,0,0,0
511.64,1.7184,3.666,0.31719,0.33121,0,0,0
512.14,1.7208,3.6667,0.31822,0.33203,0,0,0
512.64,1.7229,3.667,0.319,0.33285,0,0,0
513.14,1.725,3.6673,0.31978,0.33345,0,0,0
513.64,1.7274,3.668,0.32051,0.33454,0,0,0
514.13,1.7297,3.669,0.32146,0.3355,0,0,0
514.64,1.7321,3.6697,0.32217,0.33615,0,0,0
515.14,1.7342,3.6703,0.32333,0.33703,0,0,0
515.64,1.7369,3.6707,0.32409,0.33801,0,0,0
516.14,1.739,3.6713,0.32496,0.33885,0,0,0
516.64,1.7414,3.6717,0.32591,0.33988,0,0,0
517.14,1.7438,3.6723,0.32683,0.3411,0,0,0
517.64,1.7462,3.6724,0.32784,0.3421,0,0,0
518.14,1.7483,3.6726,0.32879,0.34305,0,0,0
518.64,1.7509,3.6727,0.32978,0.34417,0,0,0
519.14,1.7532,3.6733,0.33053,0.3451,0,0,0
519.64,1.7551,3.674,0.33122,0.34572,0,0,0
520.14,1.7576,3.6747,0.33202,0.34667,0,0,0
520.64,1.7601,3.675,0.33308,0.34736,0,0,0
521.14,1.7626,3.6753,0.33411,0.34845,0,0,0
521.64,1.7649,3.6757,0.33512,0.34935,0,0,0
522.14,1.767,3.6763,0.33587,0.35034,0,0,0
522.64,1.7695,3.6767,0.33671,0.35136,0,0,0
523.14,1.7718,3.6773,0.33785,0.3524,0,0,0
523.64,1.7743,3.6777,0.33874,0.3535,0,0,0
524.14,1.777,3.678,0.33965,0.35423,0,0,0
524.64,1.7791,3.6783,0.34103,0.35551,0,0,0
525.14,1.7819,3.6787,0.34216,0.3568,0,0,0
525.64,1.7843,3.679,0.34301,0.35779,0,0,0
526.14,1.787,3.679,0.34375,0.35847,0,0,0
526.63,1.7891,3.6793,0.34489,0.35941,0,0,0
527.14,1.7916,3.6797,0.3462,0.36041,0,0,0
527.64,1.7942,3.6803,0.34701,0.36135,0,0,0
528.14,1.7969,3.6807,0.34801,0.36228,0,0,0
528.64,1.799,3.681,0.34924,0.36331,0,0,0
529.14,1.8016,3.681,0.35035,0.36455,0,0,0
529.64,1.8042,3.6813,0.35167,0.36557,0,0,0
530.13,1.8068,3.6817,0.35264,0.36692,0,0,0
530.64,1.8093,3.682,0.35394,0.36823,0,0,0
531.14,1.8119,3.682,0.35509,0.36962,0,0,0
531.64,1.8142,3.682,0.3562,0.37082,0,0,0
532.14,1.8171,3.6823,0.35725,0.37207,0,0,0
532.64,1.8195,3.6827,0.35817,0.37302,0,0,0
533.14,1.8222,3.683,0.35951,0.37411,0,0,0
533.64,1.8247,3.683,0.36042,0.37524,0,0,0
534.14,1.8276,3.683,0.3615,0.37625,0,0,0
534.63,1.8302,3.683,0.36276,0.37773,0,0,0
535.13,1.833,3.683,0.36402,0.37908,0,0,0
535.64,1.8355,3.683,0.36523,0.38003,0,0,0
536.14,1.838,3.683,0.36672,0.38179,0,0,0
536.64,1.8409,3.683,0.368,0.38317,0,0,0
537.14,1.8436,3.683,0.36937,0.38438,0,0,0
537.63,1.8463,3.683,0.37069,0.38564,0,0,0
538.14,1.8491,3.683,0.37194,0.38675,0,0,0
538.64,1.8519,3.683,0.37319,0.38844,0,0,0
539.14,1.8545,3.683,0.37444,0.38942,0,0,0
539.63,1.8572,3.6827,0.37569,0.39099,0,0,0
540.14,1.8599,3.6826,0.37698,0.39205,0,0,0
540.64,1.8628,3.6824,0.37817,0.39314,0,0,0
541.14,1.8655,3.6823,0.37941,0.3945,0,0,0
541.64,1.8684,3.682,0.38088,0.39622,0,0,0
542.13,1.8714,3.682,0.38249,0.39751,0,0,0
542.64,1.8744,3.6817,0.38368,0.39911,0,0,0
543.13,1.8772,3.6813,0.38514,0.40066,0,0,0
543.64,1.8799,3.681,0.3866,0.40156,0,0,0
544.14,1.8828,3.6807,0.38804,0.40311,0,0,0
544.63,1.8857,3.6803,0.3894,0.40432,0,0,0
545.14,1.8886,3.68,0.39099,0.40555,0,0,0
545.64,1.8917,3.6797,0.39229,0.40709,0,0,0
546.14,1.8945,3.6793,0.39362,0.4085,0,0,0
546.63,1.8977,3.6787,0.39534,0.40999,0,0,0
547.14,1.9007,3.678,0.39668,0.41117,0,0,0
547.63,1.9033,3.6773,0.39828,0.41295,0,0,0
548.13,1.9065,3.677,0.40017,0.41413,0,0,0
548.64,1.9096,3.6767,0.40179,0.4161,0,0,0
549.13,1.9124,3.676,0.40325,0.4175,0,0,0
549.63,1.9156,3.6753,0.40495,0.41907,0,0,0
550.14,1.9188,3.6747,0.4065,0.42063,0,0,0
550.64,1.9219,3.674,0.40781,0.42228,0,0,0
551.14,1.9251,3.673,0.40924,0.42376,0,0,0
551.64,1.9281,3.672,0.41102,0.42545,0,0,0
552.14,1.9312,3.671,0.41267,0.42694,0,0,0
552.64,1.9344,3.6697,0.41467,0.42858,0,0,0
553.14,1.9374,3.6683,0.41606,0.4302,0,0,0
553.64,1.9406,3.667,0.41817,0.43177,0,0,0
554.14,1.944,3.666,0.41954,0.4334,0,0,0
554.64,1.9467,3.665,0.42121,0.43521,0,0,0
555.13,1.9502,3.664,0.42324,0.43688,0,0,0
555.63,1.9533,3.6627,0.42482,0.43859,0,0,0
556.14,1.9565,3.6613,0.42642,0.44069,0,0,0
556.64,1.9599,3.6597,0.42828,0.44235,0,0,0
557.14,1.963,3.6583,0.43009,0.44416,0,0,0
557.63,1.9665,3.6564,0.43225,0.4456,0,0,0
558.14,1.9696,3.6546,0.43386,0.44762,0,0,0
558.64,1.9729,3.6527,0.43591,0.44932,0,0,0
559.14,1.9765,3.651,0.4376,0.45075,0,0,0
559.63,1.9794,3.649,0.43935,0.45284,0,0,0
560.13,1.9827,3.647,0.4411,0.45476,0,0,0
560.63,1.9863,3.6447,0.44324,0.45668,0,0,0
561.13,1.9896,3.642,0.44503,0.45846,0,0,0
561.64,1.9931,3.639,0.44715,0.46048,0,0,0
562.14,1.9966,3.636,0.44924,0.46245,0,0,0
562.63,2.0001,3.633,0.45135,0.46454,0,0,0
563.13,2.0036,3.6294,0.4537,0.46631,0,0,0
563.64,2.0072,3.6244,0.456,0.46875,0,0,0
564.13,2.0111,3.6163,0.45796,0.4716,0,0,0