File: polyN_optimization/results_exp/AA6014-T4/CH_90_2.csv
Time[s],Displacement[mm],Force[kN],AxStrain_1,AxStrain_2,Thickness[mm],OuterWidth[mm],Diameter[mm]
0.61,0,-0.0055942,0,0,1.1282,20.038,5.2911
1.11,0.000136,0.0018318,-8.4004e-05,0.00017498,0,0,0
1.61,0.00048,0.011158,-1.7e-05,0.00021898,0,0,0
2.11,0.000806,0.033568,-9.0004e-05,0.00016099,0,0,0
2.61,0.001241,0.062718,-3e-06,0.00018798,0,0,0
3.11,0.001513,0.089564,8.7996e-05,0.00039092,0,0,0
3.61,0.001504,0.11014,-0.00012301,0.00020398,0,0,0
4.11,0.002252,0.125,-0.00025803,0.00013999,0,0,0
4.61,0.002534,0.14115,0.00017598,0.00012099,0,0,0
5.11,0.002679,0.15985,0.00026097,0.00028596,0,0,0
5.61,0.002907,0.178,-1.4e-05,0.00022298,0,0,0
6.11,0.002965,0.195,-0.00010701,0.00022997,0,0,0
6.61,0.002944,0.20799,8.2997e-05,0.00018298,0,0,0
7.11,0.002928,0.21643,0.00017698,0.00028896,0,0,0
7.61,0.003163,0.225,2.9e-05,0.00020198,0,0,0
8.11,0.003503,0.23771,-2e-05,0.00027696,0,0,0
8.61,0.003148,0.252,0.00011199,0.00020398,0,0,0
9.11,0.003911,0.26686,7e-06,0.00030395,0,0,0
9.61,0.003957,0.28185,0.00019198,0.00035994,0,0,0
10.11,0.004394,0.29629,0.00017898,0.00028896,0,0,0
10.61,0.004709,0.31086,6.8998e-05,0.00028396,0,0,0
11.11,0.00499,0.327,0.00014899,0.00024597,0,0,0
11.61,0.005154,0.34285,1e-05,0.0004449,0,0,0
12.11,0.005553,0.35843,1.3e-05,0.0004409,0,0,0
12.61,0.005954,0.37357,0.00028996,0.0004359,0,0,0
13.11,0.006046,0.38829,0.00015799,0.00036893,0,0,0
13.61,0.00646,0.40315,0.00020498,0.00059782,0,0,0
14.11,0.006556,0.41885,0.00028496,0.00038593,0,0,0
14.61,0.006768,0.43371,0.00027896,0.00061081,0,0,0
15.11,0.006879,0.44843,0.00033194,0.0004569,0,0,0
15.61,0.007282,0.465,0.00032895,0.00052986,0,0,0
16.11,0.007225,0.48185,0.00028196,0.00040592,0,0,0
16.61,0.007282,0.497,0.00023797,0.00060382,0,0,0
17.11,0.007487,0.51215,0.00042591,0.00052386,0,0,0
17.61,0.007722,0.52814,0.00038892,0.00057683,0,0,0
18.11,0.007772,0.54486,0.00026896,0.00050687,0,0,0
18.61,0.008081,0.56114,0.00046689,0.00058083,0,0,0
19.11,0.008225,0.57757,0.00057084,0.00055085,0,0,0
19.61,0.008517,0.59343,0.00038593,0.00053386,0,0,0
20.11,0.00892,0.60986,0.00049388,0.00056084,0,0,0
20.61,0.009293,0.62614,0.00026496,0.00073173,0,0,0
21.11,0.009457,0.64171,0.00051986,0.00057384,0,0,0
21.61,0.009887,0.65743,0.00054085,0.00069176,0,0,0
22.11,0.010347,0.67357,0.00061081,0.00061081,0,0,0
22.61,0.010622,0.69015,0.00056384,0.00086563,0,0,0
23.11,0.011257,0.70614,0.00078869,0.00072474,0,0,0
23.61,0.011619,0.722,0.00068776,0.00080568,0,0,0
24.11,0.01219,0.73786,0.00073473,0.00084864,0,0,0
24.61,0.012489,0.75529,0.0007757,0.0008926,0,0,0
25.11,0.01268,0.77257,0.00090959,0.00091258,0,0,0
25.61,0.012952,0.78829,0.00084264,0.00092957,0,0,0
26.11,0.01309,0.80386,0.00069776,0.0010035,0,0,0
26.61,0.013469,0.82014,0.00071774,0.00091658,0,0,0
27.11,0.013459,0.83686,0.00075172,0.00094256,0,0,0
27.61,0.013654,0.85314,0.00061781,0.00068776,0,0,0
28.11,0.013449,0.86986,0.00066778,0.00079568,0,0,0
28.61,0.013577,0.88614,0.00082266,0.00087961,0,0,0
29.11,0.013926,0.90286,0.0007687,0.00094655,0,0,0
29.61,0.014174,0.91885,0.00071175,0.00092257,0,0,0
30.11,0.014634,0.93429,0.00083865,0.00098951,0,0,0
30.61,0.014725,0.94986,0.00088561,0.00087961,0,0,0
31.11,0.015074,0.96585,0.00081167,0.0010235,0,0,0
31.61,0.01552,0.98215,0.0010105,0.0010604,0,0,0
32.11,0.01587,0.99785,0.00083265,0.0010035,0,0,0
32.61,0.016222,1.0141,0.00098651,0.0010604,0,0,0
33.11,0.016994,1.0301,0.00090959,0.0010704,0,0,0
33.61,0.017145,1.0469,0.00095954,0.0013281,0,0,0
34.11,0.01788,1.0631,0.0010165,0.0013121,0,0,0
34.61,0.018253,1.0787,0.0010774,0.0012922,0,0,0
35.11,0.018555,1.0939,0.0012143,0.0012552,0,0,0
35.61,0.018962,1.1094,0.0010504,0.0014999,0,0,0
36.11,0.019364,1.1259,0.0014589,0.0012682,0,0,0
36.61,0.019656,1.1419,0.0012552,0.0013521,0,0,0
37.11,0.019999,1.1581,0.0010934,0.001429,0,0,0
37.61,0.020224,1.1739,0.001419,0.0013022,0,0,0
38.11,0.020321,1.1899,0.0011144,0.001426,0,0,0
38.61,0.020502,1.2051,0.0012312,0.0012922,0,0,0
39.11,0.020553,1.2203,0.0013321,0.001446,0,0,0
39.61,0.020815,1.2356,0.0013351,0.001433,0,0,0
40.11,0.0211,1.2511,0.0011873,0.0012922,0,0,0
40.61,0.021234,1.2669,0.0013491,0.0015398,0,0,0
41.11,0.021463,1.2821,0.0011773,0.001429,0,0,0
41.61,0.021829,1.2979,0.001426,0.001436,0,0,0
42.11,0.021963,1.3131,0.0012083,0.0016137,0,0,0
42.61,0.022456,1.3289,0.0012512,0.0015837,0,0,0
43.11,0.02291,1.3441,0.0014529,0.0014729,0,0,0
43.61,0.023578,1.3587,0.0014899,0.0017275,0,0,0
44.11,0.023893,1.3734,0.001406,0.0018014,0,0,0
44.61,0.024484,1.3886,0.0016906,0.0017614,0,0,0
45.11,0.02483,1.4041,0.0017674,0.0018712,0,0,0
45.61,0.025297,1.4191,0.0017175,0.0019281,0,0,0
46.11,0.025632,1.4349,0.0017814,0.0021667,0,0,0
46.61,0.026018,1.4499,0.0019381,0.0019591,0,0,0
47.11,0.02631,1.4651,0.002022,0.0021158,0,0,0
47.61,0.02665,1.4799,0.0018982,0.0021098,0,0,0
48.11,0.026925,1.494,0.0021327,0.0022096,0,0,0
48.61,0.027217,1.5081,0.0021327,0.0023203,0,0,0
49.11,0.027351,1.5229,0.0021058,0.0021158,0,0,0
49.61,0.027875,1.5381,0.0022604,0.0022235,0,0,0
50.11,0.027982,1.5529,0.0022634,0.0021667,0,0,0
50.61,0.028234,1.5681,0.0020998,0.0022165,0,0,0
51.11,0.028724,1.5829,0.0021497,0.0022734,0,0,0
51.61,0.028953,1.5979,0.0023343,0.0022704,0,0,0
52.11,0.029225,1.6121,0.0023712,0.0021696,0,0,0
52.61,0.02951,1.626,0.0023443,0.0024849,0,0,0
53.11,0.030457,1.6399,0.0025747,0.0023173,0,0,0
53.61,0.030658,1.6541,0.0025946,0.0026315,0,0,0
54.11,0.030725,1.6686,0.0027323,0.0026116,0,0,0
54.61,0.031544,1.6824,0.0028798,0.0026455,0,0,0
55.11,0.032065,1.6969,0.0028998,0.0028031,0,0,0
55.61,0.03234,1.7111,0.0032677,0.0030005,0,0,0
56.11,0.032803,1.7256,0.003469,0.0031341,0,0,0
56.61,0.033606,1.7394,0.0033344,0.0030434,0,0,0
57.11,0.033763,1.7527,0.0037868,0.0035457,0,0,0
57.61,0.033911,1.7661,0.0039034,0.0035058,0,0,0
58.11,0.034599,1.7799,0.0038137,0.0036732,0,0,0
58.61,0.034811,1.7941,0.004004,0.0036364,0,0,0
59.11,0.035301,1.8079,0.0040269,0.0037529,0,0,0
59.61,0.035868,1.8219,0.0042012,0.0038765,0,0,0
60.11,0.036248,1.8349,0.0041006,0.0037629,0,0,0
60.61,0.036688,1.8484,0.0041205,0.0038127,0,0,0
61.11,0.038077,1.8616,0.0043386,0.0038536,0,0,0
61.61,0.038024,1.874,0.0041812,0.0039701,0,0,0
62.11,0.038853,1.8859,0.0043684,0.0041374,0,0,0
62.61,0.039682,1.8981,0.0046293,0.0041842,0,0,0
63.11,0.040552,1.9106,0.0047188,0.0043216,0,0,0
63.61,0.041639,1.9221,0.0050701,0.0044919,0,0,0
64.11,0.042395,1.9339,0.0052771,0.004903,0,0,0
64.61,0.043137,1.9449,0.0055237,0.0047855,0,0,0
65.11,0.044134,1.9556,0.0056808,0.005287,0,0,0
65.61,0.045826,1.9651,0.0062882,0.0056311,0,0,0
66.11,0.046229,1.9743,0.0066786,0.005825,0,0,0
66.61,0.047592,1.983,0.007066,0.006165,0,0,0
67.11,0.048686,1.9917,0.0074323,0.0067184,0,0,0
67.61,0.049979,2.0003,0.0079225,0.0070918,0,0,0
68.11,0.051201,2.0084,0.0084214,0.0073857,0,0,0
68.61,0.052721,2.0166,0.0086951,0.0076953,0,0,0
69.11,0.054467,2.0244,0.0091242,0.0080049,0,0,0
69.61,0.056045,2.0326,0.0094096,0.0081715,0,0,0
70.11,0.057892,2.0404,0.009676,0.0085979,0,0,0
70.61,0.059778,2.0477,0.0099682,0.0087744,0,0,0
71.11,0.061339,2.0549,0.010118,0.009044,0,0,0
71.61,0.063152,2.0624,0.010228,0.009263,0,0,0
72.11,0.06513,2.0703,0.010567,0.009469,0,0,0
72.61,0.066657,2.0774,0.010976,0.0096691,0,0,0
73.11,0.068282,2.0846,0.011224,0.0099682,0,0,0
73.61,0.070108,2.0914,0.011394,0.010377,0,0,0
74.11,0.071767,2.0986,0.011798,0.0107,0,0,0
74.61,0.073509,2.1054,0.012223,0.011367,0,0,0
75.11,0.07508,2.112,0.012804,0.011512,0,0,0
75.61,0.077108,2.1186,0.013237,0.012133,0,0,0
76.11,0.078562,2.1254,0.01389,0.012451,0,0,0
76.61,0.081013,2.1323,0.014439,0.013271,0,0,0
77.11,0.083107,2.1387,0.014903,0.013439,0,0,0
77.61,0.08528,2.1453,0.015197,0.013913,0,0,0
78.11,0.08718,2.1517,0.015805,0.014413,0,0,0
78.61,0.089244,2.1583,0.016195,0.014853,0,0,0
79.11,0.090977,2.1644,0.016661,0.015144,0,0,0
79.61,0.092998,2.1703,0.016705,0.015395,0,0,0
80.11,0.09473,2.1763,0.016955,0.0156,0,0,0
80.61,0.096577,2.1824,0.017367,0.015877,0,0,0
81.11,0.098504,2.1886,0.017517,0.016079,0,0,0
81.61,0.10018,2.1947,0.017925,0.016442,0,0,0
82.11,0.10179,2.2007,0.018071,0.016585,0,0,0
82.61,0.10447,2.2066,0.018423,0.017044,0,0,0
83.11,0.10619,2.2127,0.018595,0.017397,0,0,0
83.61,0.10955,2.2187,0.019273,0.0177,0,0,0
84.11,0.11084,2.2243,0.019557,0.018136,0,0,0
84.61,0.11304,2.23,0.019899,0.018495,0,0,0
85.11,0.11503,2.2357,0.020383,0.018893,0,0,0
85.61,0.11687,2.2413,0.020747,0.019476,0,0,0
86.11,0.11881,2.2467,0.02133,0.019898,0,0,0
86.61,0.12072,2.2526,0.021763,0.020329,0,0,0
87.11,0.12277,2.2584,0.022348,0.020671,0,0,0
87.61,0.12442,2.2643,0.022765,0.021131,0,0,0
88.11,0.12657,2.2697,0.023018,0.021594,0,0,0
88.61,0.12892,2.275,0.023457,0.021969,0,0,0
89.11,0.13074,2.2803,0.023726,0.02231,0,0,0
89.61,0.13321,2.2857,0.024175,0.022458,0,0,0
90.11,0.13555,2.2913,0.024382,0.022835,0,0,0
90.61,0.13762,2.2967,0.024886,0.023013,0,0,0
91.11,0.13991,2.3017,0.025164,0.023351,0,0,0
91.61,0.14202,2.3066,0.02544,0.023794,0,0,0
92.11,0.14401,2.312,0.025754,0.024204,0,0,0
92.61,0.14601,2.3177,0.026169,0.02459,0,0,0
93.11,0.14815,2.323,0.026581,0.024904,0,0,0
93.61,0.15011,2.328,0.026902,0.025166,0,0,0
94.11,0.15182,2.333,0.027352,0.025565,0,0,0
94.61,0.15419,2.3383,0.027783,0.026062,0,0,0
95.11,0.15619,2.3434,0.02809,0.02637,0,0,0
95.61,0.15863,2.3486,0.02844,0.026828,0,0,0
96.11,0.16103,2.3534,0.028867,0.027135,0,0,0
96.61,0.16357,2.3583,0.029274,0.027485,0,0,0
97.11,0.16577,2.363,0.02966,0.027853,0,0,0
97.61,0.16801,2.3677,0.030015,0.028386,0,0,0
98.11,0.16999,2.3726,0.030357,0.028654,0,0,0
98.61,0.17191,2.3777,0.03079,0.028951,0,0,0
99.11,0.17399,2.383,0.03116,0.029368,0,0,0
99.61,0.17613,2.3877,0.031805,0.029537,0,0,0
100.11,0.17819,2.3923,0.031955,0.029938,0,0,0
100.61,0.18028,2.3967,0.032202,0.030411,0,0,0
101.11,0.18236,2.4016,0.032806,0.030524,0,0,0
101.61,0.18483,2.4064,0.032855,0.031065,0,0,0
102.11,0.18724,2.411,0.033449,0.031309,0,0,0
102.61,0.18963,2.4153,0.033612,0.031687,0,0,0
103.11,0.19208,2.42,0.03427,0.031993,0,0,0
103.61,0.19426,2.425,0.034403,0.032369,0,0,0
104.11,0.19652,2.4297,0.035,0.032678,0,0,0
104.61,0.19863,2.4343,0.035321,0.033296,0,0,0
105.11,0.20077,2.4387,0.035811,0.033444,0,0,0
105.61,0.20321,2.4433,0.036125,0.033912,0,0,0
106.11,0.20532,2.4477,0.036561,0.034227,0,0,0
106.61,0.20719,2.452,0.037021,0.034646,0,0,0
107.11,0.20935,2.4563,0.037145,0.035028,0,0,0
107.61,0.21187,2.4607,0.037662,0.035459,0,0,0
108.11,0.21451,2.4653,0.037959,0.03579,0,0,0
108.61,0.21669,2.4694,0.03836,0.036179,0,0,0
109.11,0.21926,2.4736,0.038687,0.036544,0,0,0
109.61,0.22125,2.4777,0.039142,0.036985,0,0,0
110.11,0.22364,2.4823,0.039533,0.037234,0,0,0
110.61,0.22532,2.4867,0.039746,0.03759,0,0,0
111.11,0.22754,2.4907,0.040262,0.037971,0,0,0
111.61,0.22954,2.4946,0.04052,0.038058,0,0,0
112.11,0.23177,2.4987,0.040835,0.038591,0,0,0
112.61,0.23375,2.5033,0.041332,0.038843,0,0,0
113.11,0.23608,2.5074,0.041693,0.039247,0,0,0
113.61,0.23845,2.5116,0.042037,0.039618,0,0,0
114.11,0.24082,2.5154,0.042295,0.040173,0,0,0
114.61,0.24314,2.5196,0.042597,0.040337,0,0,0
115.11,0.24558,2.5234,0.043067,0.040756,0,0,0
115.61,0.24756,2.5273,0.043363,0.041047,0,0,0
116.11,0.24974,2.531,0.043848,0.04153,0,0,0
116.61,0.25171,2.5347,0.044234,0.041755,0,0,0
117.11,0.25371,2.5386,0.044619,0.042302,0,0,0
117.61,0.25558,2.5424,0.044941,0.042495,0,0,0
118.11,0.25772,2.5463,0.045262,0.043042,0,0,0
118.61,0.25955,2.5497,0.045679,0.043106,0,0,0
119.11,0.26161,2.5533,0.046095,0.043686,0,0,0
119.61,0.26329,2.557,0.046224,0.043749,0,0,0
120.11,0.26556,2.5607,0.046545,0.044167,0,0,0
120.61,0.2678,2.564,0.046897,0.044456,0,0,0
121.11,0.26997,2.567,0.047313,0.044713,0,0,0
121.61,0.2722,2.5703,0.047377,0.044938,0,0,0
122.11,0.27386,2.5737,0.04789,0.045194,0,0,0
122.61,0.27578,2.577,0.048241,0.045483,0,0,0
123.11,0.27726,2.58,0.048305,0.045804,0,0,0
123.61,0.27894,2.583,0.048562,0.045932,0,0,0
124.11,0.28048,2.5857,0.048753,0.046317,0,0,0
124.61,0.2821,2.5883,0.049041,0.046573,0,0,0
125.11,0.28377,2.591,0.049457,0.047182,0,0,0
125.61,0.28547,2.594,0.049584,0.047118,0,0,0
126.11,0.28714,2.597,0.050095,0.047406,0,0,0
126.61,0.28871,2.5997,0.050319,0.04779,0,0,0
127.11,0.29068,2.6026,0.050447,0.048142,0,0,0
127.61,0.29261,2.6054,0.050862,0.048142,0,0,0
128.11,0.29422,2.6083,0.051148,0.04843,0,0,0
128.61,0.296,2.6107,0.051276,0.04875,0,0,0
129.11,0.2976,2.6133,0.051819,0.048814,0,0,0
129.61,0.29924,2.616,0.051818,0.049198,0,0,0
130.11,0.30029,2.619,0.05201,0.049325,0,0,0
130.61,0.30207,2.622,0.05236,0.049517,0,0,0
131.11,0.30369,2.6247,0.052678,0.049645,0,0,0
131.61,0.30516,2.6273,0.052741,0.049773,0,0,0
132.11,0.30716,2.6297,0.053125,0.050156,0,0,0
132.61,0.30871,2.6326,0.052997,0.050411,0,0,0
133.11,0.3105,2.6354,0.053252,0.050539,0,0,0
133.61,0.31203,2.638,0.053569,0.050858,0,0,0
134.11,0.31398,2.6403,0.053824,0.051017,0,0,0
134.61,0.31603,2.643,0.053951,0.051305,0,0,0
135.11,0.31766,2.6457,0.054078,0.051528,0,0,0
135.61,0.31966,2.6483,0.054492,0.052038,0,0,0
136.11,0.32124,2.651,0.054714,0.052198,0,0,0
136.61,0.32262,2.6537,0.055223,0.052421,0,0,0
137.11,0.32451,2.6563,0.055318,0.052707,0,0,0
137.61,0.32634,2.6587,0.055604,0.053057,0,0,0
138.11,0.32779,2.661,0.056049,0.053345,0,0,0
138.61,0.32956,2.6633,0.056303,0.053471,0,0,0
139.11,0.33114,2.666,0.056429,0.053789,0,0,0
139.61,0.33273,2.6687,0.056969,0.053885,0,0,0
140.11,0.33564,2.671,0.057223,0.054362,0,0,0
140.61,0.33784,2.6733,0.057349,0.054712,0,0,0
141.11,0.33905,2.676,0.057634,0.054871,0,0,0
141.61,0.34123,2.6787,0.05792,0.055157,0,0,0
142.11,0.34338,2.681,0.058142,0.055411,0,0,0
142.61,0.34493,2.6833,0.058426,0.055411,0,0,0
143.11,0.34684,2.686,0.058522,0.055951,0,0,0
143.61,0.34861,2.6887,0.058743,0.056141,0,0,0
144.11,0.35048,2.691,0.059122,0.0563,0,0,0
144.61,0.35202,2.6933,0.059471,0.056585,0,0,0
145.11,0.35376,2.6957,0.059597,0.056966,0,0,0
145.61,0.35574,2.6983,0.059946,0.057062,0,0,0
146.11,0.35778,2.701,0.060166,0.057569,0,0,0
146.61,0.35985,2.7037,0.060483,0.057632,0,0,0
147.11,0.36189,2.706,0.060767,0.05779,0,0,0
147.61,0.36405,2.7083,0.060988,0.058044,0,0,0
148.11,0.36592,2.7107,0.061115,0.058425,0,0,0
148.61,0.36786,2.7133,0.061399,0.058709,0,0,0
149.11,0.36965,2.7157,0.061872,0.058995,0,0,0
149.61,0.37145,2.718,0.062125,0.059057,0,0,0
150.11,0.3729,2.72,0.062409,0.059248,0,0,0
150.61,0.37489,2.7223,0.062597,0.059501,0,0,0
151.11,0.37681,2.725,0.062819,0.059975,0,0,0
151.61,0.37858,2.7277,0.06326,0.060133,0,0,0
152.11,0.38033,2.7303,0.063449,0.060354,0,0,0
152.61,0.38236,2.7324,0.063513,0.060639,0,0,0
153.11,0.3844,2.7346,0.064016,0.060733,0,0,0
153.61,0.38645,2.7367,0.064173,0.061176,0,0,0
154.11,0.38848,2.7393,0.064425,0.061334,0,0,0
154.61,0.39052,2.7417,0.064646,0.061555,0,0,0
155.11,0.39244,2.7443,0.064771,0.061903,0,0,0
155.61,0.39449,2.7467,0.065023,0.062155,0,0,0
156.11,0.39614,2.749,0.065338,0.06225,0,0,0
156.61,0.39785,2.751,0.065684,0.06247,0,0,0
157.11,0.39972,2.753,0.065935,0.062785,0,0,0
157.61,0.40109,2.7553,0.066029,0.063039,0,0,0
158.11,0.40293,2.7577,0.066249,0.063133,0,0,0
158.61,0.40486,2.76,0.066564,0.063574,0,0,0
159.11,0.4069,2.7623,0.066689,0.063543,0,0,0
159.61,0.40886,2.7647,0.067191,0.064141,0,0,0
160.11,0.41089,2.767,0.067317,0.064267,0,0,0
160.61,0.41286,2.769,0.067632,0.064582,0,0,0
161.11,0.41479,2.7713,0.068007,0.064677,0,0,0
161.61,0.41653,2.7737,0.068196,0.065117,0,0,0
162.11,0.41824,2.776,0.068636,0.065431,0,0,0
162.61,0.42004,2.778,0.068792,0.065589,0,0,0
163.11,0.42183,2.7803,0.068917,0.065683,0,0,0
163.61,0.42338,2.7827,0.069355,0.065902,0,0,0
164.11,0.42515,2.785,0.069481,0.066155,0,0,0
164.61,0.42668,2.787,0.069576,0.066406,0,0,0
165.11,0.42892,2.789,0.069857,0.066814,0,0,0
165.61,0.43043,2.7913,0.070232,0.066971,0,0,0
166.11,0.43253,2.7937,0.070389,0.067159,0,0,0
166.61,0.43478,2.796,0.070577,0.067379,0,0,0
167.11,0.43697,2.798,0.070858,0.067882,0,0,0
167.61,0.43863,2.8,0.071139,0.067912,0,0,0
168.11,0.44056,2.802,0.071358,0.067945,0,0,0
168.61,0.44249,2.8043,0.071577,0.068383,0,0,0
169.11,0.44374,2.8064,0.071828,0.068728,0,0,0
169.61,0.44555,2.8083,0.072109,0.068947,0,0,0
170.11,0.44723,2.8103,0.072515,0.069198,0,0,0
170.61,0.4491,2.8127,0.07264,0.069386,0,0,0
171.11,0.45082,2.815,0.072858,0.069637,0,0,0
171.61,0.45279,2.817,0.073295,0.069887,0,0,0
172.11,0.45456,2.819,0.073388,0.070232,0,0,0
172.61,0.45663,2.8213,0.073606,0.070482,0,0,0
173.11,0.45876,2.8237,0.07395,0.070701,0,0,0
173.61,0.46068,2.826,0.074044,0.070827,0,0,0
174.11,0.46275,2.828,0.074262,0.071045,0,0,0
174.61,0.46481,2.8297,0.074573,0.071389,0,0,0
175.11,0.46659,2.8313,0.074979,0.071576,0,0,0
175.61,0.46835,2.8333,0.07501,0.071952,0,0,0
176.11,0.47005,2.8357,0.075321,0.072201,0,0,0
176.61,0.47189,2.838,0.075758,0.072296,0,0,0
177.11,0.47356,2.84,0.075881,0.072669,0,0,0
177.61,0.47543,2.842,0.075944,0.073013,0,0,0
178.11,0.47712,2.844,0.076193,0.073169,0,0,0
178.61,0.47906,2.8457,0.076566,0.073449,0,0,0
179.11,0.48103,2.8476,0.076815,0.0737,0,0,0
179.61,0.48303,2.8497,0.077001,0.073887,0,0,0
180.11,0.48513,2.852,0.07725,0.074042,0,0,0
180.61,0.48687,2.854,0.077591,0.074261,0,0,0
181.11,0.48883,2.856,0.077778,0.074573,0,0,0
181.61,0.49069,2.858,0.078089,0.074728,0,0,0
182.11,0.49232,2.86,0.07843,0.074915,0,0,0
182.61,0.494,2.8617,0.078429,0.075102,0,0,0
183.11,0.49577,2.8633,0.078616,0.075165,0,0,0
183.61,0.49754,2.865,0.07905,0.075538,0,0,0
184.11,0.49929,2.867,0.078957,0.075881,0,0,0
184.61,0.50088,2.869,0.079299,0.076037,0,0,0
185.11,0.5027,2.8713,0.079578,0.076254,0,0,0
185.61,0.50472,2.8734,0.079919,0.076534,0,0,0
186.11,0.50647,2.8753,0.079826,0.076844,0,0,0
186.61,0.5084,2.877,0.080166,0.077001,0,0,0
187.11,0.51039,2.879,0.080353,0.077373,0,0,0
187.61,0.51211,2.881,0.080663,0.077404,0,0,0
188.11,0.51383,2.883,0.080879,0.077839,0,0,0
188.61,0.51557,2.885,0.081158,0.078119,0,0,0
189.11,0.51742,2.887,0.08156,0.078243,0,0,0
189.61,0.51893,2.8887,0.081869,0.078491,0,0,0
190.11,0.52068,2.8906,0.082148,0.078585,0,0,0
190.61,0.52209,2.8924,0.082364,0.078802,0,0,0
191.11,0.52404,2.8943,0.082519,0.078926,0,0,0
191.61,0.52585,2.896,0.082735,0.079237,0,0,0
192.11,0.52793,2.898,0.083044,0.079299,0,0,0
192.61,0.52991,2.8997,0.083044,0.079764,0,0,0
193.11,0.53169,2.9013,0.083261,0.079825,0,0,0
193.61,0.5336,2.903,0.0836,0.080167,0,0,0
194.11,0.53548,2.9053,0.083878,0.080259,0,0,0
194.61,0.53713,2.9074,0.084187,0.080631,0,0,0
195.11,0.53891,2.9093,0.084124,0.080817,0,0,0
195.61,0.54072,2.911,0.084433,0.080879,0,0,0
196.11,0.54226,2.9127,0.084433,0.081251,0,0,0
196.61,0.54388,2.9143,0.084803,0.081622,0,0,0
197.11,0.54582,2.916,0.085266,0.081869,0,0,0
197.61,0.54753,2.918,0.085482,0.082086,0,0,0
198.11,0.54911,2.92,0.085852,0.082427,0,0,0
198.61,0.55136,2.9217,0.086037,0.082488,0,0,0
199.11,0.55311,2.9233,0.086283,0.082705,0,0,0
199.61,0.55512,2.925,0.086653,0.082922,0,0,0
200.11,0.55717,2.927,0.086868,0.083229,0,0,0
200.61,0.55888,2.929,0.087084,0.083385,0,0,0
201.11,0.5608,2.931,0.087238,0.083601,0,0,0
201.61,0.56258,2.9327,0.087423,0.083847,0,0,0
202.11,0.56439,2.9343,0.087606,0.084002,0,0,0
202.61,0.56603,2.936,0.087915,0.084125,0,0,0
203.11,0.56754,2.938,0.088129,0.084434,0,0,0
203.61,0.56939,2.9397,0.088253,0.08468,0,0,0
204.11,0.57087,2.9413,0.088344,0.084866,0,0,0
204.61,0.57271,2.943,0.088928,0.08499,0,0,0
205.11,0.57459,2.9447,0.089051,0.085237,0,0,0
205.61,0.57644,2.9463,0.089266,0.0857,0,0,0
206.11,0.57822,2.948,0.089604,0.08573,0,0,0
206.61,0.5803,2.95,0.089818,0.086007,0,0,0
207.11,0.58208,2.952,0.089879,0.086191,0,0,0
207.61,0.58406,2.954,0.090371,0.086407,0,0,0
208.11,0.58557,2.9557,0.090524,0.086592,0,0,0
208.61,0.58732,2.9573,0.090861,0.086715,0,0,0
209.11,0.58896,2.959,0.091107,0.087054,0,0,0
209.61,0.59047,2.9607,0.091382,0.087331,0,0,0
210.11,0.59229,2.9623,0.091597,0.087515,0,0,0
210.61,0.59407,2.964,0.091627,0.087669,0,0,0
211.11,0.59561,2.9657,0.092057,0.088007,0,0,0
211.61,0.59773,2.9676,0.092179,0.088315,0,0,0
212.11,0.5993,2.9694,0.092393,0.088591,0,0,0
212.61,0.60145,2.971,0.092638,0.088806,0,0,0
213.11,0.60337,2.9723,0.092913,0.089176,0,0,0
213.61,0.60515,2.974,0.09325,0.089268,0,0,0
214.11,0.60682,2.976,0.093372,0.089575,0,0,0
214.61,0.60877,2.9777,0.093463,0.089636,0,0,0
215.11,0.61052,2.9793,0.093922,0.089912,0,0,0
215.61,0.61206,2.981,0.094106,0.090065,0,0,0
216.11,0.61391,2.983,0.094381,0.090465,0,0,0
216.61,0.61545,2.985,0.094686,0.090556,0,0,0
217.11,0.61733,2.9867,0.094838,0.09071,0,0,0
217.61,0.61911,2.9883,0.095237,0.090985,0,0,0
218.11,0.62106,2.99,0.095449,0.091231,0,0,0
218.61,0.62274,2.9917,0.095755,0.091384,0,0,0
219.11,0.62462,2.9933,0.096029,0.091508,0,0,0
219.61,0.6267,2.9947,0.09609,0.091874,0,0,0
220.11,0.62885,2.9963,0.096242,0.092273,0,0,0
220.61,0.63056,2.998,0.096456,0.092364,0,0,0
221.11,0.63237,3,0.096638,0.092609,0,0,0
221.61,0.63388,3.0017,0.096883,0.093008,0,0,0
222.11,0.636,3.0033,0.097157,0.093099,0,0,0
222.61,0.63748,3.005,0.097339,0.093405,0,0,0
223.11,0.63939,3.0067,0.097735,0.09371,0,0,0
223.61,0.64097,3.0083,0.097918,0.094047,0,0,0
224.11,0.64258,3.01,0.098161,0.094352,0,0,0
224.61,0.64466,3.0117,0.098557,0.094382,0,0,0
225.11,0.64624,3.0133,0.098709,0.094688,0,0,0
225.61,0.64829,3.0147,0.099013,0.094933,0,0,0
226.11,0.65043,3.0163,0.099347,0.094932,0,0,0
226.61,0.65215,3.018,0.099621,0.095359,0,0,0
227.11,0.65406,3.0197,0.099834,0.09539,0,0,0
227.61,0.65611,3.0213,0.10011,0.095605,0,0,0
228.11,0.65759,3.0227,0.10026,0.09594,0,0,0
228.61,0.65933,3.0243,0.10059,0.096153,0,0,0
229.11,0.66088,3.026,0.10075,0.096306,0,0,0
229.61,0.66239,3.0277,0.10099,0.09655,0,0,0
230.11,0.66376,3.0293,0.10108,0.096884,0,0,0
230.61,0.66558,3.031,0.10129,0.097158,0,0,0
231.11,0.66759,3.0327,0.10163,0.097373,0,0,0
231.61,0.6695,3.0343,0.10172,0.097676,0,0,0
232.11,0.67142,3.036,0.10202,0.097981,0,0,0
232.61,0.6731,3.0377,0.10226,0.098164,0,0,0
233.11,0.67521,3.0393,0.10232,0.098499,0,0,0
233.61,0.67696,3.041,0.10269,0.098742,0,0,0
234.11,0.679,3.0427,0.10311,0.098894,0,0,0
234.61,0.68075,3.0443,0.1032,0.099259,0,0,0
235.11,0.68223,3.0457,0.10359,0.099443,0,0,0
235.61,0.68394,3.0473,0.1039,0.099624,0,0,0
236.11,0.68542,3.049,0.10411,0.099866,0,0,0
236.61,0.6873,3.0507,0.10435,0.099927,0,0,0
237.11,0.68898,3.0523,0.10456,0.10017,0,0,0
237.61,0.69102,3.054,0.1049,0.1005,0,0,0
238.11,0.69317,3.0557,0.10508,0.10057,0,0,0
238.61,0.69462,3.057,0.1052,0.10099,0,0,0
239.11,0.69663,3.0583,0.10541,0.10123,0,0,0
239.61,0.69858,3.06,0.10574,0.10132,0,0,0
240.11,0.70042,3.0617,0.10598,0.10166,0,0,0
240.61,0.70247,3.0633,0.10613,0.10205,0,0,0
241.11,0.70402,3.065,0.10641,0.10217,0,0,0
241.61,0.70586,3.0667,0.10674,0.10242,0,0,0
242.11,0.70757,3.0683,0.10698,0.10278,0,0,0
242.61,0.70925,3.0697,0.10722,0.10305,0,0,0
243.11,0.711,3.0713,0.10746,0.1032,0,0,0
243.61,0.71301,3.073,0.10767,0.10351,0,0,0
244.11,0.71469,3.0747,0.10801,0.10372,0,0,0
244.61,0.71657,3.076,0.10798,0.10384,0,0,0
245.11,0.71845,3.0773,0.10852,0.10432,0,0,0
245.61,0.7205,3.079,0.10876,0.1046,0,0,0
246.11,0.72248,3.0807,0.10903,0.10475,0,0,0
246.61,0.72443,3.0823,0.10939,0.10505,0,0,0
247.11,0.72638,3.0837,0.10963,0.1052,0,0,0
247.61,0.72792,3.0853,0.10972,0.10547,0,0,0
248.11,0.7297,3.087,0.10987,0.10565,0,0,0
248.61,0.73111,3.0887,0.11023,0.10611,0,0,0
249.11,0.73302,3.09,0.11032,0.10629,0,0,0
249.61,0.7346,3.0913,0.11053,0.10656,0,0,0
250.11,0.73618,3.0927,0.11083,0.10674,0,0,0
250.61,0.73799,3.0943,0.11107,0.10695,0,0,0
251.11,0.73987,3.0957,0.11137,0.10704,0,0,0
251.61,0.74195,3.0973,0.11156,0.10743,0,0,0
252.11,0.74357,3.099,0.11171,0.10755,0,0,0
252.61,0.74551,3.1007,0.11213,0.10777,0,0,0
253.11,0.74739,3.1023,0.11231,0.10807,0,0,0
253.61,0.74924,3.1037,0.11233,0.10828,0,0,0
254.11,0.75085,3.1053,0.11297,0.10855,0,0,0
254.61,0.75273,3.107,0.11323,0.10882,0,0,0
255.11,0.75434,3.1087,0.11345,0.10909,0,0,0
255.61,0.75579,3.11,0.11359,0.10957,0,0,0
256.11,0.7577,3.111,0.11392,0.10951,0,0,0
256.61,0.75924,3.1123,0.11407,0.10987,0,0,0
257.11,0.76099,3.114,0.11437,0.11045,0,0,0
257.61,0.7627,3.116,0.11488,0.11057,0,0,0
258.11,0.76478,3.1177,0.11479,0.11072,0,0,0
258.61,0.7668,3.1193,0.11515,0.11114,0,0,0
259.11,0.76868,3.1207,0.11521,0.11126,0,0,0
259.61,0.77052,3.122,0.11551,0.11144,0,0,0
260.11,0.77227,3.1233,0.11587,0.11168,0,0,0
260.61,0.77395,3.1247,0.11614,0.1118,0,0,0
261.11,0.77579,3.126,0.11641,0.11207,0,0,0
261.61,0.77747,3.1273,0.11668,0.11225,0,0,0
262.11,0.77922,3.129,0.11698,0.11249,0,0,0
262.61,0.78086,3.1307,0.11721,0.11264,0,0,0
263.11,0.78251,3.1323,0.11724,0.11297,0,0,0
263.61,0.78432,3.1337,0.11748,0.11312,0,0,0
264.11,0.78607,3.135,0.1179,0.11339,0,0,0
264.61,0.78812,3.1363,0.11817,0.1136,0,0,0
265.11,0.78993,3.1377,0.11832,0.11393,0,0,0
265.61,0.79174,3.1393,0.11859,0.11432,0,0,0
266.11,0.79359,3.141,0.119,0.11456,0,0,0
266.61,0.7957,3.1427,0.11933,0.11498,0,0,0
267.11,0.79735,3.1443,0.11936,0.11528,0,0,0
267.61,0.79919,3.1457,0.11975,0.11557,0,0,0
268.11,0.80104,3.1473,0.11996,0.11557,0,0,0
268.61,0.80248,3.1487,0.12023,0.11611,0,0,0
269.11,0.80423,3.15,0.12026,0.11635,0,0,0
269.61,0.80608,3.151,0.12058,0.11647,0,0,0
270.11,0.80792,3.1523,0.12091,0.11668,0,0,0
270.61,0.8096,3.154,0.12121,0.11683,0,0,0
271.11,0.81165,3.1557,0.12145,0.11704,0,0,0
271.61,0.81333,3.157,0.12174,0.11737,0,0,0
272.11,0.81521,3.1583,0.12216,0.11743,0,0,0
272.61,0.81726,3.1597,0.12213,0.11785,0,0,0
273.11,0.81897,3.1613,0.12263,0.11799,0,0,0
273.61,0.82081,3.163,0.12287,0.1182,0,0,0
274.11,0.82236,3.1644,0.12314,0.11859,0,0,0
274.61,0.8241,3.1656,0.12335,0.11886,0,0,0
275.11,0.82588,3.167,0.12349,0.11925,0,0,0
275.61,0.82743,3.1687,0.12385,0.11952,0,0,0
276.11,0.82934,3.1703,0.12418,0.11963,0,0,0
276.61,0.83072,3.1717,0.12433,0.1202,0,0,0
277.11,0.8328,3.173,0.12453,0.12035,0,0,0
277.61,0.83451,3.1743,0.12492,0.12062,0,0,0
278.11,0.83653,3.1757,0.12512,0.12074,0,0,0
278.61,0.83847,3.1773,0.12539,0.12121,0,0,0
279.11,0.84022,3.1787,0.12572,0.12145,0,0,0
279.61,0.84223,3.1803,0.12607,0.12169,0,0,0
280.11,0.84418,3.1817,0.12613,0.12175,0,0,0
280.61,0.84599,3.183,0.12628,0.12198,0,0,0
281.11,0.84771,3.1843,0.12687,0.12219,0,0,0
281.61,0.84902,3.1857,0.12702,0.12246,0,0,0
282.11,0.85093,3.1873,0.12737,0.12258,0,0,0
282.61,0.85281,3.1887,0.12755,0.12291,0,0,0
283.11,0.85442,3.1903,0.12776,0.12332,0,0,0
283.61,0.85647,3.1917,0.12814,0.12362,0,0,0
284.11,0.85835,3.1933,0.12823,0.12394,0,0,0
284.61,0.86036,3.1947,0.1287,0.1243,0,0,0
285.11,0.86211,3.196,0.12876,0.12457,0,0,0
285.61,0.86392,3.1973,0.12917,0.1248,0,0,0
286.11,0.866,3.1987,0.12944,0.12522,0,0,0
286.61,0.86788,3.2,0.12976,0.1254,0,0,0
287.11,0.8696,3.2013,0.12985,0.12569,0,0,0
287.61,0.87138,3.2027,0.13041,0.1259,0,0,0
288.11,0.87326,3.204,0.13053,0.12614,0,0,0
288.61,0.87483,3.2053,0.13094,0.12629,0,0,0
289.11,0.87651,3.2067,0.13115,0.12643,0,0,0
289.61,0.87836,3.208,0.13127,0.12661,0,0,0
290.11,0.8802,3.2093,0.13168,0.12694,0,0,0
290.61,0.88198,3.2107,0.13203,0.12717,0,0,0
291.11,0.88413,3.2123,0.132,0.12741,0,0,0
291.61,0.88605,3.2137,0.1323,0.12768,0,0,0
292.11,0.88776,3.2153,0.13244,0.12809,0,0,0
292.61,0.88947,3.2167,0.1328,0.12838,0,0,0
293.11,0.89158,3.2183,0.13318,0.12865,0,0,0
293.61,0.89313,3.2197,0.13341,0.12906,0,0,0
294.11,0.89498,3.221,0.13391,0.1293,0,0,0
294.61,0.89672,3.2223,0.13388,0.12974,0,0,0
295.11,0.89843,3.2237,0.13406,0.13015,0,0,0
295.61,0.90018,3.225,0.13438,0.13013,0,0,0
296.11,0.90203,3.226,0.13479,0.13048,0,0,0
296.61,0.90367,3.227,0.135,0.13066,0,0,0
297.11,0.90535,3.2283,0.13535,0.13086,0,0,0
297.61,0.9071,3.23,0.13567,0.1311,0,0,0
298.11,0.90904,3.2317,0.13594,0.13127,0,0,0
298.61,0.91106,3.233,0.13641,0.13145,0,0,0
299.11,0.91287,3.234,0.13658,0.13175,0,0,0
299.61,0.91448,3.2353,0.13682,0.13201,0,0,0
300.11,0.91626,3.2367,0.13693,0.13227,0,0,0
300.61,0.91831,3.2383,0.13743,0.13251,0,0,0
301.11,0.92005,3.2397,0.13775,0.13304,0,0,0
301.61,0.92153,3.2413,0.13787,0.13304,0,0,0
302.11,0.92324,3.2427,0.13822,0.13339,0,0,0
302.61,0.92492,3.244,0.1384,0.13369,0,0,0
303.11,0.9267,3.245,0.13872,0.13392,0,0,0
303.61,0.92855,3.2463,0.13901,0.13439,0,0,0
304.11,0.93053,3.2477,0.13919,0.13468,0,0,0
304.61,0.93221,3.249,0.13919,0.13501,0,0,0
305.11,0.93432,3.2503,0.13959,0.13539,0,0,0
305.61,0.936,3.2517,0.13977,0.13533,0,0,0
306.11,0.93791,3.253,0.14024,0.13565,0,0,0
306.61,0.93969,3.2543,0.14053,0.13586,0,0,0
307.11,0.94151,3.2557,0.14079,0.13618,0,0,0
307.61,0.94325,3.257,0.14143,0.13647,0,0,0
308.11,0.94503,3.2583,0.14143,0.13641,0,0,0
308.61,0.94681,3.2597,0.14172,0.13688,0,0,0
309.11,0.94839,3.261,0.14219,0.13712,0,0,0
309.61,0.95007,3.262,0.14222,0.13744,0,0,0
310.11,0.95188,3.263,0.1428,0.13767,0,0,0
310.61,0.954,3.2643,0.143,0.13791,0,0,0
311.11,0.95608,3.266,0.14338,0.13829,0,0,0
311.61,0.95762,3.2677,0.14362,0.13864,0,0,0
312.11,0.95954,3.269,0.14388,0.13881,0,0,0
312.61,0.96152,3.27,0.14393,0.13914,0,0,0
313.11,0.96313,3.2713,0.14431,0.13946,0,0,0
313.61,0.96477,3.2727,0.1446,0.13969,0,0,0
314.11,0.96669,3.274,0.14492,0.13995,0,0,0
314.61,0.96847,3.275,0.14516,0.1403,0,0,0
315.11,0.97008,3.2763,0.14542,0.14057,0,0,0
315.61,0.97192,3.2777,0.14568,0.14062,0,0,0
316.11,0.97357,3.2793,0.14582,0.14094,0,0,0
316.61,0.97565,3.2807,0.14635,0.1413,0,0,0
317.11,0.9775,3.282,0.1464,0.14156,0,0,0
317.61,0.97964,3.2833,0.14701,0.14179,0,0,0
318.11,0.98079,3.2847,0.1473,0.14217,0,0,0
318.61,0.9831,3.286,0.14736,0.14264,0,0,0
319.11,0.98492,3.287,0.14808,0.14278,0,0,0
319.61,0.98666,3.288,0.148,0.14307,0,0,0
320.11,0.98851,3.2893,0.14855,0.14327,0,0,0
320.61,0.99012,3.2907,0.14858,0.14368,0,0,0
321.11,0.99197,3.292,0.14892,0.14406,0,0,0
321.61,0.99368,3.293,0.14933,0.14432,0,0,0
322.11,0.99532,3.294,0.1495,0.14447,0,0,0
322.61,0.99704,3.295,0.14991,0.14482,0,0,0
323.11,0.99895,3.2963,0.15011,0.14496,0,0,0
323.61,1.001,3.2977,0.15046,0.14528,0,0,0
324.11,1.0027,3.2993,0.15049,0.14548,0,0,0
324.61,1.0044,3.3007,0.15103,0.14578,0,0,0
325.11,1.0064,3.302,0.15138,0.14609,0,0,0
325.61,1.0083,3.303,0.15147,0.14627,0,0,0
326.11,1.0099,3.3043,0.15178,0.14665,0,0,0
326.61,1.0117,3.3057,0.1521,0.14711,0,0,0
327.11,1.0137,3.307,0.15253,0.14723,0,0,0
327.61,1.0155,3.3083,0.15265,0.1478,0,0,0
328.11,1.0171,3.3097,0.15302,0.14798,0,0,0
328.61,1.0187,3.311,0.1534,0.1483,0,0,0
329.11,1.0206,3.312,0.15363,0.14885,0,0,0
329.61,1.0226,3.313,0.15397,0.14905,0,0,0
330.11,1.0243,3.314,0.15429,0.14931,0,0,0
330.61,1.0264,3.3153,0.15463,0.14948,0,0,0
331.11,1.0282,3.3167,0.15501,0.1498,0,0,0
331.61,1.0302,3.318,0.15512,0.14997,0,0,0
332.11,1.0319,3.319,0.15567,0.15035,0,0,0
332.61,1.0336,3.32,0.15593,0.15041,0,0,0
333.11,1.0353,3.3213,0.15619,0.15084,0,0,0
333.61,1.0372,3.3227,0.15636,0.15119,0,0,0
334.11,1.0389,3.324,0.1569,0.15122,0,0,0
334.61,1.0405,3.3253,0.15711,0.15162,0,0,0
335.11,1.0424,3.3267,0.15745,0.15197,0,0,0
335.61,1.0441,3.328,0.15779,0.15211,0,0,0
336.11,1.046,3.329,0.15805,0.15266,0,0,0
336.61,1.0477,3.33,0.15822,0.15298,0,0,0
337.11,1.0494,3.3313,0.1586,0.15335,0,0,0
337.61,1.0515,3.3327,0.1588,0.15364,0,0,0
338.11,1.0533,3.334,0.15894,0.15384,0,0,0
338.61,1.0551,3.335,0.1592,0.15419,0,0,0
339.11,1.057,3.336,0.15965,0.15453,0,0,0
339.61,1.0585,3.3373,0.15974,0.15476,0,0,0
340.11,1.0604,3.3387,0.16031,0.15513,0,0,0
340.61,1.0619,3.34,0.16077,0.15519,0,0,0
341.11,1.0634,3.341,0.16086,0.15559,0,0,0
341.61,1.0654,3.342,0.16123,0.15591,0,0,0
342.11,1.0671,3.3433,0.16166,0.15631,0,0,0
342.61,1.0687,3.3447,0.16197,0.15654,0,0,0
343.11,1.0707,3.346,0.16226,0.1566,0,0,0
343.61,1.0723,3.3473,0.16257,0.15715,0,0,0
344.11,1.0742,3.3487,0.16297,0.15741,0,0,0
344.61,1.0761,3.35,0.16342,0.15783,0,0,0
345.11,1.0778,3.351,0.16365,0.15804,0,0,0
345.61,1.0796,3.352,0.16391,0.15841,0,0,0
346.11,1.0816,3.353,0.16405,0.15867,0,0,0
346.61,1.0831,3.3543,0.16448,0.15889,0,0,0
347.11,1.0849,3.3557,0.16476,0.1591,0,0,0
347.61,1.0868,3.357,0.16488,0.1593,0,0,0
348.11,1.0886,3.358,0.16513,0.15975,0,0,0
348.61,1.0901,3.359,0.16548,0.15995,0,0,0
349.11,1.092,3.36,0.16576,0.16018,0,0,0
349.61,1.0939,3.361,0.16604,0.1605,0,0,0
350.11,1.0958,3.3623,0.16639,0.16075,0,0,0
350.61,1.0975,3.3637,0.16681,0.16138,0,0,0
351.11,1.0995,3.365,0.1671,0.16155,0,0,0
351.61,1.1014,3.3663,0.16738,0.1619,0,0,0
352.11,1.1031,3.3677,0.16783,0.16221,0,0,0
352.61,1.105,3.369,0.16823,0.1625,0,0,0
353.11,1.1067,3.37,0.16863,0.1629,0,0,0
353.61,1.1087,3.371,0.16886,0.16318,0,0,0
354.11,1.1102,3.372,0.16928,0.16355,0,0,0
354.61,1.1119,3.373,0.16951,0.16384,0,0,0
355.11,1.1138,3.374,0.16965,0.16415,0,0,0
355.61,1.1157,3.375,0.17016,0.16432,0,0,0
356.11,1.1174,3.376,0.1703,0.16464,0,0,0
356.61,1.1193,3.3773,0.17047,0.16501,0,0,0
357.11,1.1211,3.3784,0.17089,0.16521,0,0,0
357.61,1.1231,3.3796,0.17121,0.16538,0,0,0
358.11,1.1249,3.3807,0.17123,0.16575,0,0,0
358.61,1.1265,3.382,0.17174,0.16609,0,0,0
359.11,1.1284,3.383,0.17217,0.16614,0,0,0
359.61,1.1302,3.3843,0.17245,0.16657,0,0,0
360.11,1.1319,3.3857,0.17296,0.16691,0,0,0
360.61,1.1336,3.387,0.17341,0.16725,0,0,0
361.11,1.1354,3.388,0.17358,0.16774,0,0,0
361.61,1.1372,3.389,0.17381,0.16793,0,0,0
362.11,1.139,3.39,0.17431,0.1683,0,0,0
362.61,1.1408,3.3913,0.17471,0.16864,0,0,0
363.11,1.1428,3.3924,0.17507,0.16887,0,0,0
363.61,1.1444,3.3936,0.17527,0.16929,0,0,0
364.11,1.1464,3.3947,0.17544,0.16964,0,0,0
364.61,1.1482,3.396,0.17597,0.16995,0,0,0
365.11,1.15,3.397,0.1764,0.17012,0,0,0
365.61,1.1517,3.398,0.17637,0.17029,0,0,0
366.11,1.1532,3.399,0.17685,0.17057,0,0,0
366.61,1.1551,3.4,0.17713,0.17071,0,0,0
367.11,1.1569,3.401,0.17727,0.17117,0,0,0
367.61,1.1588,3.402,0.1778,0.17156,0,0,0
368.11,1.1607,3.403,0.17803,0.1717,0,0,0
368.61,1.1623,3.4043,0.17856,0.17221,0,0,0
369.11,1.164,3.4057,0.17853,0.17244,0,0,0
369.61,1.1659,3.407,0.17915,0.17286,0,0,0
370.11,1.1675,3.408,0.17921,0.17317,0,0,0
370.61,1.1697,3.409,0.17966,0.17357,0,0,0
371.11,1.1712,3.41,0.18013,0.17371,0,0,0
371.61,1.173,3.411,0.18047,0.17405,0,0,0
372.11,1.175,3.4123,0.18084,0.17461,0,0,0
372.61,1.1766,3.4137,0.18112,0.17486,0,0,0
373.11,1.1785,3.415,0.18156,0.17518,0,0,0
373.61,1.1803,3.4157,0.18204,0.17557,0,0,0
374.11,1.1821,3.4163,0.18212,0.17577,0,0,0
374.61,1.1839,3.4173,0.18232,0.17602,0,0,0
375.11,1.1857,3.4187,0.18285,0.17636,0,0,0
375.61,1.1876,3.42,0.18288,0.17655,0,0,0
376.11,1.1895,3.421,0.18333,0.17687,0,0,0
376.61,1.191,3.422,0.1838,0.17715,0,0,0
377.11,1.193,3.423,0.18428,0.1776,0,0,0
377.61,1.1949,3.4243,0.18458,0.17799,0,0,0
378.11,1.1967,3.4257,0.18469,0.1783,0,0,0
378.61,1.1984,3.427,0.1852,0.17875,0,0,0
379.11,1.2001,3.428,0.18556,0.17909,0,0,0
379.61,1.202,3.429,0.18575,0.17951,0,0,0
380.11,1.2037,3.43,0.18628,0.17981,0,0,0
380.61,1.2052,3.431,0.18662,0.18021,0,0,0
381.11,1.2073,3.432,0.18681,0.18052,0,0,0
381.61,1.209,3.4327,0.18723,0.18091,0,0,0
382.11,1.2108,3.4336,0.18768,0.18099,0,0,0
382.61,1.2128,3.4347,0.1879,0.1815,0,0,0
383.11,1.2144,3.436,0.18865,0.1818,0,0,0
383.61,1.2161,3.437,0.18865,0.18211,0,0,0
384.11,1.2182,3.438,0.18909,0.18242,0,0,0
384.61,1.2198,3.439,0.18929,0.1827,0,0,0
385.11,1.2214,3.44,0.18976,0.18301,0,0,0
385.61,1.2233,3.441,0.18993,0.18317,0,0,0
386.11,1.225,3.4423,0.19034,0.18362,0,0,0
386.61,1.2268,3.4437,0.19068,0.18382,0,0,0
387.11,1.2287,3.445,0.19106,0.18429,0,0,0
387.61,1.2302,3.446,0.19129,0.18471,0,0,0
388.11,1.2321,3.447,0.19165,0.18499,0,0,0
388.61,1.234,3.448,0.19201,0.18519,0,0,0
389.11,1.2358,3.449,0.19248,0.18566,0,0,0
389.61,1.2379,3.45,0.19287,0.186,0,0,0
390.11,1.2393,3.451,0.19295,0.18644,0,0,0
390.61,1.241,3.452,0.19347,0.18686,0,0,0
391.11,1.2429,3.453,0.19367,0.18719,0,0,0
391.61,1.2449,3.454,0.19419,0.18764,0,0,0
392.11,1.2466,3.455,0.19444,0.18794,0,0,0
392.61,1.2481,3.456,0.195,0.18825,0,0,0
393.11,1.2502,3.457,0.19541,0.18861,0,0,0
393.61,1.252,3.458,0.19582,0.18906,0,0,0
394.11,1.2537,3.459,0.19602,0.18937,0,0,0
394.61,1.2554,3.46,0.1964,0.18967,0,0,0
395.11,1.2576,3.4613,0.19668,0.18992,0,0,0
395.61,1.2592,3.4624,0.19704,0.19034,0,0,0
396.11,1.2612,3.4633,0.19745,0.19078,0,0,0
396.61,1.2632,3.464,0.19792,0.19103,0,0,0
397.11,1.265,3.465,0.19819,0.19109,0,0,0
397.61,1.267,3.466,0.19864,0.19158,0,0,0
398.11,1.2685,3.4673,0.19916,0.19175,0,0,0
398.61,1.2706,3.4684,0.19952,0.19228,0,0,0
399.11,1.2723,3.4693,0.19976,0.19247,0,0,0
399.61,1.2739,3.47,0.2002,0.19283,0,0,0
400.11,1.2762,3.471,0.20059,0.19327,0,0,0
400.61,1.2778,3.472,0.20108,0.19363,0,0,0
401.11,1.2795,3.473,0.20116,0.19413,0,0,0
401.61,1.2815,3.474,0.20171,0.19438,0,0,0
402.11,1.2835,3.475,0.20191,0.19499,0,0,0
402.61,1.2853,3.476,0.20218,0.1954,0,0,0
403.11,1.287,3.477,0.20295,0.19565,0,0,0
403.61,1.289,3.478,0.20306,0.1962,0,0,0
404.11,1.2906,3.4793,0.20328,0.19637,0,0,0
404.61,1.2926,3.4804,0.20366,0.19695,0,0,0
405.11,1.2944,3.4813,0.20399,0.19717,0,0,0
405.61,1.2962,3.482,0.20437,0.19747,0,0,0
406.11,1.2981,3.4833,0.20478,0.19794,0,0,0
406.61,1.2998,3.4847,0.20519,0.19827,0,0,0
407.11,1.3017,3.4857,0.20582,0.1986,0,0,0
407.61,1.3036,3.4863,0.20623,0.19879,0,0,0
408.11,1.3052,3.487,0.20658,0.19901,0,0,0
408.61,1.3072,3.488,0.20702,0.19956,0,0,0
409.11,1.309,3.4893,0.20746,0.19984,0,0,0
409.61,1.3109,3.4907,0.20776,0.20028,0,0,0
410.11,1.3126,3.4917,0.20798,0.20066,0,0,0
410.61,1.3145,3.4926,0.20871,0.20099,0,0,0
411.11,1.3165,3.4934,0.20879,0.20141,0,0,0
411.61,1.3183,3.4943,0.20915,0.20198,0,0,0
412.11,1.3199,3.495,0.2095,0.20242,0,0,0
412.61,1.3219,3.496,0.20964,0.20261,0,0,0
413.11,1.3238,3.497,0.20999,0.20319,0,0,0
413.61,1.3256,3.498,0.21048,0.20343,0,0,0
414.11,1.3273,3.4993,0.21073,0.20401,0,0,0
414.61,1.3293,3.5007,0.21127,0.20423,0,0,0
415.11,1.3312,3.502,0.21141,0.20486,0,0,0
415.61,1.3331,3.5027,0.21206,0.20527,0,0,0
416.11,1.3351,3.5033,0.21268,0.2056,0,0,0
416.61,1.3369,3.504,0.21309,0.20623,0,0,0
417.11,1.3385,3.505,0.21331,0.20631,0,0,0
417.61,1.3405,3.506,0.21393,0.20661,0,0,0
418.11,1.3422,3.507,0.2142,0.20715,0,0,0
418.61,1.3442,3.508,0.21463,0.20734,0,0,0
419.11,1.3459,3.509,0.21523,0.20775,0,0,0
419.61,1.3478,3.51,0.21564,0.20819,0,0,0
420.11,1.3494,3.511,0.21602,0.20857,0,0,0
420.61,1.3514,3.512,0.21607,0.2089,0,0,0
421.11,1.3533,3.513,0.21669,0.20939,0,0,0
421.61,1.3551,3.514,0.21702,0.20955,0,0,0
422.11,1.3572,3.515,0.21737,0.21012,0,0,0
422.61,1.3589,3.516,0.2178,0.21067,0,0,0
423.11,1.3609,3.517,0.21828,0.21108,0,0,0
423.61,1.3627,3.518,0.21866,0.21157,0,0,0
424.11,1.3648,3.519,0.21923,0.21189,0,0,0
424.61,1.3666,3.5197,0.21955,0.21241,0,0,0
425.11,1.3682,3.5203,0.2202,0.21281,0,0,0
425.61,1.3699,3.521,0.2206,0.21317,0,0,0
426.11,1.372,3.522,0.22103,0.21374,0,0,0
426.61,1.3736,3.523,0.22141,0.21409,0,0,0
427.11,1.3755,3.524,0.22176,0.21436,0,0,0
427.61,1.3774,3.525,0.22211,0.21466,0,0,0
428.11,1.3794,3.526,0.22246,0.21504,0,0,0
428.61,1.381,3.527,0.22284,0.21539,0,0,0
429.11,1.3828,3.528,0.22308,0.21577,0,0,0
429.61,1.3848,3.529,0.22364,0.21607,0,0,0
430.11,1.3865,3.53,0.22375,0.21647,0,0,0
430.61,1.3886,3.531,0.22402,0.21701,0,0,0
431.11,1.3905,3.5323,0.22455,0.21736,0,0,0
431.61,1.3923,3.5337,0.22512,0.21793,0,0,0
432.11,1.3943,3.5347,0.22571,0.21839,0,0,0
432.61,1.3961,3.5353,0.22635,0.21879,0,0,0
433.11,1.3981,3.5357,0.22688,0.21931,0,0,0
433.61,1.3999,3.5366,0.22723,0.21979,0,0,0
434.11,1.4019,3.5377,0.2279,0.22036,0,0,0
434.61,1.4038,3.539,0.22814,0.22063,0,0,0
435.11,1.4057,3.5397,0.22854,0.22125,0,0,0
435.61,1.4077,3.5403,0.22926,0.22154,0,0,0
436.11,1.4096,3.541,0.22958,0.222,0,0,0
436.61,1.4113,3.542,0.22977,0.22243,0,0,0
437.11,1.4132,3.543,0.23022,0.22278,0,0,0
437.61,1.4153,3.544,0.23054,0.22299,0,0,0
438.11,1.417,3.545,0.23081,0.22345,0,0,0
438.61,1.419,3.546,0.23121,0.22382,0,0,0
439.11,1.4208,3.547,0.23177,0.22431,0,0,0
439.61,1.4226,3.5477,0.23206,0.22482,0,0,0
440.11,1.4246,3.5483,0.23246,0.22535,0,0,0
440.61,1.4264,3.549,0.23339,0.22573,0,0,0
441.11,1.4283,3.55,0.23376,0.22624,0,0,0
441.61,1.4304,3.551,0.23403,0.22667,0,0,0
442.11,1.4323,3.552,0.23467,0.22712,0,0,0
442.61,1.4342,3.553,0.23536,0.22744,0,0,0
443.11,1.4359,3.554,0.23573,0.2279,0,0,0
443.61,1.4379,3.5547,0.23634,0.22841,0,0,0
444.11,1.4398,3.5553,0.23658,0.22921,0,0,0
444.61,1.4418,3.556,0.237,0.22923,0,0,0
445.11,1.4436,3.5573,0.2374,0.22977,0,0,0
445.61,1.4452,3.5584,0.23785,0.2303,0,0,0
446.11,1.4473,3.5593,0.23824,0.23073,0,0,0
446.61,1.4492,3.56,0.23856,0.23113,0,0,0
447.11,1.451,3.561,0.23901,0.23166,0,0,0
447.61,1.453,3.562,0.23962,0.23214,0,0,0
448.11,1.455,3.563,0.24028,0.23278,0,0,0
448.61,1.4567,3.5637,0.24078,0.23304,0,0,0
449.11,1.4587,3.5643,0.24097,0.23347,0,0,0
449.61,1.4607,3.565,0.24178,0.23403,0,0,0
450.11,1.4625,3.566,0.24215,0.2344,0,0,0
450.61,1.4643,3.567,0.2426,0.23483,0,0,0
451.11,1.4664,3.568,0.24321,0.23514,0,0,0
451.61,1.4681,3.569,0.24363,0.23565,0,0,0
452.11,1.47,3.5697,0.2441,0.23594,0,0,0
452.61,1.4716,3.5706,0.24442,0.23631,0,0,0
453.11,1.474,3.5714,0.24489,0.23681,0,0,0
453.61,1.4758,3.5723,0.24544,0.23721,0,0,0
454.11,1.4776,3.573,0.24586,0.23787,0,0,0
454.61,1.4794,3.574,0.24626,0.23819,0,0,0
455.11,1.4815,3.575,0.24696,0.23899,0,0,0
455.61,1.4835,3.576,0.24749,0.23951,0,0,0
456.11,1.4854,3.577,0.24785,0.24001,0,0,0
456.61,1.4874,3.578,0.24804,0.24025,0,0,0
457.11,1.4893,3.579,0.24903,0.24091,0,0,0
457.61,1.491,3.58,0.2495,0.24157,0,0,0
458.11,1.4931,3.5807,0.24995,0.242,0,0,0
458.61,1.4952,3.5813,0.25045,0.24239,0,0,0
459.11,1.4971,3.582,0.25076,0.24292,0,0,0
459.61,1.499,3.583,0.25157,0.24344,0,0,0
460.11,1.501,3.5837,0.25191,0.24373,0,0,0
460.61,1.503,3.5843,0.25248,0.24415,0,0,0
461.11,1.5047,3.585,0.25292,0.24486,0,0,0
461.61,1.5067,3.5857,0.25329,0.24531,0,0,0
462.11,1.5087,3.5863,0.25389,0.24557,0,0,0
462.61,1.5107,3.587,0.25472,0.24599,0,0,0
463.11,1.5125,3.588,0.25501,0.24673,0,0,0
463.61,1.5142,3.589,0.25569,0.24717,0,0,0
464.11,1.5165,3.59,0.25628,0.24762,0,0,0
464.61,1.5183,3.591,0.25698,0.24806,0,0,0
465.11,1.5204,3.592,0.25737,0.24872,0,0,0
465.61,1.5221,3.593,0.25807,0.24922,0,0,0
466.11,1.5241,3.594,0.25844,0.24953,0,0,0
466.61,1.5262,3.5947,0.25895,0.25,0,0,0
467.11,1.5281,3.5953,0.25929,0.25058,0,0,0
467.61,1.5301,3.596,0.25983,0.25123,0,0,0
468.11,1.5323,3.597,0.26027,0.25149,0,0,0
468.61,1.534,3.598,0.26108,0.25225,0,0,0
469.11,1.536,3.599,0.26115,0.25251,0,0,0
469.61,1.538,3.5997,0.26206,0.25298,0,0,0
470.11,1.5401,3.6003,0.26258,0.25368,0,0,0
470.61,1.5422,3.601,0.26322,0.25452,0,0,0
471.11,1.544,3.6017,0.26358,0.25485,0,0,0
471.61,1.5461,3.6023,0.26425,0.25548,0,0,0
472.11,1.5481,3.603,0.26485,0.25613,0,0,0
472.61,1.55,3.604,0.26559,0.25686,0,0,0
473.11,1.5519,3.605,0.26606,0.25735,0,0,0
473.61,1.554,3.606,0.26672,0.25766,0,0,0
474.11,1.5559,3.607,0.26706,0.25826,0,0,0
474.61,1.5579,3.608,0.26773,0.2588,0,0,0
475.11,1.56,3.6087,0.26824,0.25924,0,0,0
475.61,1.562,3.6093,0.26868,0.25973,0,0,0
476.11,1.5639,3.6097,0.26939,0.26012,0,0,0
476.61,1.5662,3.6106,0.26986,0.26087,0,0,0
477.11,1.568,3.6114,0.27065,0.26152,0,0,0
477.61,1.5702,3.6123,0.27109,0.26201,0,0,0
478.11,1.5722,3.613,0.2718,0.26279,0,0,0
478.61,1.5742,3.614,0.27231,0.26343,0,0,0
479.11,1.5762,3.615,0.27339,0.26387,0,0,0
479.61,1.5785,3.6157,0.27359,0.26454,0,0,0
480.11,1.5804,3.6163,0.27413,0.2651,0,0,0
480.61,1.5825,3.617,0.27507,0.2657,0,0,0
481.11,1.5844,3.618,0.27558,0.26644,0,0,0
481.61,1.5867,3.6187,0.27619,0.26693,0,0,0
482.11,1.5887,3.6193,0.27695,0.26745,0,0,0
482.61,1.5908,3.6197,0.27752,0.26793,0,0,0
483.11,1.5928,3.6203,0.27823,0.26858,0,0,0
483.61,1.5949,3.621,0.27851,0.26912,0,0,0
484.11,1.5971,3.622,0.27929,0.2696,0,0,0
484.61,1.5991,3.623,0.2797,0.27029,0,0,0
485.11,1.6011,3.6237,0.28044,0.27086,0,0,0
485.61,1.6029,3.6243,0.28117,0.27155,0,0,0
486.11,1.6052,3.625,0.28173,0.27209,0,0,0
486.61,1.6072,3.626,0.28221,0.27285,0,0,0
487.11,1.6094,3.6267,0.28282,0.27367,0,0,0
487.61,1.6112,3.6273,0.2836,0.27446,0,0,0
488.11,1.6134,3.628,0.28428,0.2749,0,0,0
488.61,1.6155,3.6287,0.28481,0.27543,0,0,0
489.11,1.6172,3.6296,0.28549,0.27614,0,0,0
489.61,1.6196,3.6304,0.28615,0.27673,0,0,0
490.11,1.6215,3.6313,0.28676,0.27726,0,0,0
490.61,1.6237,3.632,0.28739,0.27792,0,0,0
491.11,1.6258,3.6327,0.28807,0.27854,0,0,0
491.61,1.6278,3.6333,0.28877,0.2792,0,0,0
492.11,1.63,3.634,0.28945,0.28008,0,0,0
492.61,1.6321,3.6347,0.2901,0.28064,0,0,0
493.11,1.6341,3.6353,0.29096,0.28133,0,0,0
493.61,1.6362,3.636,0.29143,0.28178,0,0,0
494.11,1.6382,3.6367,0.29229,0.28254,0,0,0
494.61,1.6405,3.6376,0.29276,0.28307,0,0,0
495.11,1.6425,3.6384,0.29336,0.28373,0,0,0
495.61,1.6442,3.6393,0.29429,0.28434,0,0,0
496.11,1.6464,3.6397,0.29484,0.28484,0,0,0
496.61,1.6487,3.6403,0.29574,0.2858,0,0,0
497.11,1.651,3.6407,0.29646,0.28643,0,0,0
497.61,1.653,3.6413,0.29699,0.28686,0,0,0
498.11,1.6551,3.642,0.29791,0.28764,0,0,0
498.61,1.6571,3.643,0.29856,0.2885,0,0,0
499.11,1.6592,3.644,0.29893,0.28918,0,0,0
499.61,1.6615,3.645,0.2996,0.28981,0,0,0
500.11,1.6637,3.6457,0.30055,0.29056,0,0,0
500.61,1.6658,3.646,0.30122,0.29116,0,0,0
501.11,1.6681,3.6463,0.30186,0.29204,0,0,0
501.61,1.6701,3.647,0.30261,0.29289,0,0,0
502.11,1.6721,3.648,0.30338,0.29347,0,0,0
502.61,1.6744,3.6487,0.30404,0.29422,0,0,0
503.11,1.6766,3.6493,0.30494,0.29482,0,0,0
503.61,1.6788,3.6497,0.3058,0.29569,0,0,0
504.11,1.681,3.6503,0.30654,0.29619,0,0,0
504.61,1.6832,3.6507,0.30733,0.29682,0,0,0
505.11,1.6852,3.6513,0.30793,0.29789,0,0,0
505.61,1.6876,3.652,0.30879,0.29851,0,0,0
506.11,1.6897,3.6527,0.30958,0.29918,0,0,0
506.61,1.6919,3.6533,0.31039,0.3001,0,0,0
507.11,1.6943,3.654,0.3114,0.30068,0,0,0
507.61,1.6963,3.655,0.31191,0.3017,0,0,0
508.11,1.6986,3.6557,0.31273,0.30237,0,0,0
508.61,1.701,3.656,0.31339,0.30289,0,0,0
509.11,1.7031,3.6563,0.31425,0.30398,0,0,0
509.61,1.7054,3.657,0.31488,0.30445,0,0,0
510.11,1.7076,3.6577,0.31572,0.30529,0,0,0
510.61,1.7098,3.658,0.31645,0.30611,0,0,0
511.11,1.7121,3.6583,0.31745,0.30697,0,0,0
511.61,1.7143,3.659,0.31836,0.30786,0,0,0
512.11,1.7164,3.6597,0.31899,0.30862,0,0,0
512.61,1.7188,3.6603,0.31975,0.30971,0,0,0
513.11,1.721,3.6607,0.32072,0.3104,0,0,0
513.61,1.7233,3.6613,0.32172,0.31126,0,0,0
514.11,1.7256,3.662,0.32233,0.31222,0,0,0
514.61,1.728,3.663,0.32323,0.31303,0,0,0
515.11,1.7303,3.6637,0.32435,0.31403,0,0,0
515.61,1.7327,3.664,0.32488,0.31457,0,0,0
516.11,1.7348,3.6643,0.3259,0.3157,0,0,0
516.61,1.7374,3.665,0.32662,0.31624,0,0,0
517.11,1.7394,3.6657,0.328,0.31695,0,0,0
517.61,1.7416,3.6663,0.32878,0.31773,0,0,0
518.11,1.7439,3.6667,0.32991,0.31866,0,0,0
518.61,1.7463,3.667,0.33068,0.31968,0,0,0
519.11,1.749,3.6673,0.33158,0.32049,0,0,0
519.61,1.7511,3.6677,0.33256,0.32132,0,0,0
520.11,1.7535,3.6683,0.3335,0.32226,0,0,0
520.61,1.7558,3.6687,0.33432,0.32316,0,0,0
521.11,1.7584,3.669,0.33564,0.32392,0,0,0
521.61,1.7606,3.6693,0.33641,0.32513,0,0,0
522.11,1.7629,3.6697,0.33715,0.32588,0,0,0
522.61,1.7653,3.6703,0.33789,0.32675,0,0,0
523.11,1.7676,3.671,0.33916,0.32765,0,0,0
523.61,1.77,3.6717,0.34014,0.32845,0,0,0
524.11,1.7725,3.672,0.34091,0.32963,0,0,0
524.61,1.7749,3.6723,0.34193,0.33033,0,0,0
525.11,1.7775,3.673,0.34291,0.33156,0,0,0
525.61,1.7799,3.6737,0.34429,0.33226,0,0,0
526.11,1.7825,3.674,0.34524,0.33346,0,0,0
526.61,1.7844,3.674,0.34653,0.33447,0,0,0
527.11,1.7875,3.674,0.34733,0.33553,0,0,0
527.61,1.7897,3.6743,0.34852,0.33649,0,0,0
528.11,1.7921,3.6747,0.34925,0.33778,0,0,0
528.61,1.7946,3.675,0.35017,0.33881,0,0,0
529.11,1.7972,3.675,0.35114,0.33977,0,0,0
529.61,1.7998,3.6753,0.35235,0.34068,0,0,0
530.11,1.8024,3.6757,0.35334,0.34163,0,0,0
530.61,1.8046,3.6763,0.35449,0.3427,0,0,0
531.11,1.8071,3.6767,0.35583,0.34373,0,0,0
531.61,1.8097,3.677,0.35652,0.34497,0,0,0
532.11,1.8125,3.677,0.35807,0.34599,0,0,0
532.61,1.8149,3.677,0.35912,0.34713,0,0,0
533.11,1.8175,3.6773,0.36029,0.3482,0,0,0
533.61,1.8201,3.6777,0.36135,0.34933,0,0,0
534.11,1.8225,3.678,0.3628,0.35059,0,0,0
534.61,1.8253,3.6783,0.36366,0.35163,0,0,0
535.11,1.8278,3.6787,0.36476,0.35274,0,0,0
535.61,1.8303,3.679,0.36611,0.35382,0,0,0
536.11,1.8328,3.679,0.36732,0.35512,0,0,0
536.61,1.8356,3.679,0.36843,0.35653,0,0,0
537.11,1.8383,3.679,0.36989,0.35766,0,0,0
537.61,1.8409,3.679,0.37119,0.35869,0,0,0
538.11,1.8437,3.679,0.3723,0.36021,0,0,0
538.61,1.8462,3.679,0.37346,0.36136,0,0,0
539.11,1.8489,3.679,0.37448,0.36248,0,0,0
539.61,1.8517,3.679,0.37588,0.36391,0,0,0
540.11,1.8545,3.679,0.37694,0.36507,0,0,0
540.61,1.8572,3.679,0.37835,0.36645,0,0,0
541.11,1.8602,3.679,0.37931,0.36782,0,0,0
541.61,1.8628,3.679,0.38067,0.36877,0,0,0
542.11,1.8656,3.679,0.38216,0.37028,0,0,0
542.61,1.8684,3.679,0.38335,0.37156,0,0,0
543.11,1.8712,3.6787,0.38492,0.37301,0,0,0
543.61,1.8741,3.6783,0.38625,0.37421,0,0,0
544.11,1.8771,3.678,0.38764,0.37565,0,0,0
544.61,1.8798,3.678,0.38885,0.37733,0,0,0
545.11,1.8827,3.678,0.39048,0.37868,0,0,0
545.61,1.8853,3.6777,0.39173,0.37999,0,0,0
546.11,1.8885,3.6773,0.39316,0.38144,0,0,0
546.61,1.8914,3.677,0.39445,0.38249,0,0,0
547.11,1.8941,3.6767,0.3959,0.38394,0,0,0
547.61,1.8972,3.676,0.39759,0.38545,0,0,0
548.11,1.8999,3.6753,0.39834,0.38691,0,0,0
548.61,1.9032,3.6747,0.40057,0.38814,0,0,0
549.11,1.9063,3.6743,0.40212,0.38998,0,0,0
549.61,1.9091,3.6737,0.40387,0.39148,0,0,0
550.11,1.9123,3.673,0.40555,0.39318,0,0,0
550.61,1.9154,3.672,0.40678,0.39452,0,0,0
551.11,1.9184,3.671,0.4083,0.39626,0,0,0
551.61,1.9216,3.67,0.40995,0.39804,0,0,0
552.11,1.9246,3.6693,0.41133,0.39953,0,0,0
552.61,1.9278,3.6684,0.41295,0.40126,0,0,0
553.11,1.9308,3.6673,0.41464,0.40312,0,0,0
553.61,1.9339,3.666,0.41652,0.40449,0,0,0
554.11,1.937,3.6647,0.41827,0.40678,0,0,0
554.61,1.9402,3.663,0.4199,0.40836,0,0,0
555.11,1.9434,3.6613,0.42166,0.41033,0,0,0
555.61,1.9468,3.6597,0.42351,0.4122,0,0,0
556.11,1.95,3.6577,0.4254,0.41422,0,0,0
556.61,1.9532,3.6553,0.42711,0.41575,0,0,0
557.11,1.9566,3.6533,0.4284,0.41825,0,0,0
557.61,1.9598,3.6517,0.43006,0.42015,0,0,0
558.11,1.9631,3.6497,0.4322,0.42228,0,0,0
558.61,1.9665,3.647,0.43401,0.424,0,0,0
559.11,1.9699,3.644,0.43594,0.42608,0,0,0
559.61,1.9733,3.641,0.43798,0.4281,0,0,0
560.11,1.9767,3.638,0.43982,0.43017,0,0,0
560.61,1.9802,3.6347,0.44189,0.43207,0,0,0
561.11,1.9835,3.6307,0.44375,0.43477,0,0,0
561.61,1.9874,3.6254,0.44607,0.43753,0,0,0
562.11,1.9913,3.6193,0.44779,0.44008,0,0,0
562.61,1.9947,3.6136,0.44966,0.44225,0,0,0
563.11,1.9982,3.6093,0.45186,0.44481,0,0,0
563.61,2.0017,3.6057,0.45342,0.44769,0,0,0
564.11,2.0054,3.602,0.45602,0.44998,0,0,0
564.61,2.0089,3.598,0.45797,0.45283,0,0,0
565.11,2.0126,3.5931,0.46045,0.45575,0,0,0
565.61,2.0164,3.5867,0.46238,0.45832,0,0,0
566.11,2.0199,3.5799,0.46407,0.4612,0,0,0
566.61,2.0238,3.5734,0.46605,0.46365,0,0,0
567.11,2.0275,3.5673,0.46809,0.46679,0,0,0
567.61,2.0314,3.5599,0.47044,0.46942,0,0,0
568.11,2.0363,3.5436,0.47338,0.47918,0,0,0