File: polyN_optimization/results_exp/AA6014-T4/NT20_45_1.csv
Time[s],Displacement[mm],Force[kN],AxStrain_1,AxStrain_2,Thickness[mm],OuterWidth[mm],InnerWidth[mm]
0.58,0,-0.0051959,0,0,1.1144,20,9.9496
1.08,0.000191,0.0041333,0.00014299,0,0,0,0
1.58,0.000738,0.014863,0.00026197,0,0,0,0
2.08,0.001107,0.037718,0.00034894,0,0,0,0
2.58,0.001828,0.063996,0.00017898,0,0,0,0
3.08,0.002291,0.087855,0.00021598,0,0,0,0
3.58,0.00256,0.10571,0.00020098,0,0,0,0
4.08,0.002708,0.12043,0.00019998,0,0,0,0
4.58,0.002956,0.13529,0.00038493,0,0,0,0
5.08,0.003476,0.15315,0.00024097,0,0,0,0
5.58,0.00377,0.173,0.00024097,0,0,0,0
6.08,0.004142,0.19285,0.00025297,0,0,0,0
6.58,0.004666,0.21186,0.00019698,0,0,0,0
7.08,0.004816,0.22985,0.00032995,0,0,0,0
7.58,0.004922,0.24585,0.00017598,0,0,0,0
8.08,0.004968,0.25785,0.00021198,0,0,0,0
8.58,0.0056,0.26729,0.00025597,0,0,0,0
9.08,0.005938,0.27657,0.00036093,0,0,0,0
9.58,0.006026,0.28843,0.0004429,0,0,0,0
10.08,0.006504,0.303,0.00033594,0,0,0,0
10.58,0.006732,0.31814,0.0004469,0,0,0,0
11.08,0.007307,0.33286,0.00040092,0,0,0,0
11.58,0.007365,0.34714,0.00031695,0,0,0,0
12.08,0.008042,0.361,0.00049988,0,0,0,0
12.58,0.008306,0.37486,0.00052486,0,0,0,0
13.08,0.008798,0.38914,0.00053686,0,0,0,0
13.58,0.009141,0.40329,0.00055085,0,0,0,0
14.08,0.009626,0.41757,0.00048988,0,0,0,0
14.58,0.009721,0.43329,0.00061781,0,0,0,0
15.08,0.010033,0.44914,0.00062381,0,0,0,0
15.58,0.010357,0.46486,0.0004569,0,0,0,0
16.08,0.010424,0.48014,0.00048688,0,0,0,0
16.58,0.010877,0.495,0.00065479,0,0,0,0
17.08,0.011109,0.50986,0.00070175,0,0,0,0
17.58,0.0113,0.52514,0.0007717,0,0,0,0
18.08,0.011552,0.54,0.00057384,0,0,0,0
18.58,0.011901,0.55515,0.00057084,0,0,0,0
19.08,0.012224,0.572,0.00064479,0,0,0,0
19.58,0.012657,0.58885,0.00070175,0,0,0,0
20.08,0.013113,0.60486,0.00056684,0,0,0,0
20.58,0.013436,0.62014,0.00066078,0,0,0,0
21.08,0.013852,0.635,0.00076471,0,0,0,0
21.58,0.01452,0.65015,0.00075871,0,0,0,0
22.08,0.014899,0.66614,0.00071474,0,0,0,0
22.58,0.01546,0.68171,0.00085563,0,0,0,0
23.08,0.016105,0.69715,0.00083265,0,0,0,0
23.58,0.016642,0.714,0.0007757,0,0,0,0
24.08,0.017004,0.73085,0.00090559,0,0,0,0
24.58,0.017431,0.74715,0.00091258,0,0,0,0
25.08,0.017834,0.76285,0.00094256,0,0,0,0
25.58,0.018203,0.778,0.0010035,0,0,0,0
26.08,0.018743,0.79315,0.00098951,0,0,0,0
26.58,0.018857,0.80885,0.00097353,0,0,0,0
27.08,0.019274,0.824,0.0008926,0,0,0,0
27.58,0.019452,0.83915,0.00097353,0,0,0,0
28.08,0.019754,0.85571,0.00094955,0,0,0,0
28.58,0.020093,0.87214,0.00097353,0,0,0,0
29.08,0.020482,0.88815,0.00087562,0,0,0,0
29.58,0.020691,0.90385,0.00097952,0,0,0,0
30.08,0.02107,0.919,0.00091958,0,0,0,0
30.58,0.02154,0.93386,0.0010235,0,0,0,0
31.08,0.021819,0.94914,0.00095954,0,0,0,0
31.58,0.022265,0.96429,0.0009995,0,0,0,0
32.08,0.023061,0.97957,0.0010405,0,0,0,0
32.58,0.023484,0.996,0.0010205,0,0,0,0
33.08,0.023967,1.0124,0.0011513,0,0,0,0
33.58,0.024652,1.0274,0.00098951,0,0,0,0
34.08,0.025112,1.0421,0.0012083,0,0,0,0
34.58,0.025565,1.0571,0.0013151,0,0,0,0
35.08,0.026176,1.0729,0.0012083,0,0,0,0
35.58,0.026653,1.0881,0.0013251,0,0,0,0
36.08,0.027418,1.1027,0.0012952,0,0,0,0
36.58,0.027828,1.1171,0.0012452,0,0,0,0
37.08,0.028264,1.1319,0.0013651,0,0,0,0
37.58,0.028768,1.1469,0.001422,0,0,0,0
38.08,0.029261,1.162,0.001396,0,0,0,0
38.58,0.029671,1.1771,0.001422,0,0,0,0
39.08,0.030238,1.1907,0.0014659,0,0,0,0
39.58,0.030987,1.2041,0.0015198,0,0,0,0
40.08,0.031175,1.2179,0.0014929,0,0,0,0
40.58,0.031612,1.2313,0.0014589,0,0,0,0
41.08,0.032444,1.2446,0.0014529,0,0,0,0
41.58,0.033293,1.2587,0.0016436,0,0,0,0
42.08,0.034244,1.2719,0.0016466,0,0,0,0
42.58,0.035221,1.2839,0.0019281,0,0,0,0
43.08,0.036372,1.2951,0.0020998,0,0,0,0
43.58,0.037544,1.3054,0.0021497,0,0,0,0
44.08,0.039081,1.3146,0.0025687,0,0,0,0
44.58,0.040307,1.3231,0.002819,0,0,0,0
45.08,0.041757,1.331,0.0030234,0,0,0,0
45.58,0.043204,1.3386,0.0035058,0,0,0,0
46.08,0.044886,1.3464,0.003746,0,0,0,0
46.58,0.046789,1.3543,0.0040876,0,0,0,0
47.08,0.048347,1.362,0.0043177,0,0,0,0
47.58,0.050103,1.3697,0.0045685,0,0,0,0
48.08,0.051983,1.3767,0.0047527,0,0,0,0
48.58,0.054017,1.3836,0.0049258,0,0,0,0
49.08,0.056169,1.3904,0.0049159,0,0,0,0
49.58,0.058244,1.397,0.0050064,0,0,0,0
50.08,0.06049,1.4033,0.0051835,0,0,0,0
50.58,0.062666,1.41,0.0052233,0,0,0,0
51.08,0.064824,1.4164,0.0054879,0,0,0,0
51.58,0.066865,1.4226,0.0055943,0,0,0,0
52.08,0.068836,1.4284,0.0058916,0,0,0,0
52.58,0.071109,1.434,0.0058916,0,0,0,0
53.08,0.072932,1.4396,0.0062514,0,0,0,0
53.58,0.075289,1.4451,0.0064114,0,0,0,0
54.08,0.077266,1.4506,0.006775,0,0,0,0
54.58,0.079529,1.456,0.0070819,0,0,0,0
55.08,0.08208,1.4614,0.007336,0,0,0,0
55.58,0.084256,1.4666,0.0076923,0,0,0,0
56.08,0.086908,1.472,0.0080287,0,0,0,0
56.58,0.089375,1.4774,0.008478,0,0,0,0
57.08,0.091863,1.4823,0.0086911,0,0,0,0
57.58,0.094344,1.487,0.0088537,0,0,0,0
58.08,0.096187,1.492,0.0090509,0,0,0,0
58.58,0.09845,1.4967,0.0091441,0,0,0,0
59.08,0.10071,1.5016,0.0093303,0,0,0,0
59.58,0.10316,1.5067,0.0094096,0,0,0,0
60.08,0.10548,1.5117,0.0093333,0,0,0,0
60.58,0.10786,1.5163,0.0095661,0,0,0,0
61.08,0.11043,1.5207,0.0096226,0,0,0,0
61.58,0.11299,1.525,0.0095562,0,0,0,0
62.08,0.11548,1.5293,0.0097721,0,0,0,0
62.58,0.11815,1.5337,0.0098988,0,0,0,0
63.08,0.12067,1.538,0.010158,0,0,0,0
63.58,0.12291,1.5423,0.010325,0,0,0,0
64.08,0.12553,1.547,0.010653,0,0,0,0
64.58,0.12771,1.5514,0.010995,0,0,0,0
65.08,0.13016,1.5556,0.011477,0,0,0,0
65.58,0.13247,1.5597,0.011656,0,0,0,0
66.08,0.135,1.5637,0.012057,0,0,0,0
66.58,0.13761,1.5676,0.012223,0,0,0,0
67.08,0.14033,1.5717,0.012544,0,0,0,0
67.58,0.14283,1.5757,0.012611,0,0,0,0
68.08,0.14553,1.5796,0.012737,0,0,0,0
68.58,0.14814,1.5837,0.013058,0,0,0,0
69.08,0.15053,1.588,0.013134,0,0,0,0
69.58,0.1529,1.592,0.0133,0,0,0,0
70.08,0.15538,1.596,0.013293,0,0,0,0
70.58,0.15774,1.5997,0.013327,0,0,0,0
71.08,0.16029,1.6033,0.013366,0,0,0,0
71.58,0.16267,1.607,0.013344,0,0,0,0
72.08,0.16517,1.6107,0.013515,0,0,0,0
72.58,0.16772,1.6143,0.013727,0,0,0,0
73.08,0.17041,1.618,0.013814,0,0,0,0
73.58,0.17349,1.6217,0.013946,0,0,0,0
74.08,0.17586,1.6256,0.014393,0,0,0,0
74.58,0.17836,1.6294,0.014519,0,0,0,0
75.08,0.181,1.633,0.014905,0,0,0,0
75.58,0.18338,1.6363,0.015214,0,0,0,0
76.08,0.18582,1.6397,0.015613,0,0,0,0
76.58,0.18843,1.6433,0.015871,0,0,0,0
77.08,0.19103,1.6467,0.015951,0,0,0,0
77.58,0.19344,1.6503,0.016274,0,0,0,0
78.08,0.19628,1.6537,0.016446,0,0,0,0
78.58,0.19885,1.6573,0.016694,0,0,0,0
79.08,0.20171,1.6607,0.016667,0,0,0,0
79.58,0.2044,1.664,0.016803,0,0,0,0
80.08,0.20712,1.6676,0.017041,0,0,0,0
80.58,0.20974,1.6711,0.016965,0,0,0,0
81.08,0.21209,1.6743,0.016968,0,0,0,0
81.58,0.21451,1.6773,0.017295,0,0,0,0
82.08,0.21698,1.681,0.017262,0,0,0,0
82.58,0.21967,1.6844,0.017354,0,0,0,0
83.08,0.22214,1.6876,0.017595,0,0,0,0
83.58,0.22498,1.6907,0.017984,0,0,0,0
84.08,0.22767,1.694,0.018205,0,0,0,0
84.58,0.2305,1.6973,0.018225,0,0,0,0
85.08,0.23323,1.7007,0.018482,0,0,0,0
85.58,0.23601,1.704,0.018854,0,0,0,0
86.08,0.23861,1.707,0.018992,0,0,0,0
86.58,0.24141,1.7103,0.019197,0,0,0,0
87.08,0.244,1.7137,0.019547,0,0,0,0
87.58,0.24635,1.717,0.019684,0,0,0,0
88.08,0.24913,1.72,0.019971,0,0,0,0
88.58,0.25191,1.723,0.020109,0,0,0,0
89.08,0.25432,1.726,0.020244,0,0,0,0
89.58,0.2573,1.729,0.020326,0,0,0,0
90.08,0.26022,1.732,0.020454,0,0,0,0
90.58,0.26298,1.735,0.020563,0,0,0,0
91.08,0.26621,1.7383,0.020595,0,0,0,0
91.58,0.26891,1.7417,0.020888,0,0,0,0
92.08,0.27131,1.7447,0.020944,0,0,0,0
92.58,0.27387,1.7476,0.02129,0,0,0,0
93.08,0.27663,1.7504,0.021247,0,0,0,0
93.58,0.27944,1.7536,0.021645,0,0,0,0
94.08,0.28198,1.7564,0.021812,0,0,0,0
94.58,0.28482,1.7593,0.021987,0,0,0,0
95.08,0.28761,1.762,0.022166,0,0,0,0
95.58,0.29052,1.765,0.022295,0,0,0,0
96.08,0.29358,1.768,0.022498,0,0,0,0
96.58,0.29626,1.771,0.022672,0,0,0,0
97.08,0.29911,1.774,0.023004,0,0,0,0
97.58,0.30178,1.777,0.023102,0,0,0,0
98.08,0.30451,1.78,0.023365,0,0,0,0
98.58,0.30713,1.7827,0.023322,0,0,0,0
99.08,0.30992,1.7853,0.023657,0,0,0,0
99.58,0.31247,1.788,0.023713,0,0,0,0
100.08,0.31525,1.7913,0.023932,0,0,0,0
100.58,0.31816,1.7944,0.024122,0,0,0,0
101.08,0.32117,1.7973,0.024148,0,0,0,0
101.58,0.324,1.8,0.02446,0,0,0,0
102.08,0.32708,1.8027,0.024647,0,0,0,0
102.58,0.32999,1.8053,0.024768,0,0,0,0
103.08,0.33244,1.808,0.025023,0,0,0,0
103.58,0.33519,1.8107,0.025105,0,0,0,0
104.08,0.33789,1.8133,0.025304,0,0,0,0
104.58,0.34049,1.816,0.025478,0,0,0,0
105.08,0.34316,1.819,0.025677,0,0,0,0
105.58,0.34607,1.8217,0.025691,0,0,0,0
106.08,0.34891,1.8243,0.02591,0,0,0,0
106.58,0.35186,1.8267,0.026015,0,0,0,0
107.08,0.35487,1.8296,0.026316,0,0,0,0
107.58,0.35759,1.8324,0.026499,0,0,0,0
108.08,0.36067,1.835,0.026636,0,0,0,0
108.58,0.36341,1.8373,0.026826,0,0,0,0
109.08,0.36601,1.84,0.026953,0,0,0,0
109.58,0.36867,1.843,0.02695,0,0,0,0
110.08,0.37153,1.8457,0.027267,0,0,0,0
110.58,0.37429,1.8483,0.027426,0,0,0,0
111.08,0.37693,1.8507,0.027678,0,0,0,0
111.58,0.37999,1.8533,0.027854,0,0,0,0
112.08,0.38296,1.856,0.028044,0,0,0,0
112.58,0.3859,1.8587,0.028315,0,0,0,0
113.08,0.38898,1.8613,0.028335,0,0,0,0
113.58,0.39137,1.8637,0.028563,0,0,0,0
114.08,0.39457,1.866,0.028628,0,0,0,0
114.58,0.39718,1.8683,0.029085,0,0,0,0
115.08,0.39976,1.871,0.029053,0,0,0,0
115.58,0.40252,1.8737,0.029248,0,0,0,0
116.08,0.40522,1.8763,0.029476,0,0,0,0
116.58,0.40797,1.8787,0.029411,0,0,0,0
117.08,0.41083,1.881,0.029835,0,0,0,0
117.58,0.41393,1.8833,0.029867,0,0,0,0
118.08,0.41704,1.886,0.029999,0,0,0,0
118.58,0.41993,1.8887,0.030129,0,0,0,0
119.08,0.42289,1.8913,0.030259,0,0,0,0
119.58,0.42554,1.8937,0.030584,0,0,0,0
120.08,0.42846,1.896,0.030681,0,0,0,0
120.58,0.43098,1.8983,0.030975,0,0,0,0
121.08,0.43385,1.9007,0.03104,0,0,0,0
121.58,0.43648,1.903,0.031203,0,0,0,0
122.08,0.43929,1.9053,0.031463,0,0,0,0
122.58,0.44228,1.9077,0.031626,0,0,0,0
123.08,0.44527,1.91,0.031691,0,0,0,0
123.58,0.44829,1.9123,0.031886,0,0,0,0
124.08,0.45145,1.9147,0.032081,0,0,0,0
124.58,0.45419,1.917,0.032373,0,0,0,0
125.08,0.45699,1.9193,0.032439,0,0,0,0
125.58,0.45953,1.9217,0.032634,0,0,0,0
126.08,0.46216,1.924,0.032764,0,0,0,0
126.58,0.4652,1.9263,0.032959,0,0,0,0
127.08,0.46761,1.9287,0.033316,0,0,0,0
127.58,0.47041,1.9313,0.033284,0,0,0,0
128.08,0.47371,1.9337,0.033381,0,0,0,0
128.58,0.47666,1.936,0.033445,0,0,0,0
129.08,0.47962,1.938,0.033641,0,0,0,0
129.58,0.48257,1.94,0.033835,0,0,0,0
130.08,0.48529,1.9423,0.0339,0,0,0,0
130.58,0.48827,1.9444,0.034225,0,0,0,0
131.08,0.49096,1.9466,0.034387,0,0,0,0
131.58,0.49373,1.949,0.034516,0,0,0,0
132.08,0.49698,1.9517,0.034647,0,0,0,0
132.58,0.49893,1.954,0.035003,0,0,0,0
133.08,0.50171,1.956,0.035165,0,0,0,0
133.58,0.50499,1.958,0.035392,0,0,0,0
134.08,0.5082,1.9603,0.03549,0,0,0,0
134.58,0.51101,1.9627,0.035684,0,0,0,0
135.08,0.51426,1.965,0.035685,0,0,0,0
135.58,0.51691,1.967,0.036008,0,0,0,0
136.08,0.51965,1.9693,0.036105,0,0,0,0
136.58,0.52262,1.9717,0.036396,0,0,0,0
137.08,0.52519,1.974,0.036623,0,0,0,0
137.58,0.52791,1.976,0.036493,0,0,0,0
138.08,0.53084,1.978,0.036849,0,0,0,0
138.58,0.53367,1.98,0.037108,0,0,0,0
139.08,0.53677,1.982,0.037043,0,0,0,0
139.58,0.53964,1.984,0.037303,0,0,0,0
140.08,0.54285,1.9863,0.0374,0,0,0,0
140.58,0.54567,1.9887,0.037529,0,0,0,0
141.08,0.5486,1.9907,0.03769,0,0,0,0
141.58,0.55135,1.9926,0.037917,0,0,0,0
142.08,0.55418,1.9947,0.038079,0,0,0,0
142.58,0.55684,1.997,0.038208,0,0,0,0
143.08,0.5596,1.999,0.038596,0,0,0,0
143.58,0.56242,2.001,0.038628,0,0,0,0
144.08,0.56537,2.003,0.038531,0,0,0,0
144.58,0.56817,2.0053,0.039048,0,0,0,0
145.08,0.57136,2.0077,0.039371,0,0,0,0
145.58,0.57429,2.01,0.039371,0,0,0,0
146.08,0.57726,2.012,0.039371,0,0,0,0
146.58,0.58031,2.014,0.03992,0,0,0,0
147.08,0.58286,2.016,0.039887,0,0,0,0
147.58,0.58579,2.018,0.040144,0,0,0,0
148.08,0.58842,2.02,0.040177,0,0,0,0
148.58,0.59101,2.022,0.040434,0,0,0,0
149.08,0.59395,2.024,0.040628,0,0,0,0
149.58,0.59675,2.026,0.040725,0,0,0,0
150.08,0.6,2.028,0.040757,0,0,0,0
150.58,0.60292,2.03,0.041112,0,0,0,0
151.08,0.60586,2.032,0.04108,0,0,0,0
151.58,0.60883,2.034,0.041144,0,0,0,0
152.08,0.61174,2.036,0.041499,0,0,0,0
152.58,0.61455,2.038,0.041532,0,0,0,0
153.08,0.61723,2.04,0.041627,0,0,0,0
153.58,0.62004,2.0417,0.04195,0,0,0,0
154.08,0.62277,2.0436,0.042078,0,0,0,0
154.58,0.62579,2.0457,0.042272,0,0,0,0
155.08,0.6284,2.048,0.0424,0,0,0,0
155.58,0.63158,2.0497,0.042561,0,0,0,0
156.08,0.63453,2.0513,0.043012,0,0,0,0
156.58,0.63773,2.053,0.04314,0,0,0,0
157.08,0.64075,2.055,0.043237,0,0,0,0
157.58,0.64346,2.057,0.043687,0,0,0,0
158.08,0.64628,2.059,0.04359,0,0,0,0
158.58,0.64904,2.061,0.043847,0,0,0,0
159.08,0.65196,2.063,0.044007,0,0,0,0
159.58,0.65469,2.065,0.044233,0,0,0,0
160.08,0.65757,2.0667,0.044425,0,0,0,0
160.58,0.66066,2.0683,0.044329,0,0,0,0
161.08,0.66347,2.0703,0.044586,0,0,0,0
161.58,0.66689,2.0724,0.044683,0,0,0,0
162.08,0.66982,2.0743,0.044778,0,0,0,0
162.58,0.67263,2.076,0.045036,0,0,0,0
163.08,0.67557,2.078,0.0451,0,0,0,0
163.58,0.67846,2.08,0.04526,0,0,0,0
164.08,0.68132,2.082,0.045453,0,0,0,0
164.58,0.68402,2.084,0.045613,0,0,0,0
165.08,0.68664,2.0857,0.045966,0,0,0,0
165.58,0.68941,2.0873,0.046126,0,0,0,0
166.08,0.69241,2.089,0.046319,0,0,0,0
166.58,0.69566,2.091,0.046607,0,0,0,0
167.08,0.69869,2.093,0.046703,0,0,0,0
167.58,0.70151,2.095,0.047152,0,0,0,0
168.08,0.70464,2.0967,0.047183,0,0,0,0
168.58,0.70745,2.0983,0.047472,0,0,0,0
169.08,0.71035,2.1,0.047472,0,0,0,0
169.58,0.71314,2.102,0.047728,0,0,0,0
170.08,0.71615,2.104,0.047824,0,0,0,0
170.58,0.71884,2.1057,0.04792,0,0,0,0
171.08,0.72185,2.1073,0.047984,0,0,0,0
171.58,0.72485,2.109,0.048176,0,0,0,0
172.08,0.72786,2.111,0.048336,0,0,0,0
172.58,0.73094,2.1127,0.048433,0,0,0,0
173.08,0.73377,2.1143,0.04872,0,0,0,0
173.58,0.73667,2.116,0.048912,0,0,0,0
174.08,0.73942,2.118,0.04904,0,0,0,0
174.58,0.74237,2.12,0.0492,0,0,0,0
175.08,0.74512,2.1217,0.049359,0,0,0,0
175.58,0.74786,2.1233,0.049616,0,0,0,0
176.08,0.75083,2.1247,0.049742,0,0,0,0
176.58,0.75365,2.1263,0.05003,0,0,0,0
177.08,0.75663,2.128,0.050222,0,0,0,0
177.58,0.75999,2.13,0.050477,0,0,0,0
178.08,0.76278,2.132,0.050732,0,0,0,0
178.58,0.76592,2.1337,0.050892,0,0,0,0
179.08,0.76878,2.1353,0.05102,0,0,0,0
179.58,0.77147,2.137,0.051115,0,0,0,0
180.08,0.77432,2.139,0.051498,0,0,0,0
180.58,0.77699,2.1407,0.051403,0,0,0,0
181.08,0.77968,2.142,0.051563,0,0,0,0
181.58,0.78298,2.1433,0.051722,0,0,0,0
182.08,0.78591,2.145,0.052009,0,0,0,0
182.58,0.78911,2.147,0.051977,0,0,0,0
183.08,0.79205,2.1487,0.052263,0,0,0,0
183.58,0.79526,2.1503,0.052455,0,0,0,0
184.08,0.79792,2.1517,0.052613,0,0,0,0
184.58,0.80096,2.1533,0.052805,0,0,0,0
185.08,0.80364,2.155,0.053028,0,0,0,0
185.58,0.80652,2.1567,0.053314,0,0,0,0
186.08,0.80916,2.1586,0.053506,0,0,0,0
186.58,0.81217,2.1604,0.053473,0,0,0,0
187.08,0.81489,2.162,0.053664,0,0,0,0
187.58,0.81797,2.1633,0.054078,0,0,0,0
188.08,0.82099,2.165,0.054014,0,0,0,0
188.58,0.824,2.1667,0.05446,0,0,0,0
189.08,0.82708,2.1683,0.054492,0,0,0,0
189.58,0.82999,2.1697,0.054682,0,0,0,0
190.08,0.83271,2.1713,0.055,0,0,0,0
190.58,0.83569,2.173,0.055064,0,0,0,0
191.08,0.83841,2.1747,0.055318,0,0,0,0
191.58,0.84121,2.1763,0.05535,0,0,0,0
192.08,0.84396,2.1777,0.055414,0,0,0,0
192.58,0.84684,2.1793,0.055572,0,0,0,0
193.08,0.84989,2.181,0.05589,0,0,0,0
193.58,0.85288,2.1827,0.05589,0,0,0,0
194.08,0.85595,2.1843,0.056049,0,0,0,0
194.58,0.85904,2.1857,0.056271,0,0,0,0
195.08,0.86204,2.1873,0.056683,0,0,0,0
195.58,0.86456,2.1887,0.056619,0,0,0,0
196.08,0.86756,2.1903,0.056873,0,0,0,0
196.58,0.87024,2.1917,0.056936,0,0,0,0
197.08,0.87309,2.1933,0.057285,0,0,0,0
197.58,0.87598,2.1947,0.057412,0,0,0,0
198.08,0.87875,2.1963,0.057697,0,0,0,0
198.58,0.88163,2.1977,0.057856,0,0,0,0
199.08,0.88475,2.1993,0.058173,0,0,0,0
199.58,0.88777,2.2007,0.058174,0,0,0,0
200.08,0.89088,2.2023,0.058553,0,0,0,0
200.58,0.89383,2.204,0.05868,0,0,0,0
201.08,0.89683,2.2057,0.058806,0,0,0,0
201.58,0.89944,2.2073,0.058997,0,0,0,0
202.08,0.90181,2.2087,0.059123,0,0,0,0
202.58,0.90476,2.21,0.059408,0,0,0,0
203.08,0.90767,2.2113,0.059535,0,0,0,0
203.58,0.91063,2.213,0.059534,0,0,0,0
204.08,0.91373,2.2147,0.059756,0,0,0,0
204.58,0.91693,2.216,0.059788,0,0,0,0
205.08,0.91994,2.2173,0.06023,0,0,0,0
205.58,0.92304,2.2187,0.060293,0,0,0,0
206.08,0.92609,2.2203,0.06061,0,0,0,0
206.58,0.92858,2.2217,0.060768,0,0,0,0
207.08,0.93151,2.2233,0.060736,0,0,0,0
207.58,0.93427,2.2247,0.06102,0,0,0,0
208.08,0.93724,2.226,0.061304,0,0,0,0
208.58,0.93996,2.227,0.06162,0,0,0,0
209.08,0.94295,2.2283,0.061652,0,0,0,0
209.58,0.94603,2.23,0.061873,0,0,0,0
210.08,0.94894,2.2317,0.061936,0,0,0,0
210.58,0.95183,2.2333,0.062252,0,0,0,0
211.08,0.95509,2.2347,0.062377,0,0,0,0
211.58,0.95764,2.2363,0.062503,0,0,0,0
212.08,0.96068,2.2377,0.062882,0,0,0,0
212.58,0.96347,2.2393,0.063072,0,0,0,0
213.08,0.96633,2.2407,0.063009,0,0,0,0
213.58,0.96897,2.242,0.063513,0,0,0,0
214.08,0.97206,2.2433,0.063545,0,0,0,0
214.58,0.97501,2.2447,0.063481,0,0,0,0
215.08,0.97817,2.2463,0.063733,0,0,0,0
215.58,0.98127,2.2477,0.063923,0,0,0,0
216.08,0.98421,2.249,0.064143,0,0,0,0
216.58,0.98719,2.2503,0.064332,0,0,0,0
217.08,0.99012,2.252,0.06452,0,0,0,0
217.58,0.99304,2.2537,0.064804,0,0,0,0
218.08,0.9957,2.255,0.064835,0,0,0,0
218.58,0.99842,2.256,0.06515,0,0,0,0
219.08,1.0014,2.257,0.065307,0,0,0,0
219.58,1.0042,2.2583,0.065465,0,0,0,0
220.08,1.0071,2.2597,0.065685,0,0,0,0
220.58,1.0103,2.2613,0.065842,0,0,0,0
221.08,1.0132,2.2627,0.066157,0,0,0,0
221.58,1.0164,2.2643,0.066251,0,0,0,0
222.08,1.0193,2.2657,0.066565,0,0,0,0
222.58,1.0221,2.267,0.066627,0,0,0,0
223.08,1.0249,2.268,0.066817,0,0,0,0
223.58,1.0277,2.2693,0.066942,0,0,0,0
224.08,1.0303,2.2707,0.067256,0,0,0,0
224.58,1.0334,2.272,0.067318,0,0,0,0
225.08,1.036,2.2733,0.067413,0,0,0,0
225.58,1.0392,2.2747,0.067632,0,0,0,0
226.08,1.0424,2.276,0.067758,0,0,0,0
226.58,1.0451,2.2773,0.068009,0,0,0,0
227.08,1.0483,2.2787,0.068323,0,0,0,0
227.58,1.0512,2.28,0.068416,0,0,0,0
228.08,1.0538,2.2813,0.068636,0,0,0,0
228.58,1.0568,2.2827,0.06873,0,0,0,0
229.08,1.0595,2.284,0.069012,0,0,0,0
229.58,1.0623,2.2853,0.069263,0,0,0,0
230.08,1.0651,2.2867,0.069544,0,0,0,0
230.58,1.0681,2.288,0.06967,0,0,0,0
231.08,1.0711,2.289,0.069826,0,0,0,0
231.58,1.0743,2.29,0.07014,0,0,0,0
232.08,1.0771,2.2913,0.070295,0,0,0,0
232.58,1.0804,2.2927,0.070296,0,0,0,0
233.08,1.0831,2.294,0.07064,0,0,0,0
233.58,1.0857,2.2953,0.070765,0,0,0,0
234.08,1.0885,2.2967,0.070859,0,0,0,0
234.58,1.0914,2.298,0.071078,0,0,0,0
235.08,1.0942,2.2993,0.071265,0,0,0,0
235.58,1.097,2.3007,0.071485,0,0,0,0
236.08,1.1001,2.302,0.071641,0,0,0,0
236.58,1.103,2.3033,0.071735,0,0,0,0
237.08,1.1059,2.3047,0.072079,0,0,0,0
237.58,1.1089,2.306,0.072266,0,0,0,0
238.08,1.112,2.307,0.072422,0,0,0,0
238.58,1.1149,2.308,0.072578,0,0,0,0
239.08,1.1177,2.309,0.072828,0,0,0,0
239.58,1.1206,2.3103,0.073015,0,0,0,0
240.08,1.1234,2.3117,0.073265,0,0,0,0
240.58,1.1261,2.313,0.073359,0,0,0,0
241.08,1.1291,2.3143,0.07367,0,0,0,0
241.58,1.1322,2.3157,0.07392,0,0,0,0
242.08,1.135,2.317,0.074139,0,0,0,0
242.58,1.1381,2.318,0.074139,0,0,0,0
243.08,1.1413,2.319,0.074419,0,0,0,0
243.58,1.1441,2.32,0.074606,0,0,0,0
244.08,1.1472,2.3213,0.074855,0,0,0,0
244.58,1.15,2.3227,0.075011,0,0,0,0
245.08,1.1529,2.324,0.075135,0,0,0,0
245.58,1.1556,2.325,0.075416,0,0,0,0
246.08,1.1584,2.326,0.075603,0,0,0,0
246.58,1.1614,2.3273,0.075634,0,0,0,0
247.08,1.1643,2.3287,0.075884,0,0,0,0
247.58,1.1673,2.33,0.076132,0,0,0,0
248.08,1.1706,2.331,0.076194,0,0,0,0
248.58,1.1736,2.332,0.076474,0,0,0,0
249.08,1.1764,2.333,0.076847,0,0,0,0
249.58,1.1794,2.334,0.076847,0,0,0,0
250.08,1.1822,2.3353,0.077221,0,0,0,0
250.58,1.1849,2.3367,0.07719,0,0,0,0
251.08,1.1878,2.338,0.077438,0,0,0,0
251.58,1.1908,2.339,0.077717,0,0,0,0
252.08,1.1937,2.34,0.077873,0,0,0,0
252.58,1.1964,2.3413,0.077998,0,0,0,0
253.08,1.1996,2.3427,0.078308,0,0,0,0
253.58,1.2029,2.344,0.078369,0,0,0,0
254.08,1.206,2.345,0.078649,0,0,0,0
254.58,1.2089,2.346,0.078897,0,0,0,0
255.08,1.2114,2.347,0.079115,0,0,0,0
255.58,1.2144,2.348,0.079331,0,0,0,0
256.08,1.217,2.3493,0.079487,0,0,0,0
256.58,1.2199,2.3507,0.079518,0,0,0,0
257.08,1.2229,2.3517,0.079827,0,0,0,0
257.58,1.2258,2.3526,0.079952,0,0,0,0
258.08,1.229,2.3537,0.080232,0,0,0,0
258.58,1.2319,2.355,0.080324,0,0,0,0
259.08,1.235,2.356,0.080541,0,0,0,0
259.58,1.2378,2.357,0.080789,0,0,0,0
260.08,1.2406,2.3583,0.080974,0,0,0,0
260.58,1.2435,2.3597,0.081284,0,0,0,0
261.08,1.2464,2.361,0.081501,0,0,0,0
261.58,1.249,2.3617,0.081593,0,0,0,0
262.08,1.2519,2.3626,0.081749,0,0,0,0
262.58,1.2547,2.3637,0.082058,0,0,0,0
263.08,1.2576,2.365,0.082305,0,0,0,0
263.58,1.2605,2.366,0.082429,0,0,0,0
264.08,1.2636,2.367,0.082584,0,0,0,0
264.58,1.2667,2.368,0.082832,0,0,0,0
265.08,1.2697,2.369,0.083078,0,0,0,0
265.58,1.2725,2.37,0.083233,0,0,0,0
266.08,1.2754,2.371,0.083449,0,0,0,0
266.58,1.2781,2.3723,0.083727,0,0,0,0
267.08,1.281,2.3734,0.08385,0,0,0,0
267.58,1.2837,2.3743,0.083973,0,0,0,0
268.08,1.2865,2.3753,0.084344,0,0,0,0
268.58,1.2898,2.3767,0.084437,0,0,0,0
269.08,1.2926,2.378,0.084591,0,0,0,0
269.58,1.2956,2.379,0.0849,0,0,0,0
270.08,1.2984,2.3797,0.085023,0,0,0,0
270.58,1.3014,2.3803,0.085147,0,0,0,0
271.08,1.3044,2.3813,0.085424,0,0,0,0
271.58,1.3073,2.3827,0.085824,0,0,0,0
272.08,1.3101,2.384,0.085856,0,0,0,0
272.58,1.3125,2.385,0.085979,0,0,0,0
273.08,1.3153,2.386,0.086318,0,0,0,0
273.58,1.3183,2.387,0.086533,0,0,0,0
274.08,1.3215,2.388,0.086687,0,0,0,0
274.58,1.3244,2.389,0.087119,0,0,0,0
275.08,1.3277,2.39,0.087395,0,0,0,0
275.58,1.3307,2.391,0.087518,0,0,0,0
276.08,1.3335,2.392,0.087703,0,0,0,0
276.58,1.3362,2.393,0.087918,0,0,0,0
277.08,1.3391,2.394,0.088102,0,0,0,0
277.58,1.342,2.395,0.088194,0,0,0,0
278.08,1.345,2.396,0.088533,0,0,0,0
278.58,1.3478,2.397,0.088748,0,0,0,0
279.08,1.3507,2.398,0.088933,0,0,0,0
279.58,1.3537,2.399,0.089085,0,0,0,0
280.08,1.3566,2.4,0.089394,0,0,0,0
280.58,1.3597,2.401,0.0897,0,0,0,0
281.08,1.3627,2.402,0.0897,0,0,0,0
281.58,1.3655,2.403,0.089977,0,0,0,0
282.08,1.3686,2.404,0.090191,0,0,0,0
282.58,1.3714,2.405,0.090376,0,0,0,0
283.08,1.3742,2.406,0.090651,0,0,0,0
283.58,1.3768,2.407,0.090866,0,0,0,0
284.08,1.3797,2.408,0.091049,0,0,0,0
284.58,1.3825,2.409,0.091296,0,0,0,0
285.08,1.3856,2.41,0.091602,0,0,0,0
285.58,1.3887,2.411,0.091877,0,0,0,0
286.08,1.3916,2.412,0.092091,0,0,0,0
286.58,1.3947,2.413,0.092183,0,0,0,0
287.08,1.3976,2.414,0.09249,0,0,0,0
287.58,1.4005,2.415,0.092765,0,0,0,0
288.08,1.4033,2.416,0.093071,0,0,0,0
288.58,1.4059,2.417,0.093193,0,0,0,0
289.08,1.4088,2.418,0.093315,0,0,0,0
289.58,1.4119,2.4187,0.093468,0,0,0,0
290.08,1.415,2.4193,0.093682,0,0,0,0
290.58,1.4178,2.42,0.093928,0,0,0,0
291.08,1.4211,2.421,0.094172,0,0,0,0
291.58,1.4241,2.422,0.094356,0,0,0,0
292.08,1.4272,2.423,0.094569,0,0,0,0
292.58,1.43,2.424,0.094814,0,0,0,0
293.08,1.433,2.425,0.094936,0,0,0,0
293.58,1.4357,2.426,0.095272,0,0,0,0
294.08,1.4384,2.427,0.095455,0,0,0,0
294.58,1.4413,2.428,0.095882,0,0,0,0
295.08,1.4442,2.429,0.095943,0,0,0,0
295.58,1.4471,2.4297,0.096218,0,0,0,0
296.08,1.4501,2.4306,0.096553,0,0,0,0
296.58,1.4534,2.4314,0.096644,0,0,0,0
297.08,1.4562,2.4323,0.09701,0,0,0,0
297.58,1.4591,2.433,0.097223,0,0,0,0
298.08,1.462,2.4343,0.097467,0,0,0,0
298.58,1.4646,2.4354,0.097649,0,0,0,0
299.08,1.4676,2.4363,0.097832,0,0,0,0
299.58,1.4702,2.437,0.098076,0,0,0,0
300.08,1.4732,2.438,0.098137,0,0,0,0
300.58,1.4762,2.439,0.098411,0,0,0,0
301.08,1.4794,2.44,0.098623,0,0,0,0
301.58,1.4824,2.4407,0.098897,0,0,0,0
302.08,1.4855,2.4413,0.099232,0,0,0,0
302.58,1.4883,2.442,0.099354,0,0,0,0
303.08,1.4913,2.443,0.099749,0,0,0,0
303.58,1.4941,2.444,0.09984,0,0,0,0
304.08,1.4966,2.445,0.10017,0,0,0,0
304.58,1.4993,2.446,0.10036,0,0,0,0
305.08,1.5021,2.447,0.10057,0,0,0,0
305.58,1.5053,2.4477,0.10087,0,0,0,0
306.08,1.5077,2.4483,0.10105,0,0,0,0
306.58,1.5107,2.449,0.10136,0,0,0,0
307.08,1.514,2.45,0.10166,0,0,0,0
307.58,1.5169,2.451,0.10178,0,0,0,0
308.08,1.5198,2.452,0.10212,0,0,0,0
308.58,1.5229,2.453,0.10236,0,0,0,0
309.08,1.5258,2.454,0.10251,0,0,0,0
309.58,1.5285,2.455,0.10263,0,0,0,0
310.08,1.5313,2.4557,0.103,0,0,0,0
310.58,1.5341,2.4563,0.10318,0,0,0,0
311.08,1.5369,2.457,0.10351,0,0,0,0
311.58,1.5398,2.458,0.10366,0,0,0,0
312.08,1.543,2.4587,0.10384,0,0,0,0
312.58,1.5459,2.4596,0.10418,0,0,0,0
313.08,1.5489,2.4604,0.10415,0,0,0,0
313.58,1.5519,2.4613,0.10445,0,0,0,0
314.08,1.5549,2.462,0.10472,0,0,0,0
314.58,1.5578,2.463,0.10502,0,0,0,0
315.08,1.5604,2.4637,0.10526,0,0,0,0
315.58,1.5631,2.4643,0.10569,0,0,0,0
316.08,1.566,2.465,0.10572,0,0,0,0
316.58,1.5689,2.466,0.10611,0,0,0,0
317.08,1.572,2.467,0.10626,0,0,0,0
317.58,1.5749,2.468,0.10659,0,0,0,0
318.08,1.5781,2.4687,0.10678,0,0,0,0
318.58,1.581,2.4693,0.10696,0,0,0,0
319.08,1.5841,2.47,0.10723,0,0,0,0
319.58,1.5871,2.471,0.10744,0,0,0,0
320.08,1.5898,2.472,0.10759,0,0,0,0
320.58,1.5924,2.4727,0.10771,0,0,0,0
321.08,1.5953,2.4733,0.10813,0,0,0,0
321.58,1.5982,2.474,0.10825,0,0,0,0
322.08,1.6012,2.475,0.10867,0,0,0,0
322.58,1.6041,2.476,0.10895,0,0,0,0
323.08,1.6073,2.477,0.10916,0,0,0,0
323.58,1.6103,2.4777,0.10931,0,0,0,0
324.08,1.6134,2.4783,0.10964,0,0,0,0
324.58,1.6164,2.479,0.10979,0,0,0,0
325.08,1.6191,2.48,0.11009,0,0,0,0
325.58,1.622,2.4807,0.1103,0,0,0,0
326.08,1.625,2.4813,0.11054,0,0,0,0
326.58,1.6277,2.482,0.11078,0,0,0,0
327.08,1.6309,2.483,0.11108,0,0,0,0
327.58,1.6337,2.484,0.11126,0,0,0,0
328.08,1.6368,2.4847,0.1115,0,0,0,0
328.58,1.6397,2.4853,0.11171,0,0,0,0
329.08,1.6428,2.486,0.11204,0,0,0,0
329.58,1.6459,2.487,0.11228,0,0,0,0
330.08,1.6487,2.488,0.11249,0,0,0,0
330.58,1.6514,2.4887,0.11276,0,0,0,0
331.08,1.6543,2.4893,0.11303,0,0,0,0
331.58,1.6574,2.4897,0.11315,0,0,0,0
332.08,1.6601,2.4903,0.11342,0,0,0,0
332.58,1.663,2.491,0.11372,0,0,0,0
333.08,1.6659,2.492,0.11387,0,0,0,0
333.58,1.6691,2.493,0.11423,0,0,0,0
334.08,1.6723,2.494,0.11447,0,0,0,0
334.58,1.6754,2.4947,0.11489,0,0,0,0
335.08,1.6785,2.4953,0.11507,0,0,0,0
335.58,1.6813,2.4957,0.1154,0,0,0,0
336.08,1.6843,2.4963,0.11561,0,0,0,0
336.58,1.6868,2.497,0.11588,0,0,0,0
337.08,1.6896,2.498,0.116,0,0,0,0
337.58,1.6926,2.4987,0.11639,0,0,0,0
338.08,1.6956,2.4993,0.11659,0,0,0,0
338.58,1.6984,2.5,0.1168,0,0,0,0
339.08,1.7016,2.5007,0.1171,0,0,0,0
339.58,1.7046,2.5013,0.11737,0,0,0,0
340.08,1.7077,2.502,0.11761,0,0,0,0
340.58,1.7104,2.503,0.11773,0,0,0,0
341.08,1.7134,2.504,0.11803,0,0,0,0
341.58,1.7162,2.5047,0.11841,0,0,0,0
342.08,1.7191,2.5053,0.11862,0,0,0,0
342.58,1.7219,2.506,0.11892,0,0,0,0
343.08,1.7249,2.5067,0.11913,0,0,0,0
343.58,1.728,2.5073,0.11943,0,0,0,0
344.08,1.7309,2.508,0.11967,0,0,0,0
344.58,1.734,2.5087,0.12008,0,0,0,0
345.08,1.7372,2.5093,0.12035,0,0,0,0
345.58,1.74,2.51,0.12065,0,0,0,0
346.08,1.743,2.511,0.12089,0,0,0,0
346.58,1.7459,2.5117,0.12125,0,0,0,0
347.08,1.7486,2.5123,0.12145,0,0,0,0
347.58,1.7516,2.513,0.1216,0,0,0,0
348.08,1.7545,2.5137,0.12181,0,0,0,0
348.58,1.7573,2.5143,0.12217,0,0,0,0
349.08,1.7604,2.515,0.12226,0,0,0,0
349.58,1.7636,2.5157,0.12249,0,0,0,0
350.08,1.7665,2.5163,0.12282,0,0,0,0
350.58,1.7696,2.517,0.12318,0,0,0,0
351.08,1.7725,2.5177,0.12341,0,0,0,0
351.58,1.7752,2.5183,0.12374,0,0,0,0
352.08,1.7784,2.519,0.12398,0,0,0,0
352.58,1.7813,2.5197,0.12427,0,0,0,0
353.08,1.7842,2.5203,0.1246,0,0,0,0
353.58,1.7869,2.521,0.1249,0,0,0,0
354.08,1.7902,2.5217,0.12516,0,0,0,0
354.58,1.7932,2.5223,0.12558,0,0,0,0
355.08,1.7963,2.523,0.12585,0,0,0,0
355.58,1.7991,2.5237,0.12608,0,0,0,0
356.08,1.8023,2.5243,0.12632,0,0,0,0
356.58,1.8054,2.525,0.12667,0,0,0,0
357.08,1.8083,2.5257,0.12691,0,0,0,0
357.58,1.8111,2.5263,0.12729,0,0,0,0
358.08,1.8138,2.527,0.12738,0,0,0,0
358.58,1.8169,2.5277,0.12768,0,0,0,0
359.08,1.8202,2.5283,0.128,0,0,0,0
359.58,1.8229,2.529,0.12821,0,0,0,0
360.08,1.8263,2.5297,0.12842,0,0,0,0
360.58,1.8295,2.5303,0.12877,0,0,0,0
361.08,1.8326,2.5307,0.1291,0,0,0,0
361.58,1.8354,2.5313,0.12957,0,0,0,0
362.08,1.8383,2.5317,0.12978,0,0,0,0
362.58,1.8413,2.5323,0.1301,0,0,0,0
363.08,1.8444,2.5327,0.13037,0,0,0,0
363.58,1.8471,2.5333,0.13078,0,0,0,0
364.08,1.8502,2.534,0.13104,0,0,0,0
364.58,1.8531,2.5347,0.13125,0,0,0,0
365.08,1.8564,2.5353,0.13154,0,0,0,0
365.58,1.8595,2.536,0.13181,0,0,0,0
366.08,1.8624,2.5367,0.13216,0,0,0,0
366.58,1.8655,2.5373,0.13246,0,0,0,0
367.08,1.8685,2.538,0.13269,0,0,0,0
367.58,1.8714,2.5387,0.13304,0,0,0,0
368.08,1.8745,2.5393,0.13343,0,0,0,0
368.58,1.8773,2.54,0.13357,0,0,0,0
369.08,1.8803,2.5407,0.13395,0,0,0,0
369.58,1.8834,2.5413,0.13422,0,0,0,0
370.08,1.8865,2.542,0.13439,0,0,0,0
370.58,1.8897,2.5427,0.13472,0,0,0,0
371.08,1.8928,2.543,0.13495,0,0,0,0
371.58,1.8958,2.5433,0.13533,0,0,0,0
372.08,1.899,2.5437,0.13571,0,0,0,0
372.58,1.9019,2.5443,0.13604,0,0,0,0
373.08,1.9046,2.545,0.13639,0,0,0,0
373.58,1.9075,2.546,0.13645,0,0,0,0
374.08,1.9106,2.5467,0.13697,0,0,0,0
374.58,1.9134,2.5473,0.13715,0,0,0,0
375.08,1.9164,2.5477,0.13744,0,0,0,0
375.58,1.9196,2.5483,0.13776,0,0,0,0
376.08,1.9225,2.549,0.138,0,0,0,0
376.58,1.926,2.5497,0.13835,0,0,0,0
377.08,1.9292,2.5503,0.13855,0,0,0,0
377.58,1.932,2.5507,0.13891,0,0,0,0
378.08,1.9346,2.5513,0.1392,0,0,0,0
378.58,1.9375,2.5517,0.13969,0,0,0,0
379.08,1.9407,2.5523,0.13999,0,0,0,0
379.58,1.9435,2.5527,0.14028,0,0,0,0
380.08,1.9466,2.553,0.14054,0,0,0,0
380.58,1.9498,2.5533,0.14092,0,0,0,0
381.08,1.9531,2.554,0.14121,0,0,0,0
381.58,1.956,2.5547,0.14147,0,0,0,0
382.08,1.959,2.5553,0.14179,0,0,0,0
382.58,1.9619,2.5557,0.14206,0,0,0,0
383.08,1.9649,2.5563,0.14235,0,0,0,0
383.58,1.968,2.557,0.14264,0,0,0,0
384.08,1.9707,2.558,0.14299,0,0,0,0
384.58,1.9737,2.5587,0.14322,0,0,0,0
385.08,1.9767,2.559,0.14351,0,0,0,0
385.58,1.9796,2.5593,0.14404,0,0,0,0
386.08,1.9828,2.5597,0.14418,0,0,0,0
386.58,1.986,2.5603,0.14462,0,0,0,0
387.08,1.9889,2.5607,0.14491,0,0,0,0
387.58,1.9921,2.561,0.14526,0,0,0,0
388.08,1.9949,2.5613,0.14566,0,0,0,0
388.58,1.9978,2.562,0.14604,0,0,0,0
389.08,2.0008,2.5627,0.14633,0,0,0,0
389.58,2.0037,2.5633,0.14671,0,0,0,0
390.08,2.0067,2.564,0.14703,0,0,0,0
390.58,2.0098,2.5647,0.14743,0,0,0,0
391.08,2.0125,2.5653,0.14772,0,0,0,0
391.58,2.0157,2.5657,0.14804,0,0,0,0
392.08,2.019,2.5663,0.14824,0,0,0,0
392.58,2.0222,2.5667,0.14856,0,0,0,0
393.08,2.0251,2.567,0.14894,0,0,0,0
393.58,2.0281,2.5673,0.14937,0,0,0,0
394.08,2.0311,2.568,0.14952,0,0,0,0
394.58,2.0339,2.5687,0.15001,0,0,0,0
395.08,2.037,2.5693,0.15044,0,0,0,0
395.58,2.0397,2.5697,0.15067,0,0,0,0
396.08,2.0429,2.57,0.15102,0,0,0,0
396.58,2.0459,2.5703,0.15151,0,0,0,0
397.08,2.0493,2.5707,0.15203,0,0,0,0
397.58,2.0524,2.5713,0.15211,0,0,0,0
398.08,2.0553,2.5717,0.1526,0,0,0,0
398.58,2.0584,2.5723,0.15298,0,0,0,0
399.08,2.0612,2.5727,0.15338,0,0,0,0
399.58,2.0644,2.5733,0.15353,0,0,0,0
400.08,2.0675,2.574,0.15404,0,0,0,0
400.58,2.0704,2.5747,0.15436,0,0,0,0
401.08,2.0732,2.575,0.15471,0,0,0,0
401.58,2.0764,2.5753,0.15499,0,0,0,0
402.08,2.0796,2.5757,0.15537,0,0,0,0
402.58,2.0829,2.5763,0.15571,0,0,0,0
403.08,2.0862,2.5767,0.15609,0,0,0,0
403.58,2.0892,2.577,0.15657,0,0,0,0
404.08,2.0921,2.5773,0.15689,0,0,0,0
404.58,2.0952,2.578,0.15726,0,0,0,0
405.08,2.0981,2.5787,0.15764,0,0,0,0
405.58,2.101,2.579,0.15818,0,0,0,0
406.08,2.1041,2.5793,0.15847,0,0,0,0
406.58,2.1073,2.5797,0.15881,0,0,0,0
407.08,2.1104,2.5803,0.15921,0,0,0,0
407.58,2.1136,2.5807,0.15964,0,0,0,0
408.08,2.1169,2.5813,0.15995,0,0,0,0
408.58,2.12,2.5817,0.16038,0,0,0,0
409.08,2.1229,2.582,0.16067,0,0,0,0
409.58,2.126,2.5823,0.16121,0,0,0,0
410.08,2.1289,2.583,0.16144,0,0,0,0
410.58,2.132,2.5837,0.16181,0,0,0,0
411.08,2.135,2.584,0.16224,0,0,0,0
411.58,2.138,2.5843,0.16244,0,0,0,0
412.08,2.1412,2.5847,0.1629,0,0,0,0
412.58,2.1443,2.585,0.1633,0,0,0,0
413.08,2.1476,2.5853,0.16355,0,0,0,0
413.58,2.1508,2.586,0.16398,0,0,0,0
414.08,2.1538,2.5867,0.16438,0,0,0,0
414.58,2.1568,2.587,0.16458,0,0,0,0
415.08,2.1597,2.5873,0.16521,0,0,0,0
415.58,2.1628,2.5877,0.16572,0,0,0,0
416.08,2.1657,2.5883,0.16589,0,0,0,0
416.58,2.1689,2.5887,0.1664,0,0,0,0
417.08,2.172,2.589,0.16669,0,0,0,0
417.58,2.1752,2.589,0.16708,0,0,0,0
418.08,2.1784,2.5893,0.16762,0,0,0,0
418.58,2.1815,2.5897,0.16785,0,0,0,0
419.08,2.1847,2.5903,0.16839,0,0,0,0
419.58,2.1877,2.5907,0.1687,0,0,0,0
420.08,2.1907,2.5913,0.16924,0,0,0,0
420.58,2.1936,2.5917,0.16964,0,0,0,0
421.08,2.1967,2.5923,0.16987,0,0,0,0
421.58,2.1997,2.5927,0.17032,0,0,0,0
422.08,2.2029,2.593,0.17071,0,0,0,0
422.58,2.2058,2.593,0.17105,0,0,0,0
423.08,2.2094,2.593,0.17156,0,0,0,0
423.58,2.2123,2.5933,0.17187,0,0,0,0
424.08,2.2156,2.594,0.17238,0,0,0,0
424.58,2.2184,2.5947,0.17253,0,0,0,0
425.08,2.2216,2.595,0.17298,0,0,0,0
425.58,2.2244,2.5953,0.17349,0,0,0,0
426.08,2.2274,2.5957,0.17388,0,0,0,0
426.58,2.2306,2.5963,0.17428,0,0,0,0
427.08,2.2337,2.5967,0.17464,0,0,0,0
427.58,2.237,2.597,0.17507,0,0,0,0
428.08,2.2398,2.597,0.17554,0,0,0,0
428.58,2.2434,2.5973,0.17602,0,0,0,0
429.08,2.2464,2.5977,0.17656,0,0,0,0
429.58,2.2496,2.5983,0.1769,0,0,0,0
430.08,2.2527,2.5987,0.17721,0,0,0,0
430.58,2.2557,2.599,0.17771,0,0,0,0
431.08,2.2588,2.599,0.1781,0,0,0,0
431.58,2.2617,2.5993,0.17855,0,0,0,0
432.08,2.2647,2.5997,0.17889,0,0,0,0
432.58,2.2681,2.6003,0.17942,0,0,0,0
433.08,2.2712,2.6007,0.17987,0,0,0,0
433.58,2.2745,2.601,0.18018,0,0,0,0
434.08,2.2775,2.601,0.18077,0,0,0,0
434.58,2.2806,2.6013,0.18122,0,0,0,0
435.08,2.284,2.602,0.18147,0,0,0,0
435.58,2.2869,2.6027,0.1822,0,0,0,0
436.08,2.2898,2.603,0.18267,0,0,0,0
436.58,2.2929,2.603,0.18315,0,0,0,0
437.08,2.2961,2.603,0.18348,0,0,0,0
437.58,2.2991,2.6033,0.18402,0,0,0,0
438.08,2.3026,2.6037,0.18457,0,0,0,0
438.58,2.3058,2.604,0.18496,0,0,0,0
439.08,2.3089,2.604,0.18538,0,0,0,0
439.58,2.3122,2.6043,0.18591,0,0,0,0
440.08,2.3154,2.6047,0.18644,0,0,0,0
440.58,2.3185,2.605,0.18683,0,0,0,0
441.08,2.3216,2.6053,0.1873,0,0,0,0
441.58,2.3246,2.6057,0.18781,0,0,0,0
442.08,2.3276,2.606,0.18836,0,0,0,0
442.58,2.3306,2.606,0.18886,0,0,0,0
443.08,2.3337,2.6063,0.18928,0,0,0,0
443.58,2.337,2.6067,0.18975,0,0,0,0
444.08,2.3402,2.6073,0.19031,0,0,0,0
444.58,2.3436,2.6077,0.19072,0,0,0,0
445.08,2.3469,2.608,0.19131,0,0,0,0
445.58,2.3499,2.608,0.19181,0,0,0,0
446.08,2.353,2.6083,0.19244,0,0,0,0
446.58,2.3561,2.6087,0.19291,0,0,0,0
447.08,2.3592,2.609,0.19319,0,0,0,0
447.58,2.3624,2.609,0.19369,0,0,0,0
448.08,2.3655,2.6093,0.19449,0,0,0,0
448.58,2.3688,2.6097,0.19482,0,0,0,0
449.08,2.3719,2.61,0.19524,0,0,0,0
449.58,2.3751,2.61,0.19571,0,0,0,0
450.08,2.3783,2.6103,0.19626,0,0,0,0
450.58,2.3817,2.6107,0.19675,0,0,0,0
451.08,2.3848,2.611,0.19731,0,0,0,0
451.58,2.388,2.6113,0.19786,0,0,0,0
452.08,2.391,2.6114,0.19833,0,0,0,0
452.58,2.3939,2.6116,0.19868,0,0,0,0
453.08,2.3969,2.6117,0.19926,0,0,0,0
453.58,2.4003,2.612,0.19981,0,0,0,0
454.08,2.4037,2.6123,0.20022,0,0,0,0
454.58,2.4069,2.6127,0.20091,0,0,0,0
455.08,2.4101,2.613,0.2013,0,0,0,0
455.58,2.4134,2.613,0.20179,0,0,0,0
456.08,2.4164,2.613,0.20231,0,0,0,0
456.58,2.4193,2.613,0.20286,0,0,0,0
457.08,2.4224,2.6133,0.20341,0,0,0,0
457.58,2.4258,2.6137,0.20404,0,0,0,0
458.08,2.4287,2.614,0.2045,0,0,0,0
458.58,2.4318,2.614,0.20497,0,0,0,0
459.08,2.4349,2.614,0.20568,0,0,0,0
459.58,2.4384,2.6143,0.20636,0,0,0,0
460.08,2.4416,2.6147,0.20688,0,0,0,0
460.58,2.4448,2.615,0.20734,0,0,0,0
461.08,2.4479,2.615,0.20789,0,0,0,0
461.58,2.4511,2.6153,0.20852,0,0,0,0
462.08,2.4542,2.6157,0.20898,0,0,0,0
462.58,2.4572,2.616,0.20969,0,0,0,0
463.08,2.4603,2.616,0.21031,0,0,0,0
463.58,2.4636,2.616,0.21075,0,0,0,0
464.08,2.4669,2.616,0.21135,0,0,0,0
464.58,2.4699,2.616,0.21194,0,0,0,0
465.08,2.4734,2.6163,0.21241,0,0,0,0
465.58,2.4767,2.6167,0.21322,0,0,0,0
466.08,2.4798,2.617,0.21371,0,0,0,0
466.58,2.483,2.617,0.21425,0,0,0,0
467.08,2.4859,2.617,0.21495,0,0,0,0
467.58,2.4891,2.617,0.21547,0,0,0,0
468.08,2.4922,2.6173,0.21617,0,0,0,0
468.58,2.4953,2.6177,0.2169,0,0,0,0
469.08,2.4987,2.618,0.21736,0,0,0,0
469.58,2.5018,2.618,0.21809,0,0,0,0
470.08,2.5052,2.618,0.21887,0,0,0,0
470.58,2.5084,2.618,0.21927,0,0,0,0
471.08,2.5119,2.618,0.22003,0,0,0,0
471.58,2.5152,2.618,0.22078,0,0,0,0
472.08,2.518,2.618,0.22127,0,0,0,0
472.58,2.5214,2.6183,0.22202,0,0,0,0
473.08,2.5246,2.6187,0.22272,0,0,0,0
473.58,2.5277,2.6187,0.2235,0,0,0,0
474.08,2.531,2.6186,0.22425,0,0,0,0
474.58,2.5343,2.6187,0.22479,0,0,0,0
475.08,2.5376,2.619,0.2254,0,0,0,0
475.58,2.541,2.619,0.22621,0,0,0,0
476.08,2.5444,2.619,0.22693,0,0,0,0
476.58,2.5477,2.619,0.22765,0,0,0,0
477.08,2.5499,2.619,0.22835,0,0,0,0
477.58,2.5534,2.619,0.22891,0,0,0,0
478.08,2.5571,2.619,0.22976,0,0,0,0
478.58,2.5598,2.619,0.23054,0,0,0,0
479.08,2.5628,2.619,0.23115,0,0,0,0
479.58,2.5666,2.619,0.232,0,0,0,0
480.08,2.5707,2.6193,0.23251,0,0,0,0
480.58,2.5735,2.6194,0.23341,0,0,0,0
481.08,2.5766,2.6193,0.23413,0,0,0,0
481.58,2.5797,2.619,0.23466,0,0,0,0
482.08,2.583,2.619,0.23549,0,0,0,0
482.58,2.5864,2.6193,0.2362,0,0,0,0
483.08,2.5893,2.6197,0.23692,0,0,0,0
483.58,2.5924,2.62,0.23787,0,0,0,0
484.08,2.5957,2.62,0.23845,0,0,0,0
484.58,2.599,2.62,0.23938,0,0,0,0
485.08,2.6024,2.62,0.2402,0,0,0,0
485.58,2.6058,2.62,0.2411,0,0,0,0
486.08,2.6092,2.62,0.24178,0,0,0,0
486.58,2.6124,2.62,0.24268,0,0,0,0
487.08,2.6158,2.62,0.24352,0,0,0,0
487.58,2.619,2.62,0.24426,0,0,0,0
488.08,2.6222,2.62,0.24512,0,0,0,0
488.58,2.6253,2.6197,0.24586,0,0,0,0
489.08,2.6287,2.6193,0.2467,0,0,0,0
489.58,2.6319,2.619,0.24743,0,0,0,0
490.08,2.6354,2.619,0.24835,0,0,0,0
490.58,2.6386,2.619,0.24921,0,0,0,0
491.08,2.6417,2.619,0.24989,0,0,0,0
491.58,2.6454,2.619,0.25076,0,0,0,0
492.08,2.6484,2.619,0.25151,0,0,0,0
492.58,2.6515,2.619,0.2524,0,0,0,0
493.08,2.6546,2.619,0.25342,0,0,0,0
493.58,2.6582,2.619,0.25427,0,0,0,0
494.08,2.6612,2.6187,0.255,0,0,0,0
494.58,2.6647,2.6183,0.25604,0,0,0,0
495.08,2.6681,2.618,0.25705,0,0,0,0
495.58,2.6715,2.618,0.25801,0,0,0,0
496.08,2.6746,2.618,0.25892,0,0,0,0
496.58,2.6781,2.618,0.25983,0,0,0,0
497.08,2.6817,2.618,0.26094,0,0,0,0
497.58,2.6849,2.6177,0.26197,0,0,0,0
498.08,2.6881,2.6173,0.2628,0,0,0,0
498.58,2.6911,2.617,0.26378,0,0,0,0
499.08,2.6946,2.617,0.26471,0,0,0,0
499.58,2.6977,2.617,0.26566,0,0,0,0
500.08,2.7011,2.617,0.26666,0,0,0,0
500.58,2.705,2.6167,0.26779,0,0,0,0
501.08,2.708,2.6163,0.26874,0,0,0,0
501.58,2.7114,2.616,0.27,0,0,0,0
502.08,2.7147,2.616,0.27079,0,0,0,0
502.58,2.718,2.6157,0.27192,0,0,0,0
503.08,2.721,2.6153,0.27281,0,0,0,0
503.58,2.7244,2.615,0.27391,0,0,0,0
504.08,2.7275,2.615,0.27503,0,0,0,0
504.58,2.731,2.6147,0.27608,0,0,0,0
505.08,2.7345,2.6143,0.27717,0,0,0,0
505.58,2.7377,2.6137,0.27829,0,0,0,0
506.08,2.7411,2.6133,0.27944,0,0,0,0
506.58,2.7447,2.613,0.28071,0,0,0,0
507.08,2.7478,2.613,0.28182,0,0,0,0
507.58,2.751,2.6127,0.28291,0,0,0,0
508.08,2.7543,2.6123,0.2842,0,0,0,0
508.58,2.7576,2.6117,0.28534,0,0,0,0
509.08,2.7609,2.6113,0.2864,0,0,0,0
509.58,2.7642,2.611,0.28778,0,0,0,0
510.08,2.7676,2.6107,0.28892,0,0,0,0
510.58,2.7711,2.6103,0.2902,0,0,0,0
511.08,2.7744,2.61,0.29141,0,0,0,0
511.58,2.7778,2.6097,0.29268,0,0,0,0
512.08,2.7811,2.6093,0.29399,0,0,0,0
512.58,2.7845,2.6087,0.29514,0,0,0,0
513.08,2.7877,2.6083,0.29641,0,0,0,0
513.58,2.7911,2.6077,0.29773,0,0,0,0
514.08,2.7945,2.607,0.2991,0,0,0,0
514.58,2.7976,2.6063,0.30015,0,0,0,0
515.08,2.8012,2.6057,0.30132,0,0,0,0
515.58,2.8046,2.6053,0.30266,0,0,0,0
516.08,2.8081,2.6047,0.30395,0,0,0,0
516.58,2.8115,2.604,0.30516,0,0,0,0
517.08,2.8148,2.6033,0.30639,0,0,0,0
517.58,2.8182,2.6027,0.30773,0,0,0,0
518.08,2.8212,2.6023,0.30916,0,0,0,0
518.58,2.8245,2.6017,0.31058,0,0,0,0
519.08,2.8279,2.601,0.31194,0,0,0,0
519.58,2.8313,2.6,0.31319,0,0,0,0
520.08,2.8346,2.5993,0.31461,0,0,0,0
520.58,2.8378,2.5987,0.31583,0,0,0,0
521.08,2.8415,2.5983,0.3172,0,0,0,0
521.58,2.8448,2.5977,0.31857,0,0,0,0
522.08,2.8482,2.597,0.31996,0,0,0,0
522.58,2.8516,2.596,0.32149,0,0,0,0
523.08,2.8549,2.595,0.323,0,0,0,0
523.58,2.8582,2.594,0.32448,0,0,0,0
524.08,2.8617,2.593,0.32608,0,0,0,0
524.58,2.865,2.592,0.32753,0,0,0,0
525.08,2.8684,2.5913,0.32901,0,0,0,0
525.58,2.8719,2.5907,0.33036,0,0,0,0
526.08,2.8754,2.59,0.33195,0,0,0,0
526.58,2.8788,2.5887,0.33335,0,0,0,0
527.08,2.8822,2.5873,0.33479,0,0,0,0
527.58,2.8855,2.586,0.33623,0,0,0,0
528.08,2.8889,2.585,0.33781,0,0,0,0
528.58,2.8922,2.584,0.33936,0,0,0,0
529.08,2.8952,2.583,0.34108,0,0,0,0
529.58,2.8988,2.582,0.34258,0,0,0,0
530.08,2.9023,2.5807,0.34425,0,0,0,0
530.58,2.9059,2.5793,0.34601,0,0,0,0
531.08,2.9089,2.578,0.34736,0,0,0,0
531.58,2.9129,2.5767,0.34911,0,0,0,0
532.08,2.9163,2.575,0.35072,0,0,0,0
532.58,2.9196,2.5733,0.35226,0,0,0,0
533.08,2.923,2.572,0.35391,0,0,0,0
533.58,2.9264,2.5707,0.35549,0,0,0,0
534.08,2.9297,2.5693,0.3572,0,0,0,0
534.58,2.9331,2.5677,0.35906,0,0,0,0
535.08,2.9366,2.566,0.36081,0,0,0,0
535.58,2.9402,2.5643,0.36247,0,0,0,0
536.08,2.9438,2.5627,0.3642,0,0,0,0
536.58,2.9473,2.561,0.3662,0,0,0,0
537.08,2.9508,2.559,0.36806,0,0,0,0
537.58,2.9541,2.5573,0.36992,0,0,0,0
538.08,2.9575,2.5554,0.3715,0,0,0,0
538.58,2.961,2.5533,0.37339,0,0,0,0
539.08,2.9642,2.5513,0.3751,0,0,0,0
539.58,2.9679,2.5497,0.37697,0,0,0,0
540.08,2.9713,2.5477,0.37874,0,0,0,0
540.58,2.9751,2.5453,0.38062,0,0,0,0
541.08,2.9787,2.5427,0.38246,0,0,0,0
541.58,2.9822,2.5406,0.38452,0,0,0,0
542.08,2.9857,2.5384,0.38625,0,0,0,0
542.58,2.9892,2.5363,0.388,0,0,0,0
543.08,2.9924,2.5337,0.39017,0,0,0,0
543.58,2.9959,2.5313,0.39201,0,0,0,0
544.08,2.9993,2.5287,0.39382,0,0,0,0
544.58,3.0028,2.526,0.3957,0,0,0,0
545.08,3.0067,2.523,0.39746,0,0,0,0
545.58,3.0103,2.52,0.39931,0,0,0,0
546.08,3.014,2.5173,0.40133,0,0,0,0
546.58,3.0179,2.5147,0.40333,0,0,0,0
547.08,3.0211,2.512,0.4055,0,0,0,0
547.58,3.0247,2.5087,0.40747,0,0,0,0
548.08,3.028,2.5053,0.40939,0,0,0,0
548.58,3.0316,2.502,0.41137,0,0,0,0
549.08,3.0352,2.4987,0.41353,0,0,0,0
549.58,3.0386,2.4953,0.41561,0,0,0,0
550.08,3.0425,2.4917,0.41783,0,0,0,0
550.58,3.0462,2.4883,0.42036,0,0,0,0
551.08,3.0499,2.4847,0.42263,0,0,0,0
551.58,3.0535,2.481,0.42514,0,0,0,0
552.08,3.0574,2.4767,0.42742,0,0,0,0
552.58,3.0607,2.4729,0.4298,0,0,0,0
553.08,3.0643,2.4691,0.43242,0,0,0,0
553.58,3.0679,2.465,0.43432,0,0,0,0
554.08,3.0718,2.4603,0.43699,0,0,0,0
554.58,3.0755,2.4557,0.43957,0,0,0,0
555.08,3.0793,2.4513,0.44182,0,0,0,0
555.58,3.0832,2.4467,0.44494,0,0,0,0
556.08,3.0867,2.4417,0.44795,0,0,0,0
556.58,3.0907,2.436,0.45289,0,0,0,0
557.08,3.0946,2.4303,0.45422,0,0,0,0
557.58,3.0981,2.425,0.45639,0,0,0,0
558.08,3.1021,2.4194,0.45928,0,0,0,0
558.58,3.106,2.413,0.46183,0,0,0,0
559.08,3.1099,2.4049,0.4655,0,0,0,0