File: polyN_optimization/results_exp/AA6014-T4/NT20_45_3.csv
Time[s],Displacement[mm],Force[kN],AxStrain_1,AxStrain_2,Thickness[mm],OuterWidth[mm],InnerWidth[mm]
0.62,0,-0.0044298,0,0,1.1135,20,10.123
1.12,-2.6e-05,0.0023364,4.5999e-05,0,0,0,0
1.62,0.000526,0.010581,-6e-06,0,0,0,0
2.12,0.001103,0.029714,-0.00016501,0,0,0,0
2.62,0.00136,0.055004,-8.9004e-05,0,0,0,0
3.12,0.0019,0.080423,3.3999e-05,0,0,0,0
3.62,0.00186,0.10056,1.3e-05,0,0,0,0
4.12,0.002349,0.11472,-3e-06,0,0,0,0
4.62,0.002562,0.12972,-4.1001e-05,0,0,0,0
5.12,0.002649,0.14757,-7.3003e-05,0,0,0,0
5.62,0.003111,0.16615,0.00016399,0,0,0,0
6.12,0.003447,0.18414,4.6999e-05,0,0,0,0
6.62,0.003857,0.20143,-9.3004e-05,0,0,0,0
7.12,0.004026,0.21471,6.0998e-05,0,0,0,0
7.62,0.00394,0.22371,0.00012299,0,0,0,0
8.12,0.003974,0.232,0.00010799,0,0,0,0
8.62,0.0044,0.24386,0.00030395,0,0,0,0
9.12,0.004557,0.25843,0.00018698,0,0,0,0
9.62,0.005187,0.27243,0.00020098,0,0,0,0
10.12,0.005389,0.28615,0.00022597,0,0,0,0
10.62,0.005767,0.30014,0.00020198,0,0,0,0
11.12,0.005996,0.314,0.00026297,0,0,0,0
11.62,0.006571,0.32815,0.00026197,0,0,0,0
12.12,0.006895,0.34257,0.00032195,0,0,0,0
12.62,0.007488,0.35715,0.00018198,0,0,0,0
13.12,0.007614,0.37229,0.00026496,0,0,0,0
13.62,0.00804,0.38785,0.00011399,0,0,0,0
14.12,0.008375,0.402,0.00032895,0,0,0,0
14.62,0.008556,0.41615,0.00033594,0,0,0,0
15.12,0.008652,0.43085,0.00022198,0,0,0,0
15.62,0.008917,0.44529,0.00022198,0,0,0,0
16.12,0.009357,0.45957,0.00024497,0,0,0,0
16.62,0.009434,0.47443,0.00019098,0,0,0,0
17.12,0.009679,0.48986,0.00025197,0,0,0,0
17.62,0.010065,0.50629,0.00024797,0,0,0,0
18.12,0.010364,0.52257,0.00022198,0,0,0,0
18.62,0.010464,0.53729,0.00014099,0,0,0,0
19.12,0.010958,0.55186,0.00045989,0,0,0,0
19.62,0.011159,0.56714,0.00037293,0,0,0,0
20.12,0.011408,0.582,0.00035594,0,0,0,0
20.62,0.012099,0.59715,0.00047289,0,0,0,0
21.12,0.012543,0.61285,0.00046289,0,0,0,0
21.62,0.012767,0.62886,0.00042991,0,0,0,0
22.12,0.013321,0.64529,0.00051387,0,0,0,0
22.62,0.01413,0.66185,0.00057084,0,0,0,0
23.12,0.014634,0.677,0.00042991,0,0,0,0
23.62,0.015128,0.69215,0.00057384,0,0,0,0
24.12,0.015718,0.70785,0.00050387,0,0,0,0
24.62,0.016101,0.723,0.00065778,0,0,0,0
25.12,0.016444,0.73815,0.00046989,0,0,0,0
25.62,0.01681,0.75385,0.00053386,0,0,0,0
26.12,0.017038,0.77015,0.00048288,0,0,0,0
26.62,0.017521,0.78671,0.00050687,0,0,0,0
27.12,0.017837,0.80314,0.00058083,0,0,0,0
27.62,0.018052,0.818,0.00062381,0,0,0,0
28.12,0.018293,0.83315,0.00057384,0,0,0,0
28.62,0.018347,0.84885,0.00047988,0,0,0,0
29.12,0.018582,0.864,0.00055684,0,0,0,0
29.62,0.018921,0.87915,0.00059782,0,0,0,0
30.12,0.019267,0.89485,0.00050987,0,0,0,0
30.62,0.019801,0.91086,0.00055085,0,0,0,0
31.12,0.02021,0.92729,0.00067477,0,0,0,0
31.62,0.020798,0.94385,0.00060382,0,0,0,0
32.12,0.021298,0.95871,0.00070175,0,0,0,0
32.62,0.021721,0.97343,0.00087562,0,0,0,0
33.12,0.022587,0.98885,0.00072474,0,0,0,0
33.62,0.022863,1.0037,0.00088261,0,0,0,0
34.12,0.023168,1.0184,0.00091658,0,0,0,0
34.62,0.024004,1.0336,0.00079169,0,0,0,0
35.12,0.024585,1.0491,0.00081167,0,0,0,0
35.62,0.025088,1.065,0.00082566,0,0,0,0
36.12,0.025659,1.0809,0.00099351,0,0,0,0
36.62,0.025793,1.0953,0.00074872,0,0,0,0
37.12,0.025824,1.1096,0.0008896,0,0,0,0
37.62,0.027442,1.1241,0.00095654,0,0,0,0
38.12,0.026619,1.1383,0.0007787,0,0,0,0
38.62,0.026666,1.1526,0.00083865,0,0,0,0
39.12,0.027653,1.1671,0.00097652,0,0,0,0
39.62,0.028634,1.1819,0.00096354,0,0,0,0
40.12,0.02862,1.197,0.00090959,0,0,0,0
40.62,0.029413,1.2119,0.00080168,0,0,0,0
41.12,0.029265,1.225,0.00097952,0,0,0,0
41.62,0.030423,1.2379,0.0009995,0,0,0,0
42.12,0.031071,1.2511,0.0011403,0,0,0,0
42.62,0.031212,1.2634,0.0012412,0,0,0,0
43.12,0.032598,1.2751,0.001396,0,0,0,0
43.62,0.033962,1.2869,0.0015937,0,0,0,0
44.12,0.034677,1.2974,0.0018782,0,0,0,0
44.62,0.036308,1.3071,0.0019651,0,0,0,0
45.12,0.037805,1.3166,0.0024011,0,0,0,0
45.62,0.039168,1.325,0.0028599,0,0,0,0
46.12,0.040662,1.3326,0.003157,0,0,0,0
46.62,0.042348,1.3404,0.0033015,0,0,0,0
47.12,0.043973,1.348,0.0035357,0,0,0,0
47.62,0.045433,1.3553,0.0037729,0,0,0,0
48.12,0.04732,1.3627,0.0039542,0,0,0,0
48.62,0.049586,1.37,0.0041514,0,0,0,0
49.12,0.051385,1.3773,0.0041942,0,0,0,0
49.62,0.053443,1.3844,0.0044322,0,0,0,0
50.12,0.055474,1.391,0.0043714,0,0,0,0
50.62,0.057418,1.3973,0.0047059,0,0,0,0
51.12,0.060064,1.4034,0.004903,0,0,0,0
51.62,0.061903,1.4093,0.0050801,0,0,0,0
52.12,0.063777,1.4153,0.0052671,0,0,0,0
52.62,0.065925,1.4214,0.0055307,0,0,0,0
53.12,0.068007,1.427,0.0057107,0,0,0,0
53.62,0.06985,1.4329,0.0059811,0,0,0,0
54.12,0.072042,1.4391,0.0063448,0,0,0,0
54.62,0.073919,1.445,0.0068157,0,0,0,0
55.12,0.076605,1.4503,0.0069289,0,0,0,0
55.62,0.079371,1.4554,0.0072824,0,0,0,0
56.12,0.081718,1.4603,0.0075723,0,0,0,0
56.62,0.084148,1.4653,0.0077757,0,0,0,0
57.12,0.086314,1.4704,0.0079255,0,0,0,0
57.62,0.08856,1.4756,0.0082618,0,0,0,0
58.12,0.090587,1.481,0.0084214,0,0,0,0
58.62,0.093052,1.4864,0.0086574,0,0,0,0
59.12,0.095053,1.491,0.0085117,0,0,0,0
59.62,0.097732,1.4953,0.0087248,0,0,0,0
60.12,0.099444,1.5,0.0088309,0,0,0,0
60.62,0.1021,1.5047,0.0088448,0,0,0,0
61.12,0.10445,1.5093,0.008927,0,0,0,0
61.62,0.10732,1.5137,0.0090638,0,0,0,0
62.12,0.10976,1.5183,0.0093036,0,0,0,0
62.62,0.11203,1.5227,0.0095493,0,0,0,0
63.12,0.1147,1.5273,0.0098058,0,0,0,0
63.62,0.11728,1.5317,0.009782,0,0,0,0
64.12,0.11935,1.536,0.010337,0,0,0,0
64.62,0.12173,1.54,0.010607,0,0,0,0
65.12,0.12406,1.544,0.010991,0,0,0,0
65.62,0.12622,1.5483,0.011141,0,0,0,0
66.12,0.12873,1.5524,0.011563,0,0,0,0
66.62,0.13119,1.5566,0.011918,0,0,0,0
67.12,0.13376,1.561,0.012116,0,0,0,0
67.62,0.13641,1.5654,0.012425,0,0,0,0
68.12,0.13894,1.5693,0.012422,0,0,0,0
68.62,0.14146,1.573,0.012578,0,0,0,0
69.12,0.14419,1.577,0.012587,0,0,0,0
69.62,0.14635,1.5807,0.012783,0,0,0,0
70.12,0.14886,1.5846,0.012853,0,0,0,0
70.62,0.15107,1.5884,0.012833,0,0,0,0
71.12,0.15355,1.5923,0.013075,0,0,0,0
71.62,0.15561,1.596,0.013061,0,0,0,0
72.12,0.1586,1.6,0.013119,0,0,0,0
72.62,0.16057,1.6037,0.013373,0,0,0,0
73.12,0.16363,1.6073,0.013644,0,0,0,0
73.62,0.16654,1.611,0.013959,0,0,0,0
74.12,0.16904,1.6147,0.014139,0,0,0,0
74.62,0.17208,1.6183,0.014294,0,0,0,0
75.12,0.17475,1.6217,0.014595,0,0,0,0
75.62,0.1768,1.6253,0.014814,0,0,0,0
76.12,0.17911,1.629,0.01524,0,0,0,0
76.62,0.18178,1.633,0.015392,0,0,0,0
77.12,0.18417,1.6367,0.015934,0,0,0,0
77.62,0.18603,1.6403,0.015997,0,0,0,0
78.12,0.1891,1.6437,0.016261,0,0,0,0
78.62,0.19182,1.647,0.016314,0,0,0,0
79.12,0.19462,1.65,0.016419,0,0,0,0
79.62,0.19725,1.6533,0.016419,0,0,0,0
80.12,0.19985,1.657,0.016516,0,0,0,0
80.62,0.20256,1.661,0.016419,0,0,0,0
81.12,0.20497,1.6644,0.01676,0,0,0,0
81.62,0.20756,1.6676,0.016648,0,0,0,0
82.12,0.21022,1.6707,0.016608,0,0,0,0
82.62,0.21273,1.674,0.016964,0,0,0,0
83.12,0.21511,1.677,0.017034,0,0,0,0
83.62,0.21775,1.6803,0.017331,0,0,0,0
84.12,0.22059,1.6837,0.017584,0,0,0,0
84.62,0.22358,1.6873,0.017958,0,0,0,0
85.12,0.22649,1.6907,0.018129,0,0,0,0
85.62,0.22921,1.694,0.018449,0,0,0,0
86.12,0.2318,1.697,0.018653,0,0,0,0
86.62,0.23442,1.7,0.018976,0,0,0,0
87.12,0.23734,1.703,0.019157,0,0,0,0
87.62,0.23968,1.706,0.019536,0,0,0,0
88.12,0.24218,1.709,0.019599,0,0,0,0
88.62,0.24485,1.712,0.019769,0,0,0,0
89.12,0.24765,1.7153,0.019812,0,0,0,0
89.62,0.25041,1.719,0.02001,0,0,0,0
90.14,0.25297,1.7224,0.019938,0,0,0,0
90.62,0.25616,1.7253,0.020036,0,0,0,0
91.12,0.25915,1.728,0.02021,0,0,0,0
91.62,0.2618,1.731,0.020185,0,0,0,0
92.12,0.26454,1.734,0.020408,0,0,0,0
92.62,0.26724,1.737,0.020451,0,0,0,0
93.12,0.26971,1.74,0.020714,0,0,0,0
93.62,0.27196,1.743,0.020895,0,0,0,0
94.12,0.27463,1.7463,0.021204,0,0,0,0
94.62,0.27738,1.7497,0.021336,0,0,0,0
95.12,0.28034,1.7527,0.021576,0,0,0,0
95.62,0.28312,1.7553,0.02195,0,0,0,0
96.12,0.28614,1.758,0.02218,0,0,0,0
96.62,0.2891,1.7607,0.022325,0,0,0,0
97.12,0.29205,1.7636,0.022577,0,0,0,0
97.62,0.29481,1.7667,0.022768,0,0,0,0
98.12,0.29743,1.77,0.023003,0,0,0,0
98.62,0.3001,1.773,0.023135,0,0,0,0
99.12,0.3027,1.776,0.023177,0,0,0,0
99.62,0.30529,1.7787,0.023401,0,0,0,0
100.12,0.30819,1.7813,0.023397,0,0,0,0
100.62,0.31112,1.784,0.023515,0,0,0,0
101.12,0.31408,1.7867,0.023532,0,0,0,0
101.62,0.31702,1.7896,0.023883,0,0,0,0
102.12,0.32002,1.7927,0.024056,0,0,0,0
102.62,0.32288,1.7957,0.024247,0,0,0,0
103.12,0.32552,1.7983,0.024233,0,0,0,0
103.62,0.32825,1.801,0.024541,0,0,0,0
104.12,0.33084,1.8037,0.024657,0,0,0,0
104.62,0.33355,1.8063,0.024908,0,0,0,0
105.12,0.33612,1.8087,0.025161,0,0,0,0
105.62,0.33864,1.8113,0.025262,0,0,0,0
106.12,0.34172,1.814,0.025521,0,0,0,0
106.62,0.34456,1.817,0.025799,0,0,0,0
107.12,0.34752,1.82,0.026002,0,0,0,0
107.62,0.35068,1.8227,0.026113,0,0,0,0
108.12,0.35325,1.8253,0.026296,0,0,0,0
108.62,0.35616,1.8277,0.026427,0,0,0,0
109.12,0.35891,1.8303,0.026639,0,0,0,0
109.62,0.36164,1.8327,0.02693,0,0,0,0
110.12,0.3641,1.8353,0.027034,0,0,0,0
110.62,0.36683,1.838,0.027027,0,0,0,0
111.12,0.3694,1.841,0.027267,0,0,0,0
111.62,0.37237,1.8434,0.027424,0,0,0,0
112.12,0.37521,1.8456,0.027528,0,0,0,0
112.62,0.37843,1.848,0.027534,0,0,0,0
113.12,0.38135,1.8507,0.027714,0,0,0,0
113.62,0.38424,1.8533,0.027878,0,0,0,0
114.12,0.38697,1.856,0.028237,0,0,0,0
114.62,0.38966,1.8587,0.028367,0,0,0,0
115.12,0.39223,1.8613,0.028595,0,0,0,0
115.62,0.39474,1.8637,0.02866,0,0,0,0
116.12,0.39754,1.8663,0.028922,0,0,0,0
116.62,0.40025,1.8687,0.028988,0,0,0,0
117.12,0.4031,1.8713,0.029248,0,0,0,0
117.62,0.40608,1.8737,0.029509,0,0,0,0
118.12,0.4094,1.8763,0.029639,0,0,0,0
118.62,0.41213,1.8787,0.029867,0,0,0,0
119.12,0.415,1.881,0.029769,0,0,0,0
119.62,0.41782,1.8833,0.030226,0,0,0,0
120.12,0.42063,1.8857,0.030389,0,0,0,0
120.62,0.42317,1.8883,0.030552,0,0,0,0
121.12,0.42583,1.8907,0.030812,0,0,0,0
121.62,0.42867,1.893,0.030877,0,0,0,0
122.12,0.43131,1.8953,0.031137,0,0,0,0
122.62,0.4341,1.8977,0.03104,0,0,0,0
123.12,0.43696,1.9003,0.031365,0,0,0,0
123.62,0.43998,1.9027,0.031561,0,0,0,0
124.12,0.44307,1.905,0.031626,0,0,0,0
124.62,0.44581,1.9073,0.031691,0,0,0,0
125.12,0.44872,1.9097,0.032016,0,0,0,0
125.62,0.45157,1.912,0.032049,0,0,0,0
126.12,0.45411,1.9143,0.032114,0,0,0,0
126.62,0.45664,1.9167,0.032503,0,0,0,0
127.12,0.45955,1.919,0.032667,0,0,0,0
127.62,0.46229,1.921,0.032959,0,0,0,0
128.12,0.46537,1.923,0.033088,0,0,0,0
128.62,0.46828,1.9253,0.033381,0,0,0,0
129.12,0.47118,1.928,0.033381,0,0,0,0
129.62,0.47424,1.9307,0.033737,0,0,0,0
130.12,0.47713,1.933,0.033966,0,0,0,0
130.62,0.47981,1.935,0.034127,0,0,0,0
131.12,0.48267,1.937,0.034257,0,0,0,0
131.62,0.48528,1.9393,0.034354,0,0,0,0
132.12,0.48796,1.9417,0.034387,0,0,0,0
132.62,0.49082,1.944,0.034614,0,0,0,0
133.12,0.49376,1.946,0.034874,0,0,0,0
133.62,0.49639,1.9483,0.034938,0,0,0,0
134.12,0.49974,1.9507,0.034938,0,0,0,0
134.62,0.50265,1.953,0.035392,0,0,0,0
135.12,0.50566,1.9553,0.035425,0,0,0,0
135.62,0.50865,1.9577,0.035457,0,0,0,0
136.12,0.51125,1.96,0.035781,0,0,0,0
136.62,0.51393,1.9617,0.035879,0,0,0,0
137.12,0.51683,1.9636,0.03617,0,0,0,0
137.62,0.51962,1.9657,0.036267,0,0,0,0
138.12,0.52204,1.9683,0.036526,0,0,0,0
138.62,0.52513,1.9707,0.037043,0,0,0,0
139.12,0.52807,1.9727,0.036979,0,0,0,0
139.62,0.53099,1.9746,0.037205,0,0,0,0
140.12,0.53385,1.9767,0.037464,0,0,0,0
140.62,0.537,1.979,0.037529,0,0,0,0
141.12,0.53997,1.981,0.037691,0,0,0,0
141.62,0.54277,1.983,0.03782,0,0,0,0
142.12,0.54563,1.985,0.037852,0,0,0,0
142.62,0.54822,1.9873,0.038337,0,0,0,0
143.12,0.55093,1.9897,0.038175,0,0,0,0
143.62,0.55377,1.9917,0.038466,0,0,0,0
144.12,0.55657,1.9936,0.038563,0,0,0,0
144.62,0.55959,1.9957,0.038757,0,0,0,0
145.12,0.56281,1.998,0.038693,0,0,0,0
145.62,0.5657,2,0.03895,0,0,0,0
146.12,0.56887,2.002,0.039338,0,0,0,0
146.62,0.57175,2.004,0.039371,0,0,0,0
147.12,0.57446,2.006,0.039564,0,0,0,0
147.62,0.57735,2.008,0.039822,0,0,0,0
148.12,0.57994,2.01,0.039887,0,0,0,0
148.62,0.58247,2.012,0.04021,0,0,0,0
149.12,0.58532,2.014,0.040564,0,0,0,0
149.62,0.5882,2.016,0.040725,0,0,0,0
150.12,0.59123,2.018,0.040887,0,0,0,0
150.62,0.59426,2.02,0.040887,0,0,0,0
151.12,0.5973,2.022,0.041208,0,0,0,0
151.62,0.60041,2.024,0.041305,0,0,0,0
152.12,0.60329,2.026,0.041402,0,0,0,0
152.62,0.60603,2.028,0.041531,0,0,0,0
153.12,0.6087,2.03,0.041724,0,0,0,0
153.62,0.61149,2.032,0.041885,0,0,0,0
154.12,0.6143,2.034,0.042078,0,0,0,0
154.62,0.61719,2.036,0.042239,0,0,0,0
155.12,0.61992,2.0377,0.042239,0,0,0,0
155.62,0.62311,2.0396,0.042464,0,0,0,0
156.12,0.62629,2.0417,0.042818,0,0,0,0
156.62,0.62915,2.044,0.04269,0,0,0,0
157.12,0.63213,2.046,0.043044,0,0,0,0
157.62,0.63522,2.0477,0.043173,0,0,0,0
158.12,0.63786,2.0493,0.043365,0,0,0,0
158.62,0.64063,2.051,0.043751,0,0,0,0
159.12,0.64348,2.053,0.043847,0,0,0,0
159.62,0.64615,2.055,0.04404,0,0,0,0
160.12,0.64897,2.057,0.044201,0,0,0,0
160.62,0.65212,2.059,0.04465,0,0,0,0
161.12,0.65517,2.061,0.044522,0,0,0,0
161.62,0.65816,2.0627,0.044747,0,0,0,0
162.12,0.66134,2.0646,0.045068,0,0,0,0
162.62,0.66451,2.0664,0.0451,0,0,0,0
163.12,0.66718,2.0683,0.045325,0,0,0,0
163.62,0.67004,2.07,0.045421,0,0,0,0
164.12,0.67269,2.072,0.04555,0,0,0,0
164.62,0.67561,2.074,0.045614,0,0,0,0
165.12,0.67834,2.076,0.045742,0,0,0,0
165.62,0.68125,2.078,0.045966,0,0,0,0
166.12,0.68417,2.08,0.046159,0,0,0,0
166.62,0.68734,2.082,0.046255,0,0,0,0
167.12,0.69036,2.084,0.046447,0,0,0,0
167.62,0.69354,2.0857,0.046768,0,0,0,0
168.12,0.69635,2.0873,0.046896,0,0,0,0
168.62,0.69921,2.0887,0.047024,0,0,0,0
169.12,0.70211,2.0903,0.047472,0,0,0,0
169.62,0.70475,2.092,0.047633,0,0,0,0
170.12,0.70771,2.094,0.047632,0,0,0,0
170.62,0.71033,2.096,0.047985,0,0,0,0
171.12,0.71334,2.098,0.047985,0,0,0,0
171.62,0.71643,2.0997,0.048208,0,0,0,0
172.12,0.71947,2.1013,0.048368,0,0,0,0
172.62,0.72282,2.103,0.048561,0,0,0,0
173.12,0.7257,2.105,0.048656,0,0,0,0
173.62,0.72855,2.1067,0.048688,0,0,0,0
174.12,0.73132,2.1083,0.049041,0,0,0,0
174.62,0.73408,2.11,0.049168,0,0,0,0
175.12,0.73682,2.1117,0.04936,0,0,0,0
175.62,0.73953,2.1136,0.049392,0,0,0,0
176.12,0.74231,2.1154,0.049711,0,0,0,0
176.62,0.74538,2.1173,0.049743,0,0,0,0
177.12,0.74816,2.119,0.050127,0,0,0,0
177.62,0.75144,2.1207,0.050191,0,0,0,0
178.12,0.75463,2.1223,0.05051,0,0,0,0
178.62,0.75766,2.124,0.050542,0,0,0,0
179.12,0.76051,2.1257,0.050957,0,0,0,0
179.62,0.76342,2.1273,0.050861,0,0,0,0
180.12,0.76612,2.129,0.051308,0,0,0,0
180.62,0.76904,2.1307,0.051339,0,0,0,0
181.12,0.7716,2.1323,0.051435,0,0,0,0
181.62,0.77434,2.134,0.051658,0,0,0,0
182.12,0.77729,2.1357,0.051849,0,0,0,0
182.62,0.78036,2.1373,0.052041,0,0,0,0
183.12,0.78347,2.139,0.052232,0,0,0,0
183.62,0.78657,2.1407,0.052295,0,0,0,0
184.12,0.78945,2.1423,0.052424,0,0,0,0
184.62,0.79241,2.144,0.052742,0,0,0,0
185.12,0.79516,2.1457,0.052997,0,0,0,0
185.62,0.79795,2.1473,0.053092,0,0,0,0
186.12,0.80076,2.149,0.05338,0,0,0,0
186.62,0.80343,2.1507,0.053442,0,0,0,0
187.12,0.80641,2.1523,0.053634,0,0,0,0
187.62,0.80919,2.154,0.053856,0,0,0,0
188.12,0.81234,2.1557,0.054016,0,0,0,0
188.62,0.81534,2.1573,0.053951,0,0,0,0
189.12,0.81845,2.159,0.054302,0,0,0,0
189.62,0.82139,2.1607,0.054493,0,0,0,0
190.12,0.82435,2.1623,0.054779,0,0,0,0
190.62,0.82706,2.1637,0.054778,0,0,0,0
191.12,0.82972,2.1653,0.054906,0,0,0,0
191.62,0.83243,2.167,0.055033,0,0,0,0
192.12,0.83529,2.1687,0.055192,0,0,0,0
192.62,0.83798,2.17,0.055477,0,0,0,0
193.12,0.84106,2.1713,0.055605,0,0,0,0
193.62,0.844,2.173,0.055764,0,0,0,0
194.12,0.84715,2.1747,0.056049,0,0,0,0
194.62,0.8503,2.1763,0.056144,0,0,0,0
195.12,0.85315,2.1777,0.056207,0,0,0,0
195.62,0.85621,2.1793,0.056716,0,0,0,0
196.12,0.85876,2.1807,0.056906,0,0,0,0
196.62,0.86171,2.1823,0.056969,0,0,0,0
197.12,0.86431,2.1837,0.057192,0,0,0,0
197.62,0.86718,2.1853,0.057382,0,0,0,0
198.12,0.86978,2.187,0.057571,0,0,0,0
198.62,0.87286,2.1887,0.057604,0,0,0,0
199.12,0.8759,2.1903,0.057857,0,0,0,0
199.62,0.87895,2.1917,0.057984,0,0,0,0
200.12,0.88208,2.1933,0.058206,0,0,0,0
200.62,0.8851,2.1947,0.058238,0,0,0,0
201.12,0.88791,2.1963,0.058523,0,0,0,0
201.62,0.89071,2.1977,0.058586,0,0,0,0
202.12,0.89336,2.1993,0.058934,0,0,0,0
202.62,0.89637,2.2007,0.058997,0,0,0,0
203.12,0.89908,2.2023,0.059155,0,0,0,0
203.62,0.90208,2.2037,0.059409,0,0,0,0
204.12,0.90496,2.2053,0.059693,0,0,0,0
204.62,0.90804,2.2067,0.06001,0,0,0,0
205.12,0.91134,2.2083,0.060073,0,0,0,0
205.62,0.91443,2.2097,0.060262,0,0,0,0
206.12,0.91706,2.211,0.060483,0,0,0,0
206.62,0.92025,2.2123,0.060705,0,0,0,0
207.12,0.92276,2.2137,0.060958,0,0,0,0
207.62,0.92549,2.2153,0.061053,0,0,0,0
208.12,0.92827,2.2167,0.061305,0,0,0,0
208.62,0.93085,2.2183,0.061369,0,0,0,0
209.12,0.93406,2.2197,0.06159,0,0,0,0
209.62,0.93696,2.2213,0.061811,0,0,0,0
210.12,0.94009,2.223,0.061748,0,0,0,0
210.62,0.94309,2.2247,0.061905,0,0,0,0
211.12,0.94623,2.226,0.062189,0,0,0,0
211.62,0.94914,2.2273,0.062315,0,0,0,0
212.12,0.95188,2.2287,0.062536,0,0,0,0
212.62,0.95481,2.2303,0.062757,0,0,0,0
213.12,0.95743,2.2317,0.062915,0,0,0,0
213.62,0.9601,2.233,0.063135,0,0,0,0
214.12,0.96297,2.2343,0.06323,0,0,0,0
214.62,0.96592,2.2357,0.063482,0,0,0,0
215.12,0.96906,2.2373,0.063608,0,0,0,0
215.62,0.97218,2.2387,0.063923,0,0,0,0
216.12,0.97539,2.2403,0.064364,0,0,0,0
216.62,0.97829,2.2417,0.064302,0,0,0,0
217.12,0.9812,2.243,0.064584,0,0,0,0
217.62,0.98407,2.244,0.064868,0,0,0,0
218.12,0.98654,2.2453,0.064993,0,0,0,0
218.62,0.9895,2.2467,0.065025,0,0,0,0
219.12,0.9924,2.248,0.065403,0,0,0,0
219.62,0.99511,2.2493,0.065497,0,0,0,0
220.12,0.99804,2.251,0.065591,0,0,0,0
220.62,1.0012,2.2527,0.06578,0,0,0,0
221.12,1.0042,2.254,0.066031,0,0,0,0
221.62,1.0073,2.2553,0.066094,0,0,0,0
222.12,1.0102,2.2567,0.066346,0,0,0,0
222.62,1.0132,2.258,0.066629,0,0,0,0
223.12,1.0161,2.2593,0.066628,0,0,0,0
223.62,1.0187,2.2607,0.06688,0,0,0,0
224.12,1.0214,2.262,0.067005,0,0,0,0
224.62,1.0243,2.263,0.06713,0,0,0,0
225.12,1.0273,2.2643,0.067665,0,0,0,0
225.62,1.0301,2.2657,0.067759,0,0,0,0
226.12,1.0333,2.2673,0.067853,0,0,0,0
226.62,1.0362,2.2687,0.068198,0,0,0,0
227.12,1.0392,2.27,0.068449,0,0,0,0
227.62,1.0424,2.2713,0.068512,0,0,0,0
228.12,1.0452,2.2727,0.068763,0,0,0,0
228.62,1.0482,2.274,0.069013,0,0,0,0
229.12,1.0508,2.275,0.069326,0,0,0,0
229.62,1.0534,2.2763,0.069389,0,0,0,0
230.12,1.0563,2.2777,0.069576,0,0,0,0
230.62,1.0592,2.279,0.069701,0,0,0,0
231.12,1.0623,2.28,0.06989,0,0,0,0
231.62,1.0654,2.2813,0.070203,0,0,0,0
232.12,1.0683,2.2827,0.070328,0,0,0,0
232.62,1.0714,2.284,0.070328,0,0,0,0
233.12,1.0741,2.2853,0.070516,0,0,0,0
233.62,1.0771,2.2867,0.070892,0,0,0,0
234.12,1.0798,2.288,0.070954,0,0,0,0
234.62,1.0826,2.289,0.071204,0,0,0,0
235.12,1.085,2.2903,0.071392,0,0,0,0
235.62,1.0882,2.2917,0.071548,0,0,0,0
236.12,1.0911,2.293,0.071861,0,0,0,0
236.62,1.0943,2.2943,0.071861,0,0,0,0
237.12,1.0973,2.2957,0.072235,0,0,0,0
237.62,1.1004,2.297,0.072423,0,0,0,0
238.12,1.1033,2.298,0.072579,0,0,0,0
238.62,1.1065,2.2993,0.072954,0,0,0,0
239.12,1.1094,2.3007,0.07311,0,0,0,0
239.62,1.1122,2.302,0.073203,0,0,0,0
240.12,1.1149,2.303,0.073485,0,0,0,0
240.62,1.1177,2.304,0.073735,0,0,0,0
241.12,1.1204,2.3053,0.074076,0,0,0,0
241.62,1.1235,2.3067,0.074295,0,0,0,0
242.12,1.1265,2.308,0.074419,0,0,0,0
242.62,1.1295,2.309,0.074326,0,0,0,0
243.12,1.1328,2.3103,0.07467,0,0,0,0
243.62,1.1357,2.3117,0.074825,0,0,0,0
244.12,1.1388,2.313,0.074856,0,0,0,0
244.62,1.1415,2.314,0.07523,0,0,0,0
245.12,1.1444,2.3153,0.075292,0,0,0,0
245.62,1.1473,2.3167,0.07551,0,0,0,0
246.12,1.1501,2.318,0.07579,0,0,0,0
246.62,1.153,2.319,0.075853,0,0,0,0
247.12,1.1556,2.32,0.076289,0,0,0,0
247.62,1.1584,2.321,0.076444,0,0,0,0
248.12,1.162,2.322,0.076661,0,0,0,0
248.62,1.1652,2.3233,0.076879,0,0,0,0
249.12,1.1681,2.3247,0.077128,0,0,0,0
249.62,1.1709,2.326,0.077345,0,0,0,0
250.12,1.1738,2.327,0.077563,0,0,0,0
250.62,1.1766,2.328,0.07778,0,0,0,0
251.12,1.1792,2.3293,0.077998,0,0,0,0
251.62,1.1822,2.3307,0.078184,0,0,0,0
252.12,1.1852,2.332,0.078339,0,0,0,0
252.62,1.1881,2.333,0.078402,0,0,0,0
253.12,1.1913,2.334,0.078619,0,0,0,0
253.62,1.1944,2.335,0.078897,0,0,0,0
254.12,1.1973,2.336,0.078805,0,0,0,0
254.62,1.2004,2.3373,0.079085,0,0,0,0
255.12,1.203,2.3387,0.079332,0,0,0,0
255.62,1.206,2.34,0.07927,0,0,0,0
256.12,1.2088,2.341,0.079581,0,0,0,0
256.62,1.2115,2.342,0.079984,0,0,0,0
257.12,1.2143,2.343,0.080046,0,0,0,0
257.62,1.2172,2.344,0.080325,0,0,0,0
258.12,1.2204,2.345,0.080635,0,0,0,0
258.62,1.2232,2.3463,0.08082,0,0,0,0
259.12,1.2263,2.3477,0.081037,0,0,0,0
259.62,1.2292,2.349,0.081222,0,0,0,0
260.12,1.2325,2.35,0.08147,0,0,0,0
260.62,1.2351,2.351,0.081842,0,0,0,0
261.12,1.2379,2.352,0.081904,0,0,0,0
261.62,1.2407,2.353,0.08209,0,0,0,0
262.12,1.2436,2.354,0.082275,0,0,0,0
262.62,1.2462,2.355,0.082243,0,0,0,0
263.12,1.2494,2.3563,0.082521,0,0,0,0
263.62,1.2522,2.3577,0.082614,0,0,0,0
264.12,1.2556,2.359,0.083017,0,0,0,0
264.62,1.2588,2.36,0.083078,0,0,0,0
265.12,1.2615,2.3607,0.083203,0,0,0,0
265.62,1.2645,2.3616,0.083419,0,0,0,0
266.12,1.2672,2.3627,0.083665,0,0,0,0
266.62,1.27,2.364,0.083881,0,0,0,0
267.12,1.2725,2.365,0.084067,0,0,0,0
267.62,1.2754,2.366,0.084376,0,0,0,0
268.12,1.2782,2.367,0.084499,0,0,0,0
268.62,1.2811,2.368,0.084838,0,0,0,0
269.12,1.2841,2.369,0.085147,0,0,0,0
269.62,1.2873,2.37,0.085424,0,0,0,0
270.12,1.2903,2.3713,0.085578,0,0,0,0
270.62,1.2935,2.3727,0.085856,0,0,0,0
271.12,1.2963,2.3737,0.086041,0,0,0,0
271.62,1.2991,2.3746,0.086133,0,0,0,0
272.12,1.3019,2.3757,0.086349,0,0,0,0
272.62,1.3047,2.377,0.086502,0,0,0,0
273.12,1.3075,2.378,0.086656,0,0,0,0
273.62,1.3103,2.379,0.08678,0,0,0,0
274.12,1.3132,2.38,0.08715,0,0,0,0
274.62,1.3163,2.381,0.087211,0,0,0,0
275.12,1.3195,2.382,0.087488,0,0,0,0
275.62,1.3224,2.383,0.08755,0,0,0,0
276.12,1.3255,2.384,0.087857,0,0,0,0
276.62,1.3285,2.385,0.087857,0,0,0,0
277.12,1.3313,2.386,0.088195,0,0,0,0
277.62,1.3339,2.387,0.088625,0,0,0,0
278.12,1.3367,2.388,0.088718,0,0,0,0
278.62,1.3396,2.3887,0.088965,0,0,0,0
279.12,1.3425,2.3896,0.08924,0,0,0,0
279.62,1.3453,2.3907,0.08964,0,0,0,0
280.12,1.3487,2.392,0.089823,0,0,0,0
280.62,1.3514,2.393,0.090099,0,0,0,0
281.12,1.3545,2.394,0.090284,0,0,0,0
281.62,1.3574,2.395,0.09059,0,0,0,0
282.12,1.3603,2.396,0.090559,0,0,0,0
282.62,1.3631,2.397,0.090836,0,0,0,0
283.12,1.366,2.398,0.090897,0,0,0,0
283.62,1.3685,2.399,0.091173,0,0,0,0
284.12,1.3714,2.3997,0.091266,0,0,0,0
284.62,1.3742,2.4003,0.091418,0,0,0,0
285.12,1.3774,2.4013,0.091663,0,0,0,0
285.62,1.3804,2.4027,0.091786,0,0,0,0
286.12,1.3837,2.404,0.092091,0,0,0,0
286.62,1.3868,2.405,0.092368,0,0,0,0
287.12,1.3895,2.406,0.092552,0,0,0,0
287.62,1.3925,2.407,0.092643,0,0,0,0
288.12,1.3953,2.408,0.093133,0,0,0,0
288.62,1.3981,2.409,0.0935,0,0,0,0
289.12,1.4008,2.4097,0.093622,0,0,0,0
289.62,1.4039,2.4103,0.093866,0,0,0,0
290.12,1.4067,2.411,0.094111,0,0,0,0
290.62,1.4099,2.412,0.094478,0,0,0,0
291.12,1.4129,2.413,0.094783,0,0,0,0
291.62,1.4163,2.414,0.094876,0,0,0,0
292.12,1.4194,2.415,0.095119,0,0,0,0
292.62,1.4219,2.416,0.09518,0,0,0,0
293.12,1.4247,2.417,0.095393,0,0,0,0
293.62,1.4278,2.418,0.095547,0,0,0,0
294.12,1.4307,2.419,0.095791,0,0,0,0
294.62,1.4332,2.42,0.096034,0,0,0,0
295.12,1.436,2.421,0.096217,0,0,0,0
295.62,1.4391,2.422,0.09637,0,0,0,0
296.12,1.4422,2.423,0.096614,0,0,0,0
296.62,1.4455,2.424,0.09695,0,0,0,0
297.12,1.4487,2.425,0.097041,0,0,0,0
297.62,1.4515,2.426,0.097467,0,0,0,0
298.12,1.4543,2.4267,0.097589,0,0,0,0
298.62,1.4572,2.4273,0.098046,0,0,0,0
299.12,1.4601,2.428,0.098167,0,0,0,0
299.62,1.4629,2.429,0.098411,0,0,0,0
300.12,1.4656,2.43,0.098867,0,0,0,0
300.62,1.4686,2.4307,0.098837,0,0,0,0
301.12,1.4716,2.4313,0.099385,0,0,0,0
301.62,1.4746,2.432,0.099657,0,0,0,0
302.12,1.4777,2.4333,0.09981,0,0,0,0
302.62,1.4807,2.4344,0.099871,0,0,0,0
303.12,1.4835,2.4353,0.10014,0,0,0,0
303.62,1.4865,2.436,0.10027,0,0,0,0
304.12,1.489,2.437,0.10048,0,0,0,0
304.62,1.492,2.438,0.10063,0,0,0,0
305.12,1.4947,2.439,0.10081,0,0,0,0
305.62,1.4977,2.4397,0.10108,0,0,0,0
306.12,1.5006,2.4406,0.10145,0,0,0,0
306.62,1.5035,2.4417,0.1016,0,0,0,0
307.12,1.5068,2.4427,0.10166,0,0,0,0
307.62,1.5099,2.4433,0.10193,0,0,0,0
308.12,1.5132,2.444,0.10233,0,0,0,0
308.62,1.5159,2.445,0.10263,0,0,0,0
309.12,1.5187,2.446,0.10278,0,0,0,0
309.62,1.5215,2.447,0.10309,0,0,0,0
310.12,1.5245,2.4477,0.10342,0,0,0,0
310.62,1.5276,2.4486,0.1036,0,0,0,0
311.12,1.5304,2.4494,0.10384,0,0,0,0
311.62,1.5334,2.4503,0.10411,0,0,0,0
312.12,1.5364,2.451,0.10433,0,0,0,0
312.62,1.5397,2.452,0.10457,0,0,0,0
313.12,1.5428,2.453,0.1049,0,0,0,0
313.62,1.5452,2.4537,0.10493,0,0,0,0
314.12,1.5481,2.4543,0.10526,0,0,0,0
314.62,1.5508,2.455,0.10532,0,0,0,0
315.12,1.5534,2.456,0.10563,0,0,0,0
315.62,1.5565,2.457,0.10584,0,0,0,0
316.12,1.5593,2.458,0.10596,0,0,0,0
316.62,1.5624,2.4587,0.10641,0,0,0,0
317.12,1.5651,2.4593,0.10644,0,0,0,0
317.62,1.5682,2.46,0.10671,0,0,0,0
318.12,1.5714,2.461,0.10693,0,0,0,0
318.62,1.5748,2.462,0.10735,0,0,0,0
319.12,1.5776,2.4627,0.10756,0,0,0,0
319.62,1.5807,2.4633,0.10783,0,0,0,0
320.12,1.5834,2.464,0.10813,0,0,0,0
320.62,1.5862,2.465,0.10837,0,0,0,0
321.12,1.5891,2.466,0.10873,0,0,0,0
321.62,1.5921,2.467,0.10912,0,0,0,0
322.12,1.595,2.468,0.10918,0,0,0,0
322.62,1.598,2.469,0.10946,0,0,0,0
323.12,1.6011,2.4697,0.10964,0,0,0,0
323.62,1.6043,2.4703,0.10994,0,0,0,0
324.12,1.6071,2.4707,0.11033,0,0,0,0
324.62,1.6105,2.4713,0.11048,0,0,0,0
325.12,1.613,2.472,0.11051,0,0,0,0
325.62,1.6158,2.473,0.11093,0,0,0,0
326.12,1.6187,2.474,0.1112,0,0,0,0
326.62,1.6218,2.475,0.1115,0,0,0,0
327.12,1.6248,2.4757,0.11156,0,0,0,0
327.62,1.6279,2.4763,0.11192,0,0,0,0
328.12,1.6305,2.477,0.11213,0,0,0,0
328.62,1.6341,2.478,0.11237,0,0,0,0
329.12,1.6372,2.479,0.11264,0,0,0,0
329.62,1.64,2.4797,0.11297,0,0,0,0
330.12,1.6429,2.4803,0.11318,0,0,0,0
330.62,1.6459,2.481,0.11348,0,0,0,0
331.12,1.6488,2.482,0.11375,0,0,0,0
331.62,1.6515,2.4827,0.11405,0,0,0,0
332.12,1.6546,2.4833,0.11426,0,0,0,0
332.62,1.6574,2.484,0.11471,0,0,0,0
333.12,1.6605,2.485,0.11489,0,0,0,0
333.62,1.6638,2.4857,0.11516,0,0,0,0
334.12,1.6669,2.4863,0.11531,0,0,0,0
334.62,1.6701,2.4867,0.11561,0,0,0,0
335.12,1.6728,2.4873,0.11588,0,0,0,0
335.62,1.676,2.488,0.11608,0,0,0,0
336.12,1.6788,2.489,0.11626,0,0,0,0
336.62,1.6815,2.49,0.11659,0,0,0,0
337.12,1.6843,2.4907,0.11671,0,0,0,0
337.62,1.6873,2.4913,0.11707,0,0,0,0
338.12,1.6905,2.492,0.11725,0,0,0,0
338.62,1.6933,2.493,0.11755,0,0,0,0
339.12,1.6963,2.4937,0.11788,0,0,0,0
339.62,1.6995,2.4943,0.11814,0,0,0,0
340.12,1.7026,2.495,0.11838,0,0,0,0
340.62,1.7057,2.496,0.11865,0,0,0,0
341.12,1.7087,2.4967,0.11901,0,0,0,0
341.62,1.7113,2.4973,0.11925,0,0,0,0
342.12,1.7142,2.498,0.11946,0,0,0,0
342.62,1.7174,2.4987,0.11978,0,0,0,0
343.12,1.72,2.4993,0.1202,0,0,0,0
343.62,1.7228,2.5,0.12032,0,0,0,0
344.12,1.7261,2.501,0.12056,0,0,0,0
344.62,1.7294,2.502,0.12089,0,0,0,0
345.12,1.7324,2.5027,0.12106,0,0,0,0
345.62,1.7354,2.5033,0.12139,0,0,0,0
346.12,1.7381,2.5037,0.12157,0,0,0,0
346.62,1.7411,2.5043,0.12187,0,0,0,0
347.12,1.7437,2.505,0.12214,0,0,0,0
347.62,1.7467,2.506,0.1224,0,0,0,0
348.12,1.7498,2.5067,0.12267,0,0,0,0
348.62,1.7525,2.5073,0.12312,0,0,0,0
349.12,1.7556,2.508,0.1232,0,0,0,0
349.62,1.7588,2.509,0.1235,0,0,0,0
350.12,1.7623,2.5097,0.12377,0,0,0,0
350.62,1.7651,2.5103,0.12412,0,0,0,0
351.12,1.7684,2.5107,0.12445,0,0,0,0
351.62,1.771,2.5113,0.12478,0,0,0,0
352.12,1.7742,2.5117,0.12498,0,0,0,0
352.62,1.7767,2.5123,0.12522,0,0,0,0
353.12,1.7796,2.513,0.12569,0,0,0,0
353.62,1.7828,2.514,0.12578,0,0,0,0
354.12,1.7858,2.5147,0.12626,0,0,0,0
354.62,1.789,2.5153,0.12643,0,0,0,0
355.12,1.7921,2.516,0.12664,0,0,0,0
355.62,1.7951,2.5167,0.12697,0,0,0,0
356.12,1.7983,2.5173,0.12714,0,0,0,0
356.62,1.8015,2.518,0.12759,0,0,0,0
357.12,1.8042,2.519,0.12774,0,0,0,0
357.62,1.807,2.5197,0.12809,0,0,0,0
358.12,1.81,2.5203,0.12836,0,0,0,0
358.62,1.8131,2.5207,0.12871,0,0,0,0
359.12,1.8161,2.5213,0.12898,0,0,0,0
359.62,1.819,2.5217,0.12933,0,0,0,0
360.12,1.8223,2.5223,0.12971,0,0,0,0
360.62,1.8256,2.523,0.12995,0,0,0,0
361.12,1.8287,2.5237,0.13013,0,0,0,0
361.62,1.8317,2.5243,0.13051,0,0,0,0
362.12,1.8346,2.525,0.1308,0,0,0,0
362.62,1.8374,2.5257,0.13092,0,0,0,0
363.12,1.8403,2.5263,0.13125,0,0,0,0
363.62,1.843,2.527,0.13154,0,0,0,0
364.12,1.8462,2.5277,0.13195,0,0,0,0
364.62,1.8493,2.5283,0.13225,0,0,0,0
365.12,1.8525,2.5287,0.13251,0,0,0,0
365.62,1.8555,2.5293,0.13272,0,0,0,0
366.12,1.8587,2.53,0.13319,0,0,0,0
366.62,1.8618,2.5307,0.13336,0,0,0,0
367.12,1.8649,2.5313,0.13363,0,0,0,0
367.62,1.8677,2.532,0.13398,0,0,0,0
368.12,1.8705,2.5327,0.13425,0,0,0,0
368.62,1.8732,2.5333,0.13463,0,0,0,0
369.12,1.8764,2.5337,0.13489,0,0,0,0
369.62,1.8794,2.5343,0.13507,0,0,0,0
370.12,1.8826,2.5347,0.13562,0,0,0,0
370.62,1.8857,2.5353,0.13571,0,0,0,0
371.12,1.889,2.536,0.13609,0,0,0,0
371.62,1.8924,2.5367,0.13639,0,0,0,0
372.12,1.8946,2.5373,0.13665,0,0,0,0
372.62,1.8975,2.5377,0.13688,0,0,0,0
373.12,1.901,2.5383,0.13709,0,0,0,0
373.62,1.9037,2.539,0.13744,0,0,0,0
374.12,1.9069,2.5397,0.13767,0,0,0,0
374.62,1.9097,2.5403,0.13808,0,0,0,0
375.12,1.9126,2.541,0.13843,0,0,0,0
375.62,1.9158,2.5417,0.13858,0,0,0,0
376.12,1.919,2.5423,0.13908,0,0,0,0
376.62,1.9227,2.5427,0.13934,0,0,0,0
377.12,1.9256,2.5433,0.13957,0,0,0,0
377.62,1.928,2.5437,0.13998,0,0,0,0
378.12,1.9316,2.5443,0.1401,0,0,0,0
378.62,1.9339,2.5447,0.14033,0,0,0,0
379.12,1.9366,2.5453,0.14068,0,0,0,0
379.62,1.94,2.5457,0.14109,0,0,0,0
380.12,1.9428,2.5463,0.14135,0,0,0,0
380.62,1.9456,2.547,0.14153,0,0,0,0
381.12,1.9488,2.5477,0.14188,0,0,0,0
381.62,1.9521,2.5483,0.14232,0,0,0,0
382.12,1.9552,2.549,0.14252,0,0,0,0
382.62,1.9582,2.5497,0.14281,0,0,0,0
383.12,1.961,2.5503,0.1431,0,0,0,0
383.62,1.964,2.5507,0.14362,0,0,0,0
384.12,1.9669,2.551,0.1438,0,0,0,0
384.62,1.9696,2.5513,0.14415,0,0,0,0
385.12,1.9728,2.5517,0.14444,0,0,0,0
385.62,1.9757,2.5523,0.14487,0,0,0,0
386.12,1.9786,2.5527,0.14514,0,0,0,0
386.62,1.9818,2.5533,0.14534,0,0,0,0
387.12,1.9851,2.554,0.14563,0,0,0,0
387.62,1.9881,2.5547,0.14595,0,0,0,0
388.12,1.9912,2.5553,0.14609,0,0,0,0
388.62,1.9941,2.5557,0.14653,0,0,0,0
389.12,1.9969,2.5563,0.14688,0,0,0,0
389.62,1.9998,2.5567,0.14725,0,0,0,0
390.12,2.0027,2.5573,0.14766,0,0,0,0
390.62,2.0056,2.5577,0.14786,0,0,0,0
391.12,2.0087,2.5583,0.14838,0,0,0,0
391.62,2.0117,2.559,0.1487,0,0,0,0
392.12,2.015,2.5597,0.14896,0,0,0,0
392.62,2.0183,2.5603,0.1494,0,0,0,0
393.12,2.0215,2.5607,0.14986,0,0,0,0
393.62,2.0244,2.561,0.15021,0,0,0,0
394.12,2.0273,2.5613,0.15055,0,0,0,0
394.62,2.0305,2.5617,0.15087,0,0,0,0
395.12,2.0334,2.5623,0.15127,0,0,0,0
395.62,2.0363,2.5627,0.15139,0,0,0,0
396.12,2.0393,2.5633,0.15188,0,0,0,0
396.62,2.0424,2.5637,0.15205,0,0,0,0
397.12,2.0456,2.5643,0.15243,0,0,0,0
397.62,2.0488,2.5647,0.15286,0,0,0,0
398.12,2.0516,2.5653,0.15306,0,0,0,0
398.62,2.055,2.5657,0.15329,0,0,0,0
399.12,2.0581,2.5663,0.15381,0,0,0,0
399.62,2.0608,2.5667,0.15404,0,0,0,0
400.12,2.0639,2.567,0.15447,0,0,0,0
400.62,2.067,2.5673,0.15493,0,0,0,0
401.12,2.0701,2.568,0.15545,0,0,0,0
401.62,2.0731,2.5687,0.15579,0,0,0,0
402.12,2.0763,2.569,0.15634,0,0,0,0
402.62,2.0798,2.5693,0.15648,0,0,0,0
403.12,2.083,2.57,0.15691,0,0,0,0
403.62,2.0859,2.5707,0.15746,0,0,0,0
404.12,2.089,2.571,0.1576,0,0,0,0
404.62,2.0918,2.5713,0.15798,0,0,0,0
405.12,2.0949,2.5717,0.15832,0,0,0,0
405.62,2.0979,2.5723,0.15878,0,0,0,0
406.12,2.1008,2.5727,0.15895,0,0,0,0
406.62,2.1041,2.5733,0.15924,0,0,0,0
407.12,2.1075,2.5737,0.15967,0,0,0,0
407.62,2.1104,2.574,0.15995,0,0,0,0
408.12,2.1134,2.5743,0.16041,0,0,0,0
408.62,2.1166,2.575,0.16084,0,0,0,0
409.12,2.1197,2.5757,0.16118,0,0,0,0
409.62,2.1227,2.576,0.16164,0,0,0,0
410.12,2.1257,2.5763,0.16204,0,0,0,0
410.62,2.1289,2.5767,0.16258,0,0,0,0
411.12,2.1317,2.5773,0.16295,0,0,0,0
411.62,2.1349,2.5777,0.16332,0,0,0,0
412.12,2.1381,2.5783,0.16355,0,0,0,0
412.62,2.1415,2.5787,0.16392,0,0,0,0
413.12,2.1445,2.579,0.16418,0,0,0,0
413.62,2.1479,2.5793,0.16466,0,0,0,0
414.12,2.1508,2.5797,0.16503,0,0,0,0
414.62,2.1541,2.5803,0.1652,0,0,0,0
415.12,2.157,2.5807,0.16554,0,0,0,0
415.62,2.1601,2.581,0.16591,0,0,0,0
416.12,2.163,2.5813,0.16637,0,0,0,0
416.62,2.166,2.5817,0.16679,0,0,0,0
417.12,2.1691,2.5823,0.16714,0,0,0,0
417.62,2.1723,2.5827,0.16759,0,0,0,0
418.12,2.1758,2.583,0.16802,0,0,0,0
418.62,2.1785,2.5833,0.1685,0,0,0,0
419.12,2.1819,2.5837,0.16892,0,0,0,0
419.62,2.1854,2.5843,0.16946,0,0,0,0
420.12,2.1887,2.5847,0.16989,0,0,0,0
420.62,2.1916,2.585,0.17009,0,0,0,0
421.12,2.1934,2.5853,0.17051,0,0,0,0
421.62,2.1976,2.5857,0.17094,0,0,0,0
422.12,2.2007,2.5863,0.17122,0,0,0,0
422.62,2.2036,2.5867,0.17164,0,0,0,0
423.12,2.2069,2.587,0.17198,0,0,0,0
423.62,2.2102,2.5873,0.17232,0,0,0,0
424.12,2.2131,2.5877,0.17291,0,0,0,0
424.62,2.2165,2.588,0.17305,0,0,0,0
425.12,2.2193,2.5883,0.17365,0,0,0,0
425.62,2.2224,2.5887,0.17407,0,0,0,0
426.12,2.2254,2.589,0.17455,0,0,0,0
426.62,2.2286,2.5893,0.175,0,0,0,0
427.12,2.2317,2.5897,0.17556,0,0,0,0
427.62,2.2351,2.5903,0.17604,0,0,0,0
428.12,2.2379,2.5907,0.17652,0,0,0,0
428.62,2.2414,2.591,0.17692,0,0,0,0
429.12,2.2447,2.591,0.17745,0,0,0,0
429.62,2.248,2.5913,0.17781,0,0,0,0
430.12,2.2508,2.5917,0.17827,0,0,0,0
430.62,2.254,2.5923,0.17877,0,0,0,0
431.12,2.2571,2.5927,0.17913,0,0,0,0
431.62,2.2602,2.593,0.17964,0,0,0,0
432.12,2.2632,2.593,0.18009,0,0,0,0
432.62,2.2664,2.5933,0.18059,0,0,0,0
433.12,2.2694,2.5937,0.18093,0,0,0,0
433.62,2.2728,2.5943,0.18152,0,0,0,0
434.12,2.2761,2.5947,0.18213,0,0,0,0
434.62,2.2792,2.595,0.18258,0,0,0,0
435.12,2.2822,2.5953,0.18297,0,0,0,0
435.62,2.2852,2.5957,0.18359,0,0,0,0
436.12,2.2885,2.5963,0.18398,0,0,0,0
436.62,2.2917,2.5964,0.18443,0,0,0,0
437.12,2.2945,2.5966,0.18493,0,0,0,0
437.62,2.2978,2.5967,0.1854,0,0,0,0
438.12,2.3012,2.5973,0.18585,0,0,0,0
438.62,2.3042,2.5977,0.18635,0,0,0,0
439.12,2.3074,2.598,0.18666,0,0,0,0
439.62,2.3108,2.598,0.18724,0,0,0,0
440.12,2.3139,2.598,0.18774,0,0,0,0
440.62,2.3171,2.5983,0.1883,0,0,0,0
441.12,2.3201,2.5987,0.18883,0,0,0,0
441.62,2.3232,2.5993,0.18922,0,0,0,0
442.12,2.3263,2.5997,0.18991,0,0,0,0
442.62,2.3295,2.6,0.19033,0,0,0,0
443.12,2.3327,2.6,0.19094,0,0,0,0
443.62,2.336,2.6003,0.19144,0,0,0,0
444.12,2.3396,2.6007,0.1921,0,0,0,0
444.62,2.3424,2.601,0.19246,0,0,0,0
445.12,2.346,2.601,0.19296,0,0,0,0
445.62,2.3489,2.601,0.19363,0,0,0,0
446.12,2.3521,2.6013,0.19398,0,0,0,0
446.62,2.3551,2.6017,0.19459,0,0,0,0
447.12,2.3581,2.6023,0.19495,0,0,0,0
447.62,2.3615,2.6027,0.19545,0,0,0,0
448.12,2.3644,2.603,0.19603,0,0,0,0
448.62,2.3677,2.603,0.19658,0,0,0,0
449.12,2.3709,2.6033,0.19697,0,0,0,0
449.62,2.3744,2.6037,0.19744,0,0,0,0
450.12,2.3776,2.604,0.19804,0,0,0,0
450.62,2.3808,2.604,0.19859,0,0,0,0
451.12,2.3841,2.604,0.19895,0,0,0,0
451.62,2.3869,2.6043,0.19964,0,0,0,0
452.12,2.39,2.6047,0.20013,0,0,0,0
452.62,2.3931,2.605,0.20054,0,0,0,0
453.12,2.3963,2.605,0.20107,0,0,0,0
453.62,2.3997,2.605,0.20181,0,0,0,0
454.12,2.4027,2.6053,0.20213,0,0,0,0
454.62,2.406,2.6057,0.2026,0,0,0,0
455.12,2.4093,2.606,0.20334,0,0,0,0
455.62,2.4123,2.6063,0.20389,0,0,0,0
456.12,2.4156,2.6067,0.20433,0,0,0,0
456.62,2.4187,2.607,0.2049,0,0,0,0
457.12,2.4216,2.607,0.20548,0,0,0,0
457.62,2.4247,2.607,0.20605,0,0,0,0
458.12,2.4279,2.6073,0.20657,0,0,0,0
458.62,2.4312,2.6077,0.20725,0,0,0,0
459.12,2.4345,2.608,0.20771,0,0,0,0
459.62,2.4375,2.608,0.20826,0,0,0,0
460.12,2.4408,2.608,0.20883,0,0,0,0
460.62,2.4442,2.6083,0.20938,0,0,0,0
461.12,2.4477,2.6087,0.21011,0,0,0,0
461.62,2.4508,2.6087,0.21076,0,0,0,0
462.12,2.4537,2.6086,0.21131,0,0,0,0
462.62,2.4568,2.6087,0.2119,0,0,0,0
463.12,2.4604,2.609,0.21245,0,0,0,0
463.62,2.4633,2.6093,0.21305,0,0,0,0
464.12,2.4662,2.6094,0.21378,0,0,0,0
464.62,2.4698,2.6093,0.21443,0,0,0,0
465.12,2.4728,2.6093,0.21486,0,0,0,0
465.62,2.476,2.6097,0.21567,0,0,0,0
466.12,2.4792,2.61,0.21627,0,0,0,0
466.62,2.4824,2.61,0.21689,0,0,0,0
467.12,2.4855,2.61,0.21746,0,0,0,0
467.62,2.4885,2.6103,0.21824,0,0,0,0
468.12,2.4916,2.6107,0.21875,0,0,0,0
468.62,2.4948,2.611,0.21938,0,0,0,0
469.12,2.498,2.611,0.22005,0,0,0,0
469.62,2.5013,2.611,0.2207,0,0,0,0
470.12,2.5047,2.611,0.22148,0,0,0,0
470.62,2.5081,2.6113,0.22207,0,0,0,0
471.12,2.5111,2.6114,0.22277,0,0,0,0
471.62,2.5146,2.6113,0.22347,0,0,0,0
472.12,2.5178,2.6113,0.22411,0,0,0,0
472.62,2.5207,2.6117,0.22462,0,0,0,0
473.12,2.5239,2.612,0.22545,0,0,0,0
473.62,2.5272,2.612,0.22623,0,0,0,0
474.12,2.5304,2.612,0.227,0,0,0,0
474.62,2.5338,2.612,0.22767,0,0,0,0
475.12,2.5372,2.612,0.22861,0,0,0,0
475.62,2.5404,2.612,0.22912,0,0,0,0
476.12,2.5438,2.612,0.22981,0,0,0,0
476.62,2.547,2.612,0.23056,0,0,0,0
477.12,2.5503,2.612,0.23141,0,0,0,0
477.62,2.5536,2.612,0.23208,0,0,0,0
478.12,2.5564,2.612,0.23285,0,0,0,0
478.62,2.5594,2.6123,0.23362,0,0,0,0
479.12,2.563,2.6127,0.23436,0,0,0,0
479.62,2.5661,2.6127,0.23524,0,0,0,0
480.12,2.5696,2.6123,0.23593,0,0,0,0
480.62,2.573,2.6123,0.23662,0,0,0,0
481.12,2.5762,2.6127,0.23765,0,0,0,0
481.62,2.5796,2.613,0.23823,0,0,0,0
482.12,2.5828,2.6127,0.2391,0,0,0,0
482.62,2.5858,2.6126,0.24003,0,0,0,0
483.12,2.589,2.6127,0.24077,0,0,0,0
483.62,2.5921,2.613,0.2415,0,0,0,0
484.12,2.5957,2.613,0.24237,0,0,0,0
484.62,2.5988,2.6127,0.24311,0,0,0,0
485.12,2.6025,2.6126,0.24393,0,0,0,0
485.62,2.6056,2.6127,0.24469,0,0,0,0
486.12,2.6091,2.613,0.24537,0,0,0,0
486.62,2.6126,2.613,0.24634,0,0,0,0
487.12,2.6156,2.6127,0.24697,0,0,0,0
487.62,2.6189,2.6123,0.24799,0,0,0,0
488.12,2.6223,2.612,0.24875,0,0,0,0
488.62,2.6254,2.612,0.24967,0,0,0,0
489.12,2.6287,2.612,0.25061,0,0,0,0
489.62,2.6319,2.612,0.25134,0,0,0,0
490.12,2.6351,2.612,0.25231,0,0,0,0
490.62,2.6386,2.612,0.25304,0,0,0,0
491.12,2.6422,2.612,0.25397,0,0,0,0
491.62,2.645,2.612,0.25481,0,0,0,0
492.12,2.6483,2.612,0.25566,0,0,0,0
492.62,2.6516,2.612,0.25634,0,0,0,0
493.12,2.6548,2.612,0.25728,0,0,0,0
493.62,2.658,2.612,0.25808,0,0,0,0
494.12,2.6612,2.6117,0.25901,0,0,0,0
494.62,2.6647,2.6113,0.25992,0,0,0,0
495.12,2.6682,2.611,0.26093,0,0,0,0
495.62,2.6715,2.611,0.26181,0,0,0,0
496.12,2.6751,2.611,0.26302,0,0,0,0
496.62,2.6783,2.6107,0.26395,0,0,0,0
497.12,2.6816,2.6103,0.26478,0,0,0,0
497.62,2.6848,2.61,0.2657,0,0,0,0
498.12,2.688,2.61,0.26676,0,0,0,0
498.62,2.6912,2.61,0.26766,0,0,0,0
499.12,2.6945,2.6097,0.26866,0,0,0,0
499.62,2.6977,2.6093,0.26976,0,0,0,0
500.12,2.7009,2.609,0.27063,0,0,0,0
500.62,2.7046,2.609,0.27161,0,0,0,0
501.12,2.7079,2.6087,0.27265,0,0,0,0
501.62,2.7111,2.6083,0.27381,0,0,0,0
502.12,2.7144,2.608,0.27472,0,0,0,0
502.62,2.7176,2.608,0.27595,0,0,0,0
503.12,2.7208,2.608,0.27674,0,0,0,0
503.62,2.7242,2.6077,0.27783,0,0,0,0
504.12,2.7273,2.6073,0.27885,0,0,0,0
504.62,2.7308,2.6067,0.27986,0,0,0,0
505.12,2.7343,2.6066,0.281,0,0,0,0
505.62,2.7376,2.6064,0.28199,0,0,0,0
506.12,2.7412,2.6063,0.28318,0,0,0,0
506.62,2.7444,2.6057,0.28404,0,0,0,0
507.12,2.7476,2.6053,0.2854,0,0,0,0
507.62,2.7508,2.6047,0.28646,0,0,0,0
508.12,2.754,2.6043,0.28747,0,0,0,0
508.62,2.7573,2.604,0.2886,0,0,0,0
509.12,2.7607,2.6037,0.28996,0,0,0,0
509.62,2.7641,2.6033,0.29104,0,0,0,0
510.12,2.7675,2.6027,0.29232,0,0,0,0
510.62,2.771,2.6023,0.29342,0,0,0,0
511.12,2.7745,2.602,0.29479,0,0,0,0
511.62,2.7779,2.6017,0.29582,0,0,0,0
512.12,2.7813,2.601,0.29719,0,0,0,0
512.62,2.7844,2.6003,0.29839,0,0,0,0
513.12,2.7876,2.5997,0.29973,0,0,0,0
513.62,2.791,2.5993,0.30085,0,0,0,0
514.12,2.794,2.599,0.30219,0,0,0,0
514.62,2.7976,2.5987,0.30341,0,0,0,0
515.12,2.8016,2.5983,0.30467,0,0,0,0
515.62,2.8047,2.5977,0.30593,0,0,0,0
516.12,2.8082,2.5973,0.30714,0,0,0,0
516.62,2.8115,2.5967,0.30855,0,0,0,0
517.12,2.8149,2.596,0.3099,0,0,0,0
517.62,2.818,2.595,0.31108,0,0,0,0
518.12,2.821,2.5943,0.31256,0,0,0,0
518.62,2.8244,2.594,0.31413,0,0,0,0
519.12,2.8277,2.5937,0.3153,0,0,0,0
519.62,2.831,2.593,0.31667,0,0,0,0
520.12,2.8346,2.592,0.31799,0,0,0,0
520.62,2.8382,2.591,0.31936,0,0,0,0
521.12,2.8414,2.5903,0.32063,0,0,0,0
521.62,2.8449,2.5894,0.32204,0,0,0,0
522.12,2.8483,2.5886,0.32352,0,0,0,0
522.62,2.8518,2.5874,0.32486,0,0,0,0
523.12,2.8547,2.5866,0.32641,0,0,0,0
523.62,2.8583,2.5857,0.32784,0,0,0,0
524.12,2.8615,2.585,0.32931,0,0,0,0
524.62,2.8648,2.584,0.33081,0,0,0,0
525.12,2.8685,2.5827,0.33235,0,0,0,0
525.62,2.8718,2.5816,0.33379,0,0,0,0
526.12,2.8755,2.5807,0.33528,0,0,0,0
526.62,2.8788,2.58,0.33663,0,0,0,0
527.12,2.8822,2.579,0.33806,0,0,0,0
527.62,2.8853,2.578,0.3395,0,0,0,0
528.12,2.8885,2.5767,0.34122,0,0,0,0
528.62,2.8918,2.5753,0.3427,0,0,0,0
529.12,2.8953,2.574,0.34446,0,0,0,0
529.62,2.8989,2.573,0.34586,0,0,0,0
530.12,2.9024,2.5717,0.34733,0,0,0,0
530.62,2.9061,2.5703,0.34899,0,0,0,0
531.12,2.9094,2.569,0.35034,0,0,0,0
531.62,2.9129,2.5677,0.35202,0,0,0,0
532.12,2.9163,2.5663,0.35367,0,0,0,0
532.62,2.9196,2.565,0.35541,0,0,0,0
533.12,2.9229,2.5634,0.35689,0,0,0,0
533.62,2.9265,2.5616,0.35849,0,0,0,0
534.12,2.9298,2.5597,0.3602,0,0,0,0
534.62,2.9333,2.5583,0.36163,0,0,0,0
535.12,2.9369,2.5567,0.36319,0,0,0,0
535.62,2.9405,2.555,0.36492,0,0,0,0
536.12,2.9441,2.5533,0.36643,0,0,0,0
536.62,2.9475,2.5517,0.36783,0,0,0,0
537.12,2.9508,2.55,0.36955,0,0,0,0
537.62,2.9541,2.548,0.37138,0,0,0,0
538.12,2.9576,2.546,0.37307,0,0,0,0
538.62,2.9609,2.544,0.37473,0,0,0,0
539.12,2.9645,2.542,0.37642,0,0,0,0
539.62,2.968,2.54,0.37812,0,0,0,0
540.12,2.9716,2.5377,0.37982,0,0,0,0
540.62,2.9753,2.5353,0.38154,0,0,0,0
541.12,2.9788,2.5327,0.38342,0,0,0,0
541.62,2.9823,2.5303,0.38509,0,0,0,0
542.12,2.9859,2.528,0.38685,0,0,0,0
542.62,2.9889,2.5257,0.38854,0,0,0,0
543.12,2.9923,2.5233,0.39033,0,0,0,0
543.62,2.9959,2.5207,0.39229,0,0,0,0
544.12,2.9993,2.5183,0.39399,0,0,0,0
544.62,3.0031,2.5154,0.39587,0,0,0,0
545.12,3.0067,2.5126,0.39763,0,0,0,0
545.62,3.0104,2.5094,0.3993,0,0,0,0
546.12,3.0141,2.5066,0.40121,0,0,0,0
546.62,3.0177,2.5034,0.40297,0,0,0,0
547.12,3.0211,2.5003,0.40479,0,0,0,0
547.62,3.0246,2.4973,0.40665,0,0,0,0
548.12,3.0279,2.4944,0.40868,0,0,0,0
548.62,3.0315,2.491,0.41036,0,0,0,0
549.12,3.0354,2.487,0.41234,0,0,0,0
549.62,3.0389,2.4833,0.41418,0,0,0,0
550.12,3.0427,2.4797,0.41618,0,0,0,0
550.62,3.0462,2.4763,0.41807,0,0,0,0
551.12,3.0501,2.4724,0.41999,0,0,0,0
551.62,3.0539,2.4686,0.42202,0,0,0,0
552.12,3.0573,2.4647,0.42376,0,0,0,0
552.62,3.061,2.461,0.42585,0,0,0,0
553.12,3.0646,2.4567,0.42763,0,0,0,0
553.62,3.0682,2.4523,0.42941,0,0,0,0
554.12,3.0719,2.448,0.43142,0,0,0,0
554.62,3.0759,2.4434,0.43349,0,0,0,0
555.12,3.0797,2.4386,0.43526,0,0,0,0
555.62,3.0835,2.4334,0.43729,0,0,0,0
556.12,3.0875,2.4286,0.43926,0,0,0,0
556.62,3.091,2.4237,0.44119,0,0,0,0
557.12,3.0946,2.4187,0.4432,0,0,0,0
557.62,3.0985,2.4133,0.4454,0,0,0,0
558.12,3.102,2.4077,0.44727,0,0,0,0
558.62,3.1059,2.402,0.44949,0,0,0,0
559.12,3.1096,2.396,0.45144,0,0,0,0
559.62,3.1136,2.39,0.45361,0,0,0,0
560.12,3.1176,2.3831,0.45573,0,0,0,0
560.62,3.122,2.3753,0.45805,0,0,0,0
561.12,3.1258,2.3644,0.46039,0,0,0,0