File: polyN_optimization/results_exp/AA6014-T4/NT20_90_3.csv
Time[s],Displacement[mm],Force[kN],AxStrain_1,AxStrain_2,Thickness[mm],OuterWidth[mm],InnerWidth[mm]
0.62,0,-0.0042109,0,0,1.1177,20,10.066
1.12,-0.000685,0.0019713,-5.0001e-05,0,0,0,0
1.62,0.00021,0.009581,-6.5002e-05,0,0,0,0
2.12,0.000253,0.029718,-6.9002e-05,0,0,0,0
2.62,0.001094,0.055282,1.4e-05,0,0,0,0
3.12,0.00115,0.079427,0.00013199,0,0,0,0
3.62,0.001586,0.098423,6.4998e-05,0,0,0,0
4.12,0.00232,0.11386,5.8998e-05,0,0,0,0
4.62,0.003016,0.12972,4.7999e-05,0,0,0,0
5.12,0.002809,0.14871,0.00018498,0,0,0,0
5.62,0.002842,0.16814,8.5996e-05,0,0,0,0
6.12,0.003298,0.18571,9.9995e-05,0,0,0,0
6.62,0.003847,0.20286,3.5999e-05,0,0,0,0
7.12,0.00436,0.21814,0.00013799,0,0,0,0
7.62,0.004427,0.22914,-4.6001e-05,0,0,0,0
8.12,0.004359,0.23772,3.9999e-05,0,0,0,0
8.62,0.004649,0.24886,2.3e-05,0,0,0,0
9.12,0.004782,0.26243,-6e-06,0,0,0,0
9.62,0.005031,0.27686,0.00016299,0,0,0,0
10.12,0.005549,0.29085,0.00020498,0,0,0,0
10.62,0.006393,0.30429,0.00013599,0,0,0,0
11.12,0.00684,0.31786,0.00026896,0,0,0,0
11.62,0.007164,0.33214,0.00029696,0,0,0,0
12.12,0.007727,0.346,0.00031395,0,0,0,0
12.62,0.007762,0.35986,0.00042291,0,0,0,0
13.12,0.008331,0.375,0.00024497,0,0,0,0
13.62,0.008652,0.39043,0.00043291,0,0,0,0
14.12,0.008777,0.40557,0.00025197,0,0,0,0
14.62,0.008944,0.42014,0.0004469,0,0,0,0
15.12,0.009232,0.434,0.00026197,0,0,0,0
15.62,0.009675,0.44815,0.0004569,0,0,0,0
16.12,0.009679,0.46314,0.00029496,0,0,0,0
16.62,0.009877,0.478,0.00030895,0,0,0,0
17.12,0.010209,0.49286,0.00028496,0,0,0,0
17.62,0.010716,0.509,0.00022198,0,0,0,0
18.12,0.011126,0.52485,0.00032595,0,0,0,0
18.62,0.011374,0.54043,0.00040992,0,0,0,0
19.12,0.011532,0.55585,0.00035594,0,0,0,0
19.62,0.012056,0.571,0.00057384,0,0,0,0
20.12,0.012271,0.58586,0.00032195,0,0,0,0
20.62,0.012532,0.60114,0.0004529,0,0,0,0
21.12,0.013221,0.616,0.00057384,0,0,0,0
21.62,0.013573,0.63086,0.00052386,0,0,0,0
22.12,0.014084,0.64729,0.00059083,0,0,0,0
22.62,0.014886,0.66385,0.00067077,0,0,0,0
23.12,0.015201,0.68015,0.00060082,0,0,0,0
23.62,0.015742,0.69585,0.00060082,0,0,0,0
24.12,0.01646,0.71071,0.00075472,0,0,0,0
24.62,0.016739,0.72543,0.00064079,0,0,0,0
25.12,0.017233,0.74085,0.00074472,0,0,0,0
25.62,0.017548,0.756,0.00072174,0,0,0,0
26.12,0.017763,0.77086,0.00073173,0,0,0,0
26.62,0.018361,0.787,0.00057384,0,0,0,0
27.12,0.018639,0.80314,0.00065079,0,0,0,0
27.62,0.019029,0.81886,0.00071175,0,0,0,0
28.12,0.019052,0.83414,0.00073473,0,0,0,0
28.62,0.019324,0.849,0.00070475,0,0,0,0
29.12,0.019824,0.86386,0.00058783,0,0,0,0
29.62,0.020022,0.87914,0.00065479,0,0,0,0
30.12,0.020281,0.894,0.00071175,0,0,0,0
30.62,0.020882,0.90886,0.00069776,0,0,0,0
31.12,0.021171,0.925,0.00073173,0,0,0,0
31.62,0.021772,0.94085,0.0006308,0,0,0,0
32.12,0.022171,0.95615,0.0006278,0,0,0,0
32.62,0.022453,0.97114,0.0007687,0,0,0,0
33.12,0.02301,0.98571,0.00051387,0,0,0,0
33.62,0.023621,1.0001,0.00068477,0,0,0,0
34.12,0.02436,1.0149,0.00086563,0,0,0,0
34.62,0.024994,1.0293,0.00085264,0,0,0,0
35.12,0.025532,1.0436,0.00083865,0,0,0,0
35.62,0.025797,1.059,0.00087562,0,0,0,0
36.12,0.0262,1.0741,0.00087562,0,0,0,0
36.62,0.026535,1.0891,0.00085863,0,0,0,0
37.12,0.026982,1.1039,0.00079169,0,0,0,0
37.62,0.027492,1.118,0.00087262,0,0,0,0
38.12,0.027825,1.1319,0.0009995,0,0,0,0
38.62,0.028214,1.1461,0.00095255,0,0,0,0
39.12,0.028506,1.1597,0.00081167,0,0,0,0
39.62,0.029057,1.1734,0.00078869,0,0,0,0
40.12,0.029685,1.1884,0.00093956,0,0,0,0
40.62,0.03004,1.2034,0.00095255,0,0,0,0
41.12,0.030554,1.2176,0.0007787,0,0,0,0
41.62,0.031132,1.2311,0.00097353,0,0,0,0
42.12,0.031874,1.2443,0.0010305,0,0,0,0
42.62,0.032474,1.2573,0.0011344,0,0,0,0
43.12,0.033233,1.2704,0.0010435,0,0,0,0
43.62,0.033995,1.2827,0.0012342,0,0,0,0
44.12,0.034922,1.2949,0.0011104,0,0,0,0
44.62,0.035593,1.3077,0.001396,0,0,0,0
45.12,0.036433,1.3201,0.0016137,0,0,0,0
45.62,0.03752,1.331,0.0019491,0,0,0,0
46.12,0.038628,1.3401,0.0022535,0,0,0,0
46.62,0.040065,1.348,0.0028659,0,0,0,0
47.12,0.041784,1.355,0.0031271,0,0,0,0
47.62,0.043416,1.3617,0.0035686,0,0,0,0
48.12,0.045387,1.3683,0.0039333,0,0,0,0
48.62,0.047072,1.3753,0.0040607,0,0,0,0
49.12,0.049076,1.3827,0.0041743,0,0,0,0
49.62,0.051443,1.3897,0.0045118,0,0,0,0
50.12,0.05337,1.3966,0.0044252,0,0,0,0
50.62,0.055394,1.4031,0.0046661,0,0,0,0
51.12,0.057496,1.4093,0.0049398,0,0,0,0
51.62,0.059665,1.4153,0.0051139,0,0,0,0
52.12,0.061696,1.4217,0.0053308,0,0,0,0
52.62,0.063546,1.4277,0.0055177,0,0,0,0
53.12,0.065483,1.4336,0.0057614,0,0,0,0
53.62,0.067528,1.4397,0.0058817,0,0,0,0
54.12,0.069629,1.4457,0.0063448,0,0,0,0
54.62,0.071889,1.4513,0.0065753,0,0,0,0
55.12,0.07393,1.4567,0.0067889,0,0,0,0
55.62,0.076263,1.462,0.0073926,0,0,0,0
56.12,0.078596,1.4673,0.0077549,0,0,0,0
56.62,0.081275,1.4724,0.0080217,0,0,0,0
57.12,0.083552,1.4773,0.0085484,0,0,0,0
57.62,0.085771,1.4823,0.0088745,0,0,0,0
58.12,0.088151,1.4877,0.0088646,0,0,0,0
58.62,0.090219,1.4927,0.0090172,0,0,0,0
59.12,0.092385,1.4976,0.009154,0,0,0,0
59.62,0.094483,1.5024,0.0092432,0,0,0,0
60.12,0.096796,1.507,0.009147,0,0,0,0
60.62,0.098925,1.5116,0.0091966,0,0,0,0
61.12,0.10143,1.5164,0.0092501,0,0,0,0
61.62,0.10384,1.521,0.0093799,0,0,0,0
62.12,0.10645,1.5253,0.0095295,0,0,0,0
62.62,0.10897,1.5297,0.0096394,0,0,0,0
63.12,0.11162,1.5343,0.010137,0,0,0,0
63.62,0.11388,1.539,0.010078,0,0,0,0
64.12,0.11615,1.5437,0.010563,0,0,0,0
64.62,0.11855,1.548,0.010729,0,0,0,0
65.12,0.12075,1.5523,0.011094,0,0,0,0
65.62,0.12326,1.5567,0.011556,0,0,0,0
66.12,0.12547,1.5607,0.011908,0,0,0,0
66.62,0.12801,1.5646,0.012412,0,0,0,0
67.12,0.13029,1.569,0.012438,0,0,0,0
67.62,0.13281,1.5734,0.012637,0,0,0,0
68.12,0.13556,1.5776,0.01289,0,0,0,0
68.62,0.13821,1.5814,0.013029,0,0,0,0
69.12,0.14067,1.5853,0.013363,0,0,0,0
69.62,0.14315,1.5893,0.013198,0,0,0,0
70.12,0.14565,1.5934,0.013276,0,0,0,0
70.62,0.14774,1.5973,0.013347,0,0,0,0
71.12,0.15025,1.601,0.013274,0,0,0,0
71.62,0.15269,1.6047,0.013413,0,0,0,0
72.12,0.155,1.6086,0.013337,0,0,0,0
72.62,0.15744,1.6127,0.013598,0,0,0,0
73.12,0.15988,1.6167,0.01384,0,0,0,0
73.62,0.16258,1.62,0.013893,0,0,0,0
74.12,0.16513,1.6236,0.01424,0,0,0,0
74.62,0.16811,1.6274,0.014532,0,0,0,0
75.12,0.17079,1.631,0.014932,0,0,0,0
75.62,0.17318,1.6346,0.015213,0,0,0,0
76.12,0.17574,1.6387,0.015365,0,0,0,0
76.62,0.17807,1.6427,0.015762,0,0,0,0
77.12,0.18054,1.6463,0.016152,0,0,0,0
77.62,0.18295,1.6497,0.016363,0,0,0,0
78.12,0.18532,1.653,0.016456,0,0,0,0
78.62,0.18787,1.6563,0.016568,0,0,0,0
79.12,0.19058,1.6597,0.016657,0,0,0,0
79.62,0.19329,1.663,0.016687,0,0,0,0
80.12,0.19609,1.6663,0.016666,0,0,0,0
80.62,0.19882,1.67,0.016855,0,0,0,0
81.12,0.20125,1.6737,0.016799,0,0,0,0
81.62,0.20403,1.6773,0.016872,0,0,0,0
82.12,0.20668,1.6807,0.016974,0,0,0,0
82.62,0.20907,1.684,0.017162,0,0,0,0
83.12,0.21157,1.6873,0.017294,0,0,0,0
83.62,0.21401,1.6907,0.017531,0,0,0,0
84.12,0.21675,1.694,0.017762,0,0,0,0
84.62,0.21949,1.6973,0.017848,0,0,0,0
85.12,0.22213,1.7007,0.018188,0,0,0,0
85.62,0.22536,1.704,0.018554,0,0,0,0
86.12,0.22805,1.7073,0.01885,0,0,0,0
86.62,0.23073,1.7107,0.019074,0,0,0,0
87.12,0.23332,1.714,0.019394,0,0,0,0
87.62,0.23604,1.717,0.019447,0,0,0,0
88.12,0.23865,1.72,0.019848,0,0,0,0
88.62,0.24107,1.723,0.020157,0,0,0,0
89.12,0.24351,1.7263,0.01998,0,0,0,0
89.62,0.24631,1.73,0.020068,0,0,0,0
90.12,0.24899,1.7334,0.020016,0,0,0,0
90.62,0.25186,1.7366,0.020174,0,0,0,0
91.12,0.25456,1.7397,0.020318,0,0,0,0
91.62,0.25766,1.7427,0.020368,0,0,0,0
92.12,0.26046,1.7456,0.020522,0,0,0,0
92.62,0.26307,1.7487,0.020483,0,0,0,0
93.12,0.2658,1.7517,0.020657,0,0,0,0
93.62,0.26832,1.7546,0.020924,0,0,0,0
94.12,0.27113,1.7577,0.021253,0,0,0,0
94.62,0.27349,1.761,0.021466,0,0,0,0
95.12,0.27611,1.764,0.021778,0,0,0,0
95.62,0.27907,1.767,0.021827,0,0,0,0
96.12,0.28182,1.77,0.022287,0,0,0,0
96.62,0.28462,1.773,0.022379,0,0,0,0
97.12,0.28737,1.776,0.022789,0,0,0,0
97.62,0.29041,1.7787,0.022865,0,0,0,0
98.12,0.2932,1.7816,0.023016,0,0,0,0
98.62,0.29595,1.7847,0.023393,0,0,0,0
99.12,0.29862,1.788,0.023311,0,0,0,0
99.62,0.30116,1.791,0.023495,0,0,0,0
100.12,0.30379,1.794,0.023531,0,0,0,0
100.62,0.30649,1.7967,0.023809,0,0,0,0
101.12,0.30932,1.7993,0.023708,0,0,0,0
101.62,0.31216,1.802,0.02397,0,0,0,0
102.12,0.31521,1.8047,0.023961,0,0,0,0
102.62,0.31805,1.8073,0.0242,0,0,0,0
103.12,0.32077,1.8103,0.024363,0,0,0,0
103.62,0.32379,1.8134,0.024527,0,0,0,0
104.12,0.32627,1.8163,0.024661,0,0,0,0
104.62,0.32913,1.819,0.024985,0,0,0,0
105.12,0.33155,1.8217,0.025202,0,0,0,0
105.62,0.33425,1.8246,0.025342,0,0,0,0
106.12,0.3369,1.8274,0.025489,0,0,0,0
106.62,0.33955,1.83,0.0258,0,0,0,0
107.12,0.34231,1.8323,0.026069,0,0,0,0
107.62,0.34531,1.835,0.026164,0,0,0,0
108.12,0.34836,1.838,0.026386,0,0,0,0
108.62,0.35127,1.841,0.026455,0,0,0,0
109.12,0.35424,1.8437,0.026769,0,0,0,0
109.62,0.35688,1.8463,0.026756,0,0,0,0
110.12,0.35964,1.849,0.026877,0,0,0,0
110.62,0.36224,1.8517,0.026975,0,0,0,0
111.12,0.3648,1.854,0.027096,0,0,0,0
111.62,0.36745,1.8563,0.027118,0,0,0,0
112.12,0.37029,1.859,0.027245,0,0,0,0
112.62,0.37315,1.862,0.027638,0,0,0,0
113.12,0.37617,1.8647,0.027746,0,0,0,0
113.62,0.37918,1.8673,0.028039,0,0,0,0
114.12,0.38201,1.8697,0.027941,0,0,0,0
114.62,0.38482,1.8723,0.028137,0,0,0,0
115.12,0.38741,1.8747,0.028463,0,0,0,0
115.62,0.39005,1.8773,0.028463,0,0,0,0
116.12,0.39257,1.88,0.028921,0,0,0,0
116.62,0.39535,1.883,0.028953,0,0,0,0
117.12,0.39834,1.8857,0.029214,0,0,0,0
117.62,0.40107,1.888,0.029507,0,0,0,0
118.12,0.4041,1.8903,0.029604,0,0,0,0
118.62,0.4069,1.8927,0.029637,0,0,0,0
119.12,0.40999,1.8953,0.029899,0,0,0,0
119.62,0.41291,1.8977,0.029996,0,0,0,0
120.12,0.41546,1.9,0.030159,0,0,0,0
120.62,0.41829,1.9023,0.030126,0,0,0,0
121.12,0.42107,1.905,0.030224,0,0,0,0
121.62,0.42362,1.9077,0.03055,0,0,0,0
122.12,0.42636,1.91,0.030713,0,0,0,0
122.62,0.42912,1.912,0.030745,0,0,0,0
123.12,0.43178,1.9143,0.031135,0,0,0,0
123.62,0.43444,1.917,0.031265,0,0,0,0
124.12,0.43754,1.9197,0.031298,0,0,0,0
124.62,0.4407,1.922,0.031363,0,0,0,0
125.12,0.44359,1.9243,0.031721,0,0,0,0
125.62,0.44649,1.9267,0.031818,0,0,0,0
126.12,0.44936,1.9293,0.032046,0,0,0,0
126.62,0.45179,1.9317,0.032111,0,0,0,0
127.12,0.45442,1.934,0.032177,0,0,0,0
127.62,0.45716,1.936,0.032404,0,0,0,0
128.12,0.45987,1.9383,0.032826,0,0,0,0
128.62,0.46281,1.9407,0.032794,0,0,0,0
129.12,0.46558,1.943,0.033249,0,0,0,0
129.62,0.46861,1.9453,0.033183,0,0,0,0
130.12,0.47145,1.9477,0.033281,0,0,0,0
130.62,0.47466,1.95,0.033541,0,0,0,0
131.12,0.47739,1.9523,0.033704,0,0,0,0
131.62,0.48014,1.9547,0.033736,0,0,0,0
132.12,0.48289,1.957,0.033996,0,0,0,0
132.62,0.48549,1.9593,0.03419,0,0,0,0
133.12,0.48829,1.9617,0.034319,0,0,0,0
133.62,0.49086,1.964,0.034482,0,0,0,0
134.12,0.49382,1.966,0.034677,0,0,0,0
134.62,0.49666,1.9683,0.034806,0,0,0,0
135.12,0.49982,1.9707,0.034936,0,0,0,0
135.62,0.50296,1.9733,0.034968,0,0,0,0
136.12,0.5058,1.9754,0.03526,0,0,0,0
136.62,0.50861,1.9773,0.035195,0,0,0,0
137.12,0.51133,1.9793,0.035454,0,0,0,0
137.62,0.51398,1.9817,0.035681,0,0,0,0
138.12,0.51654,1.984,0.035876,0,0,0,0
138.62,0.51938,1.986,0.036102,0,0,0,0
139.12,0.52186,1.9883,0.036134,0,0,0,0
139.62,0.52471,1.9907,0.036134,0,0,0,0
140.12,0.52766,1.993,0.036523,0,0,0,0
140.62,0.53075,1.995,0.036653,0,0,0,0
141.12,0.53372,1.997,0.036944,0,0,0,0
141.62,0.53657,1.9993,0.037073,0,0,0,0
142.12,0.53964,2.0014,0.037267,0,0,0,0
142.62,0.54224,2.0033,0.037235,0,0,0,0
143.12,0.54486,2.0053,0.037591,0,0,0,0
143.62,0.54756,2.0077,0.037785,0,0,0,0
144.12,0.55028,2.01,0.03785,0,0,0,0
144.62,0.55314,2.012,0.037979,0,0,0,0
145.12,0.55602,2.014,0.038205,0,0,0,0
145.62,0.5589,2.016,0.038205,0,0,0,0
146.12,0.56197,2.0183,0.038431,0,0,0,0
146.62,0.56502,2.0204,0.038593,0,0,0,0
147.12,0.56786,2.0223,0.038657,0,0,0,0
147.62,0.57071,2.0243,0.038916,0,0,0,0
148.12,0.57354,2.0267,0.039012,0,0,0,0
148.62,0.57635,2.029,0.039335,0,0,0,0
149.12,0.57893,2.031,0.039464,0,0,0,0
149.62,0.58146,2.033,0.039594,0,0,0,0
150.12,0.58418,2.035,0.039851,0,0,0,0
150.62,0.58733,2.037,0.040013,0,0,0,0
151.12,0.59014,2.039,0.040142,0,0,0,0
151.62,0.59313,2.041,0.040303,0,0,0,0
152.12,0.59627,2.043,0.040497,0,0,0,0
152.62,0.59912,2.045,0.040529,0,0,0,0
153.12,0.60208,2.047,0.040754,0,0,0,0
153.62,0.60478,2.049,0.040884,0,0,0,0
154.12,0.60757,2.051,0.040948,0,0,0,0
154.62,0.61019,2.053,0.041205,0,0,0,0
155.12,0.61282,2.055,0.041366,0,0,0,0
155.62,0.61571,2.057,0.041528,0,0,0,0
156.12,0.61879,2.059,0.041625,0,0,0,0
156.62,0.62162,2.061,0.041753,0,0,0,0
157.12,0.62461,2.063,0.042107,0,0,0,0
157.62,0.62778,2.065,0.042301,0,0,0,0
158.12,0.63064,2.067,0.042526,0,0,0,0
158.62,0.63365,2.069,0.042462,0,0,0,0
159.12,0.63638,2.071,0.042718,0,0,0,0
159.62,0.63905,2.073,0.042976,0,0,0,0
160.12,0.64175,2.075,0.043234,0,0,0,0
160.62,0.64448,2.0767,0.043394,0,0,0,0
161.12,0.64724,2.0783,0.04349,0,0,0,0
161.62,0.65018,2.0803,0.04378,0,0,0,0
162.12,0.65307,2.0824,0.043876,0,0,0,0
162.62,0.6562,2.0843,0.04394,0,0,0,0
163.12,0.65932,2.086,0.043908,0,0,0,0
163.62,0.66207,2.088,0.044165,0,0,0,0
164.12,0.66501,2.09,0.044423,0,0,0,0
164.62,0.66782,2.092,0.044518,0,0,0,0
165.12,0.67062,2.094,0.044679,0,0,0,0
165.62,0.67329,2.096,0.04484,0,0,0,0
166.12,0.67617,2.098,0.045033,0,0,0,0
166.62,0.67861,2.1,0.045225,0,0,0,0
167.12,0.68158,2.1017,0.045289,0,0,0,0
167.62,0.68459,2.1033,0.04561,0,0,0,0
168.12,0.6878,2.105,0.045674,0,0,0,0
168.62,0.69089,2.107,0.045962,0,0,0,0
169.12,0.69386,2.109,0.046315,0,0,0,0
169.62,0.69684,2.111,0.046219,0,0,0,0
170.12,0.69947,2.1127,0.046508,0,0,0,0
170.62,0.70216,2.1143,0.046732,0,0,0,0
171.12,0.70499,2.116,0.046796,0,0,0,0
171.62,0.70777,2.1177,0.046828,0,0,0,0
172.12,0.71051,2.1196,0.047116,0,0,0,0
172.62,0.71339,2.1214,0.047341,0,0,0,0
173.12,0.71637,2.1236,0.047244,0,0,0,0
173.62,0.71945,2.1254,0.047629,0,0,0,0
174.12,0.72254,2.1273,0.047661,0,0,0,0
174.62,0.72548,2.129,0.04798,0,0,0,0
175.12,0.72819,2.131,0.048044,0,0,0,0
175.62,0.73093,2.1327,0.048204,0,0,0,0
176.12,0.73361,2.1343,0.048364,0,0,0,0
176.62,0.73643,2.136,0.048621,0,0,0,0
177.12,0.73905,2.1377,0.048717,0,0,0,0
177.62,0.7419,2.1393,0.049068,0,0,0,0
178.12,0.74491,2.141,0.0491,0,0,0,0
178.62,0.74798,2.143,0.049228,0,0,0,0
179.12,0.75104,2.1447,0.049452,0,0,0,0
179.62,0.75396,2.1463,0.049516,0,0,0,0
180.12,0.75683,2.148,0.049771,0,0,0,0
180.62,0.75966,2.15,0.049994,0,0,0,0
181.12,0.76233,2.1517,0.049994,0,0,0,0
181.62,0.76511,2.1533,0.050123,0,0,0,0
182.12,0.76782,2.1547,0.050218,0,0,0,0
182.62,0.77051,2.1563,0.050601,0,0,0,0
183.12,0.77319,2.158,0.05057,0,0,0,0
183.62,0.77616,2.16,0.050761,0,0,0,0
184.12,0.77927,2.162,0.050857,0,0,0,0
184.62,0.78233,2.1637,0.051207,0,0,0,0
185.12,0.78512,2.1653,0.051272,0,0,0,0
185.62,0.78805,2.167,0.051463,0,0,0,0
186.12,0.79101,2.1687,0.05175,0,0,0,0
186.62,0.79367,2.1703,0.051909,0,0,0,0
187.12,0.79643,2.1717,0.052004,0,0,0,0
187.62,0.79908,2.1733,0.052259,0,0,0,0
188.12,0.80165,2.175,0.052515,0,0,0,0
188.62,0.80447,2.1767,0.052482,0,0,0,0
189.12,0.80737,2.1783,0.052737,0,0,0,0
189.62,0.81047,2.1797,0.052832,0,0,0,0
190.12,0.81333,2.1813,0.053119,0,0,0,0
190.62,0.81648,2.1827,0.053088,0,0,0,0
191.12,0.8195,2.1846,0.05347,0,0,0,0
191.62,0.82198,2.1864,0.053406,0,0,0,0
192.12,0.82469,2.1883,0.053564,0,0,0,0
192.62,0.82742,2.1897,0.053819,0,0,0,0
193.12,0.83025,2.1913,0.053883,0,0,0,0
193.62,0.83284,2.1927,0.054138,0,0,0,0
194.12,0.83574,2.1943,0.054328,0,0,0,0
194.62,0.83874,2.1957,0.054456,0,0,0,0
195.12,0.84163,2.1973,0.054646,0,0,0,0
195.62,0.84471,2.199,0.054805,0,0,0,0
196.12,0.84759,2.2007,0.055028,0,0,0,0
196.62,0.85037,2.2023,0.055187,0,0,0,0
197.12,0.85316,2.2037,0.055473,0,0,0,0
197.62,0.85581,2.2053,0.055568,0,0,0,0
198.12,0.85851,2.2067,0.055917,0,0,0,0
198.62,0.86125,2.2083,0.05598,0,0,0,0
199.12,0.86393,2.2097,0.056013,0,0,0,0
199.62,0.86645,2.2113,0.056139,0,0,0,0
200.12,0.86942,2.213,0.056394,0,0,0,0
200.62,0.87267,2.2147,0.056551,0,0,0,0
201.12,0.87549,2.2163,0.056678,0,0,0,0
201.62,0.87869,2.2177,0.056806,0,0,0,0
202.12,0.88159,2.2193,0.056901,0,0,0,0
202.62,0.88415,2.2207,0.057154,0,0,0,0
203.12,0.88677,2.222,0.057376,0,0,0,0
203.62,0.88975,2.2233,0.057504,0,0,0,0
204.12,0.89227,2.225,0.057503,0,0,0,0
204.62,0.89499,2.2267,0.057852,0,0,0,0
205.12,0.89786,2.2283,0.057915,0,0,0,0
205.62,0.90087,2.2297,0.058359,0,0,0,0
206.12,0.90385,2.231,0.058359,0,0,0,0
206.62,0.90697,2.2323,0.058707,0,0,0,0
207.12,0.90995,2.2337,0.058865,0,0,0,0
207.62,0.91275,2.2353,0.058865,0,0,0,0
208.12,0.91548,2.2367,0.059245,0,0,0,0
208.62,0.91819,2.238,0.059403,0,0,0,0
209.12,0.92084,2.2393,0.059593,0,0,0,0
209.62,0.9234,2.241,0.059561,0,0,0,0
210.12,0.92625,2.2427,0.059688,0,0,0,0
210.62,0.92905,2.244,0.059846,0,0,0,0
211.12,0.9321,2.2453,0.06013,0,0,0,0
211.62,0.93495,2.2467,0.06013,0,0,0,0
212.12,0.9381,2.2483,0.060289,0,0,0,0
212.62,0.94095,2.2497,0.060321,0,0,0,0
213.12,0.94391,2.2513,0.060573,0,0,0,0
213.62,0.94667,2.2527,0.060794,0,0,0,0
214.12,0.94936,2.254,0.060889,0,0,0,0
214.62,0.95205,2.2553,0.060921,0,0,0,0
215.12,0.95488,2.2567,0.061394,0,0,0,0
215.62,0.95772,2.2583,0.061583,0,0,0,0
216.12,0.96054,2.2597,0.061647,0,0,0,0
216.62,0.96315,2.261,0.061994,0,0,0,0
217.12,0.96642,2.2623,0.062057,0,0,0,0
217.62,0.96939,2.2637,0.062341,0,0,0,0
218.12,0.97239,2.265,0.062499,0,0,0,0
218.62,0.97504,2.2663,0.062656,0,0,0,0
219.12,0.97783,2.2677,0.062845,0,0,0,0
219.62,0.98054,2.2693,0.062972,0,0,0,0
220.12,0.98328,2.271,0.063161,0,0,0,0
220.62,0.98616,2.2724,0.063256,0,0,0,0
221.12,0.98868,2.2736,0.063413,0,0,0,0
221.62,0.99162,2.2747,0.063539,0,0,0,0
222.12,0.9947,2.2763,0.063539,0,0,0,0
222.62,0.99757,2.2777,0.063854,0,0,0,0
223.12,1.0005,2.279,0.064012,0,0,0,0
223.62,1.0036,2.2803,0.064138,0,0,0,0
224.12,1.0062,2.2817,0.064358,0,0,0,0
224.62,1.0089,2.283,0.064453,0,0,0,0
225.12,1.0116,2.2843,0.064704,0,0,0,0
225.62,1.0145,2.2857,0.064861,0,0,0,0
226.12,1.0171,2.287,0.064956,0,0,0,0
226.62,1.0199,2.2883,0.065364,0,0,0,0
227.12,1.0226,2.2897,0.065428,0,0,0,0
227.62,1.0255,2.291,0.065774,0,0,0,0
228.12,1.0288,2.2923,0.065994,0,0,0,0
228.62,1.0317,2.2937,0.066245,0,0,0,0
229.12,1.0347,2.295,0.066339,0,0,0,0
229.62,1.0375,2.296,0.066622,0,0,0,0
230.12,1.0403,2.2973,0.066779,0,0,0,0
230.62,1.0429,2.2987,0.066811,0,0,0,0
231.12,1.0454,2.3,0.066967,0,0,0,0
231.62,1.0482,2.3013,0.067218,0,0,0,0
232.12,1.0511,2.3027,0.06725,0,0,0,0
232.62,1.0538,2.304,0.067345,0,0,0,0
233.12,1.0569,2.3053,0.067501,0,0,0,0
233.62,1.0599,2.3067,0.067626,0,0,0,0
234.12,1.063,2.308,0.067658,0,0,0,0
234.62,1.0655,2.309,0.067972,0,0,0,0
235.12,1.0684,2.3103,0.068159,0,0,0,0
235.62,1.0712,2.3117,0.068348,0,0,0,0
236.12,1.0738,2.3133,0.068504,0,0,0,0
236.62,1.0765,2.3147,0.068818,0,0,0,0
237.12,1.0793,2.316,0.069037,0,0,0,0
237.62,1.0821,2.317,0.069194,0,0,0,0
238.12,1.0851,2.318,0.069476,0,0,0,0
238.62,1.0876,2.3193,0.069758,0,0,0,0
239.12,1.091,2.3207,0.07004,0,0,0,0
239.62,1.0941,2.322,0.070102,0,0,0,0
240.12,1.0969,2.323,0.070352,0,0,0,0
240.62,1.0999,2.3243,0.070477,0,0,0,0
241.12,1.1028,2.3257,0.070603,0,0,0,0
241.62,1.1053,2.327,0.070728,0,0,0,0
242.12,1.108,2.3283,0.070916,0,0,0,0
242.62,1.1108,2.3297,0.070947,0,0,0,0
243.12,1.1136,2.331,0.071135,0,0,0,0
243.62,1.1162,2.332,0.071228,0,0,0,0
244.12,1.1192,2.333,0.071447,0,0,0,0
244.62,1.1221,2.334,0.071572,0,0,0,0
245.12,1.1253,2.3353,0.071666,0,0,0,0
245.62,1.1282,2.3367,0.071948,0,0,0,0
246.12,1.1312,2.338,0.072259,0,0,0,0
246.62,1.1338,2.339,0.072479,0,0,0,0
247.12,1.1363,2.34,0.072634,0,0,0,0
247.62,1.1391,2.3413,0.072977,0,0,0,0
248.12,1.1419,2.3427,0.072947,0,0,0,0
248.62,1.1448,2.344,0.073259,0,0,0,0
249.12,1.1476,2.345,0.073632,0,0,0,0
249.62,1.1507,2.3463,0.073882,0,0,0,0
250.12,1.1536,2.3477,0.073852,0,0,0,0
250.62,1.1566,2.349,0.074007,0,0,0,0
251.12,1.1595,2.35,0.074194,0,0,0,0
251.62,1.1622,2.3513,0.07435,0,0,0,0
252.12,1.165,2.3527,0.074412,0,0,0,0
252.62,1.1679,2.354,0.074849,0,0,0,0
253.12,1.1705,2.355,0.074724,0,0,0,0
253.62,1.1731,2.356,0.074879,0,0,0,0
254.12,1.1758,2.357,0.075191,0,0,0,0
254.62,1.1788,2.3583,0.075159,0,0,0,0
255.12,1.1817,2.3597,0.075409,0,0,0,0
255.62,1.1845,2.361,0.075627,0,0,0,0
256.12,1.1876,2.362,0.075908,0,0,0,0
256.62,1.1902,2.363,0.076,0,0,0,0
257.12,1.1933,2.364,0.07625,0,0,0,0
257.62,1.1958,2.365,0.076529,0,0,0,0
258.12,1.1986,2.3663,0.076716,0,0,0,0
258.62,1.2013,2.3677,0.077027,0,0,0,0
259.12,1.204,2.369,0.077213,0,0,0,0
259.62,1.2066,2.37,0.077306,0,0,0,0
260.12,1.2095,2.371,0.077493,0,0,0,0
260.62,1.2125,2.372,0.077773,0,0,0,0
261.12,1.2154,2.373,0.077866,0,0,0,0
261.62,1.2185,2.374,0.078052,0,0,0,0
262.12,1.2214,2.3753,0.078176,0,0,0,0
262.62,1.2241,2.3764,0.078455,0,0,0,0
263.12,1.2266,2.3776,0.078611,0,0,0,0
263.62,1.2296,2.3787,0.078734,0,0,0,0
264.12,1.2321,2.38,0.078921,0,0,0,0
264.62,1.2349,2.381,0.079045,0,0,0,0
265.12,1.2376,2.382,0.079262,0,0,0,0
265.62,1.2406,2.383,0.079386,0,0,0,0
266.12,1.2434,2.384,0.079666,0,0,0,0
266.62,1.2464,2.385,0.079728,0,0,0,0
267.12,1.2495,2.3863,0.080038,0,0,0,0
267.62,1.252,2.3877,0.080348,0,0,0,0
268.12,1.2549,2.389,0.080502,0,0,0,0
268.62,1.2577,2.39,0.080812,0,0,0,0
269.12,1.2602,2.391,0.080842,0,0,0,0
269.62,1.2628,2.392,0.081184,0,0,0,0
270.12,1.2655,2.393,0.081369,0,0,0,0
270.62,1.2684,2.394,0.081554,0,0,0,0
271.12,1.2713,2.395,0.08171,0,0,0,0
271.62,1.2742,2.3963,0.081895,0,0,0,0
272.12,1.2771,2.3977,0.08205,0,0,0,0
272.62,1.2802,2.399,0.082328,0,0,0,0
273.12,1.2828,2.4,0.082699,0,0,0,0
273.62,1.2859,2.401,0.082637,0,0,0,0
274.12,1.2883,2.402,0.082699,0,0,0,0
274.62,1.2912,2.403,0.08307,0,0,0,0
275.12,1.2938,2.404,0.083317,0,0,0,0
275.62,1.2964,2.405,0.083317,0,0,0,0
276.12,1.2992,2.4057,0.083626,0,0,0,0
276.62,1.3021,2.4066,0.083811,0,0,0,0
277.12,1.305,2.4077,0.083873,0,0,0,0
277.62,1.3082,2.409,0.084274,0,0,0,0
278.12,1.311,2.41,0.08449,0,0,0,0
278.62,1.3138,2.411,0.084676,0,0,0,0
279.12,1.3164,2.412,0.08486,0,0,0,0
279.62,1.3196,2.413,0.085076,0,0,0,0
280.12,1.3219,2.414,0.085261,0,0,0,0
280.62,1.3247,2.415,0.085569,0,0,0,0
281.12,1.3277,2.416,0.085693,0,0,0,0
281.62,1.3304,2.417,0.085939,0,0,0,0
282.12,1.3332,2.4183,0.086155,0,0,0,0
282.62,1.3359,2.4194,0.086278,0,0,0,0
283.12,1.3392,2.4206,0.086524,0,0,0,0
283.62,1.3421,2.4217,0.086586,0,0,0,0
284.12,1.3452,2.4227,0.086863,0,0,0,0
284.62,1.3478,2.4233,0.086955,0,0,0,0
285.12,1.3506,2.424,0.08714,0,0,0,0
285.62,1.3533,2.4253,0.087386,0,0,0,0
286.12,1.3559,2.4267,0.087601,0,0,0,0
286.62,1.3589,2.428,0.087786,0,0,0,0
287.12,1.3617,2.4287,0.087909,0,0,0,0
287.62,1.3646,2.4296,0.088155,0,0,0,0
288.12,1.3677,2.4307,0.088308,0,0,0,0
288.62,1.3707,2.4317,0.088585,0,0,0,0
289.12,1.3738,2.4326,0.088954,0,0,0,0
289.62,1.3764,2.4334,0.089046,0,0,0,0
290.12,1.3792,2.4343,0.089322,0,0,0,0
290.62,1.3822,2.435,0.089445,0,0,0,0
291.12,1.3848,2.436,0.08963,0,0,0,0
291.62,1.3877,2.437,0.090028,0,0,0,0
292.12,1.3907,2.438,0.090151,0,0,0,0
292.62,1.3933,2.439,0.090366,0,0,0,0
293.12,1.396,2.44,0.090611,0,0,0,0
293.62,1.3992,2.441,0.090764,0,0,0,0
294.12,1.4023,2.442,0.09101,0,0,0,0
294.62,1.4052,2.443,0.091101,0,0,0,0
295.12,1.4079,2.444,0.091225,0,0,0,0
295.62,1.4108,2.445,0.091378,0,0,0,0
296.12,1.4136,2.446,0.091654,0,0,0,0
296.62,1.4163,2.447,0.091684,0,0,0,0
297.12,1.419,2.448,0.091898,0,0,0,0
297.62,1.4221,2.449,0.092419,0,0,0,0
298.12,1.4249,2.45,0.092357,0,0,0,0
298.62,1.4278,2.451,0.092786,0,0,0,0
299.12,1.4308,2.452,0.092908,0,0,0,0
299.62,1.434,2.453,0.093061,0,0,0,0
300.12,1.4368,2.4537,0.093459,0,0,0,0
300.62,1.4394,2.4543,0.09355,0,0,0,0
301.12,1.4424,2.455,0.093886,0,0,0,0
301.62,1.445,2.456,0.094192,0,0,0,0
302.12,1.4479,2.457,0.094253,0,0,0,0
302.62,1.4508,2.458,0.094498,0,0,0,0
303.12,1.4535,2.459,0.094774,0,0,0,0
303.62,1.4564,2.46,0.094804,0,0,0,0
304.12,1.4593,2.461,0.0952,0,0,0,0
304.62,1.462,2.462,0.095322,0,0,0,0
305.12,1.4651,2.463,0.095506,0,0,0,0
305.62,1.4681,2.464,0.095688,0,0,0,0
306.12,1.471,2.465,0.09578,0,0,0,0
306.62,1.4739,2.466,0.096084,0,0,0,0
307.12,1.4766,2.467,0.096238,0,0,0,0
307.62,1.4794,2.468,0.096451,0,0,0,0
308.12,1.4822,2.4687,0.096665,0,0,0,0
308.62,1.4849,2.4693,0.096939,0,0,0,0
309.12,1.4879,2.47,0.097091,0,0,0,0
309.62,1.4908,2.471,0.097365,0,0,0,0
310.12,1.4939,2.472,0.097669,0,0,0,0
310.62,1.4969,2.473,0.097852,0,0,0,0
311.12,1.4999,2.474,0.098278,0,0,0,0
311.62,1.5028,2.4747,0.098552,0,0,0,0
312.12,1.5055,2.4753,0.098735,0,0,0,0
312.62,1.508,2.476,0.098857,0,0,0,0
313.12,1.5109,2.477,0.099282,0,0,0,0
313.62,1.5136,2.478,0.099252,0,0,0,0
314.12,1.5165,2.479,0.099434,0,0,0,0
314.62,1.5192,2.48,0.099738,0,0,0,0
315.12,1.5223,2.481,0.10001,0,0,0,0
315.62,1.5252,2.4817,0.10019,0,0,0,0
316.12,1.5284,2.4826,0.10022,0,0,0,0
316.62,1.5314,2.4834,0.10056,0,0,0,0
317.12,1.5342,2.4843,0.10086,0,0,0,0
317.62,1.5369,2.485,0.10101,0,0,0,0
318.12,1.5396,2.486,0.10132,0,0,0,0
318.62,1.5425,2.487,0.10147,0,0,0,0
319.12,1.5451,2.488,0.10171,0,0,0,0
319.62,1.5481,2.4887,0.10208,0,0,0,0
320.12,1.5511,2.4893,0.10226,0,0,0,0
320.62,1.5542,2.49,0.10259,0,0,0,0
321.12,1.5573,2.491,0.10271,0,0,0,0
321.62,1.5602,2.492,0.10289,0,0,0,0
322.12,1.5631,2.493,0.10332,0,0,0,0
322.62,1.566,2.494,0.1035,0,0,0,0
323.12,1.5687,2.4947,0.10365,0,0,0,0
323.62,1.5714,2.4956,0.10389,0,0,0,0
324.12,1.5744,2.4964,0.10401,0,0,0,0
324.62,1.5773,2.497,0.10438,0,0,0,0
325.12,1.5801,2.4976,0.10444,0,0,0,0
325.62,1.5831,2.4984,0.10471,0,0,0,0
326.12,1.5864,2.4993,0.10492,0,0,0,0
326.62,1.5891,2.5,0.10504,0,0,0,0
327.12,1.5921,2.501,0.10531,0,0,0,0
327.62,1.5949,2.502,0.10544,0,0,0,0
328.12,1.5982,2.503,0.10586,0,0,0,0
328.62,1.6006,2.504,0.10595,0,0,0,0
329.12,1.6038,2.505,0.10628,0,0,0,0
329.62,1.6062,2.5057,0.10661,0,0,0,0
330.12,1.609,2.5063,0.10691,0,0,0,0
330.62,1.612,2.507,0.107,0,0,0,0
331.12,1.6149,2.508,0.10737,0,0,0,0
331.62,1.6182,2.5087,0.10767,0,0,0,0
332.12,1.621,2.5093,0.1077,0,0,0,0
332.62,1.6241,2.51,0.108,0,0,0,0
333.12,1.6269,2.511,0.1083,0,0,0,0
333.62,1.6298,2.5117,0.10854,0,0,0,0
334.12,1.6328,2.5123,0.10863,0,0,0,0
334.62,1.6354,2.513,0.10881,0,0,0,0
335.12,1.638,2.5137,0.10923,0,0,0,0
335.62,1.641,2.5143,0.10957,0,0,0,0
336.12,1.6439,2.515,0.10984,0,0,0,0
336.62,1.6471,2.516,0.10996,0,0,0,0
337.12,1.6498,2.517,0.1102,0,0,0,0
337.62,1.6527,2.5177,0.11047,0,0,0,0
338.12,1.6557,2.5183,0.11068,0,0,0,0
338.62,1.6585,2.519,0.11077,0,0,0,0
339.12,1.6614,2.52,0.11125,0,0,0,0
339.62,1.664,2.521,0.11131,0,0,0,0
340.12,1.6666,2.522,0.11152,0,0,0,0
340.62,1.6699,2.5227,0.11173,0,0,0,0
341.12,1.6736,2.5233,0.11227,0,0,0,0
341.62,1.6759,2.524,0.1123,0,0,0,0
342.12,1.6789,2.525,0.11275,0,0,0,0
342.62,1.6817,2.5257,0.1129,0,0,0,0
343.12,1.685,2.5263,0.11314,0,0,0,0
343.62,1.6878,2.527,0.11344,0,0,0,0
344.12,1.6904,2.528,0.11368,0,0,0,0
344.62,1.6933,2.529,0.11389,0,0,0,0
345.12,1.6962,2.5297,0.11419,0,0,0,0
345.62,1.6988,2.5303,0.11434,0,0,0,0
346.12,1.7017,2.5307,0.11449,0,0,0,0
346.62,1.7048,2.5313,0.11491,0,0,0,0
347.12,1.7076,2.532,0.11494,0,0,0,0
347.62,1.7107,2.533,0.11536,0,0,0,0
348.12,1.7135,2.534,0.11566,0,0,0,0
348.62,1.7165,2.5347,0.11583,0,0,0,0
349.12,1.7194,2.5353,0.11622,0,0,0,0
349.62,1.7223,2.536,0.11631,0,0,0,0
350.12,1.7252,2.5367,0.1167,0,0,0,0
350.62,1.728,2.5373,0.11703,0,0,0,0
351.12,1.7308,2.5377,0.11706,0,0,0,0
351.62,1.7337,2.5383,0.11739,0,0,0,0
352.12,1.7368,2.539,0.11778,0,0,0,0
352.62,1.7398,2.54,0.11787,0,0,0,0
353.12,1.7428,2.541,0.11828,0,0,0,0
353.62,1.7457,2.5417,0.11846,0,0,0,0
354.12,1.7487,2.5423,0.11894,0,0,0,0
354.62,1.7517,2.543,0.11918,0,0,0,0
355.12,1.7544,2.5437,0.1193,0,0,0,0
355.62,1.7571,2.5443,0.11951,0,0,0,0
356.12,1.7602,2.545,0.11983,0,0,0,0
356.62,1.7632,2.546,0.1201,0,0,0,0
357.12,1.7662,2.5467,0.12031,0,0,0,0
357.62,1.7692,2.5473,0.12058,0,0,0,0
358.12,1.7722,2.548,0.12076,0,0,0,0
358.62,1.7753,2.5487,0.12105,0,0,0,0
359.12,1.7785,2.5493,0.12153,0,0,0,0
359.62,1.7812,2.5497,0.12165,0,0,0,0
360.12,1.7842,2.5503,0.12201,0,0,0,0
360.62,1.7871,2.551,0.1223,0,0,0,0
361.12,1.7899,2.5517,0.12254,0,0,0,0
361.62,1.7927,2.5523,0.12275,0,0,0,0
362.12,1.7955,2.553,0.12316,0,0,0,0
362.62,1.7986,2.554,0.12328,0,0,0,0
363.12,1.8019,2.5547,0.12355,0,0,0,0
363.62,1.8047,2.5553,0.12391,0,0,0,0
364.12,1.8078,2.556,0.12411,0,0,0,0
364.62,1.8109,2.5567,0.12432,0,0,0,0
365.12,1.8139,2.5573,0.12459,0,0,0,0
365.62,1.8168,2.558,0.12477,0,0,0,0
366.12,1.8194,2.5587,0.12491,0,0,0,0
366.62,1.8221,2.5593,0.1253,0,0,0,0
367.12,1.8253,2.56,0.12557,0,0,0,0
367.62,1.8284,2.5607,0.12583,0,0,0,0
368.12,1.8311,2.5613,0.1261,0,0,0,0
368.62,1.8343,2.5617,0.12642,0,0,0,0
369.12,1.8375,2.5623,0.12666,0,0,0,0
369.62,1.8407,2.563,0.12704,0,0,0,0
370.12,1.8436,2.5637,0.12749,0,0,0,0
370.62,1.8464,2.5643,0.12775,0,0,0,0
371.12,1.8494,2.5647,0.12796,0,0,0,0
371.62,1.852,2.5653,0.12837,0,0,0,0
372.12,1.8549,2.566,0.12852,0,0,0,0
372.62,1.8579,2.5667,0.12891,0,0,0,0
373.12,1.861,2.5673,0.12902,0,0,0,0
373.62,1.8641,2.568,0.12926,0,0,0,0
374.12,1.8671,2.5687,0.12956,0,0,0,0
374.62,1.87,2.5693,0.12991,0,0,0,0
375.12,1.8733,2.57,0.12994,0,0,0,0
375.62,1.8763,2.5707,0.13023,0,0,0,0
376.12,1.8791,2.5713,0.13044,0,0,0,0
376.62,1.882,2.572,0.13073,0,0,0,0
377.12,1.8848,2.5727,0.13121,0,0,0,0
377.62,1.8879,2.5733,0.13124,0,0,0,0
378.12,1.8908,2.5737,0.13171,0,0,0,0
378.62,1.8938,2.574,0.13188,0,0,0,0
379.12,1.8969,2.5743,0.13241,0,0,0,0
379.62,1.8999,2.575,0.13268,0,0,0,0
380.12,1.9029,2.5757,0.133,0,0,0,0
380.62,1.906,2.5763,0.13335,0,0,0,0
381.12,1.9089,2.577,0.13373,0,0,0,0
381.62,1.9119,2.5777,0.13415,0,0,0,0
382.12,1.9147,2.5783,0.13444,0,0,0,0
382.62,1.9176,2.5787,0.13485,0,0,0,0
383.12,1.9203,2.5793,0.13482,0,0,0,0
383.62,1.9232,2.58,0.13526,0,0,0,0
384.12,1.9267,2.5807,0.13544,0,0,0,0
384.62,1.9297,2.5813,0.13573,0,0,0,0
385.12,1.9329,2.5817,0.13599,0,0,0,0
385.62,1.9357,2.5823,0.13626,0,0,0,0
386.12,1.9389,2.5827,0.13661,0,0,0,0
386.62,1.9416,2.5833,0.1369,0,0,0,0
387.12,1.9442,2.584,0.13719,0,0,0,0
387.62,1.9474,2.5847,0.13749,0,0,0,0
388.12,1.9502,2.5853,0.13772,0,0,0,0
388.62,1.9531,2.5857,0.13822,0,0,0,0
389.12,1.9562,2.5863,0.13863,0,0,0,0
389.62,1.9592,2.5867,0.13898,0,0,0,0
390.12,1.9625,2.5873,0.13933,0,0,0,0
390.62,1.9655,2.588,0.13971,0,0,0,0
391.12,1.9685,2.5887,0.14012,0,0,0,0
391.62,1.9714,2.589,0.14032,0,0,0,0
392.12,1.9742,2.5893,0.14073,0,0,0,0
392.62,1.9773,2.59,0.14096,0,0,0,0
393.12,1.9802,2.5907,0.14134,0,0,0,0
393.62,1.9833,2.5913,0.14163,0,0,0,0
394.12,1.9864,2.5917,0.14187,0,0,0,0
394.62,1.9894,2.592,0.14227,0,0,0,0
395.12,1.9922,2.5923,0.14265,0,0,0,0
395.62,1.9954,2.593,0.14294,0,0,0,0
396.12,1.9985,2.5937,0.14324,0,0,0,0
396.62,2.0015,2.594,0.14353,0,0,0,0
397.12,2.0047,2.5943,0.14376,0,0,0,0
397.62,2.0075,2.5947,0.14431,0,0,0,0
398.12,2.0104,2.5953,0.14466,0,0,0,0
398.62,2.0133,2.596,0.14489,0,0,0,0
399.12,2.0163,2.5967,0.14524,0,0,0,0
399.62,2.0195,2.5973,0.14565,0,0,0,0
400.12,2.0226,2.5977,0.14591,0,0,0,0
400.62,2.0257,2.5983,0.14634,0,0,0,0
401.12,2.0289,2.5987,0.14658,0,0,0,0
401.62,2.0317,2.5993,0.14701,0,0,0,0
402.12,2.035,2.5997,0.14739,0,0,0,0
402.62,2.038,2.6,0.14768,0,0,0,0
403.12,2.041,2.6003,0.14811,0,0,0,0
403.62,2.0439,2.601,0.14834,0,0,0,0
404.12,2.0469,2.6017,0.14881,0,0,0,0
404.62,2.0497,2.6023,0.14907,0,0,0,0
405.12,2.0529,2.6027,0.14941,0,0,0,0
405.62,2.0562,2.6033,0.14976,0,0,0,0
406.12,2.0591,2.6037,0.15017,0,0,0,0
406.62,2.0624,2.604,0.15031,0,0,0,0
407.12,2.0655,2.6043,0.15077,0,0,0,0
407.62,2.0686,2.6047,0.15106,0,0,0,0
408.12,2.0715,2.6053,0.15155,0,0,0,0
408.62,2.0743,2.6057,0.15187,0,0,0,0
409.12,2.0773,2.6063,0.15227,0,0,0,0
409.62,2.0804,2.6067,0.15259,0,0,0,0
410.12,2.0834,2.6073,0.15279,0,0,0,0
410.62,2.0867,2.6077,0.15342,0,0,0,0
411.12,2.0897,2.6083,0.15363,0,0,0,0
411.62,2.093,2.6087,0.15394,0,0,0,0
412.12,2.096,2.609,0.15426,0,0,0,0
412.62,2.0993,2.6093,0.15472,0,0,0,0
413.12,2.1022,2.6097,0.15507,0,0,0,0
413.62,2.1051,2.6103,0.15518,0,0,0,0
414.12,2.1082,2.611,0.15564,0,0,0,0
414.61,2.111,2.6117,0.15598,0,0,0,0
415.12,2.1143,2.612,0.15647,0,0,0,0
415.62,2.1174,2.6123,0.15679,0,0,0,0
416.12,2.1205,2.6127,0.15728,0,0,0,0
416.62,2.1235,2.6133,0.15762,0,0,0,0
417.12,2.1269,2.6137,0.15796,0,0,0,0
417.62,2.1301,2.614,0.15842,0,0,0,0
418.12,2.1332,2.6143,0.15874,0,0,0,0
418.62,2.1363,2.6147,0.1592,0,0,0,0
419.12,2.1391,2.6153,0.15942,0,0,0,0
419.62,2.142,2.6157,0.15991,0,0,0,0
420.12,2.1451,2.616,0.1602,0,0,0,0
420.62,2.1482,2.6163,0.16068,0,0,0,0
421.12,2.1513,2.6167,0.16123,0,0,0,0
421.62,2.1544,2.617,0.16137,0,0,0,0
422.12,2.1575,2.6173,0.16188,0,0,0,0
422.62,2.1607,2.6177,0.16228,0,0,0,0
423.12,2.1638,2.6183,0.16248,0,0,0,0
423.62,2.1669,2.6187,0.16294,0,0,0,0
424.12,2.1699,2.619,0.1634,0,0,0,0
424.62,2.1728,2.6193,0.16368,0,0,0,0
425.12,2.1758,2.6197,0.16405,0,0,0,0
425.62,2.1787,2.6203,0.16456,0,0,0,0
426.12,2.1822,2.6207,0.16485,0,0,0,0
426.61,2.1852,2.621,0.16528,0,0,0,0
427.12,2.1884,2.6213,0.16587,0,0,0,0
427.62,2.1916,2.6217,0.16613,0,0,0,0
428.12,2.1945,2.6223,0.16661,0,0,0,0
428.62,2.1977,2.6227,0.16718,0,0,0,0
429.12,2.2009,2.623,0.16752,0,0,0,0
429.62,2.2038,2.623,0.16801,0,0,0,0
430.12,2.2068,2.6233,0.16852,0,0,0,0
430.62,2.2099,2.6237,0.16894,0,0,0,0
431.12,2.213,2.6243,0.16937,0,0,0,0
431.62,2.2161,2.6247,0.16988,0,0,0,0
432.12,2.2193,2.625,0.1703,0,0,0,0
432.62,2.2225,2.6253,0.17078,0,0,0,0
433.12,2.2257,2.6257,0.17112,0,0,0,0
433.62,2.229,2.6263,0.17169,0,0,0,0
434.12,2.2322,2.6267,0.17208,0,0,0,0
434.62,2.2346,2.627,0.17256,0,0,0,0
435.12,2.238,2.627,0.17285,0,0,0,0
435.62,2.2409,2.6273,0.17341,0,0,0,0
436.12,2.2442,2.6277,0.17386,0,0,0,0
436.62,2.2473,2.628,0.17423,0,0,0,0
437.12,2.2504,2.628,0.17465,0,0,0,0
437.62,2.2537,2.628,0.17519,0,0,0,0
438.12,2.257,2.6283,0.17572,0,0,0,0
438.62,2.2599,2.6287,0.1762,0,0,0,0
439.12,2.2632,2.6293,0.17677,0,0,0,0
439.61,2.2663,2.6297,0.1773,0,0,0,0
440.12,2.2694,2.63,0.17783,0,0,0,0
440.62,2.2724,2.63,0.17828,0,0,0,0
441.12,2.2756,2.6303,0.17865,0,0,0,0
441.62,2.2788,2.6307,0.17915,0,0,0,0
442.12,2.282,2.631,0.17949,0,0,0,0
442.62,2.2854,2.6313,0.18002,0,0,0,0
443.12,2.2884,2.6317,0.18053,0,0,0,0
443.62,2.2915,2.6323,0.18103,0,0,0,0
444.11,2.2948,2.6324,0.18151,0,0,0,0
444.62,2.2978,2.6326,0.18226,0,0,0,0
445.12,2.3009,2.6327,0.18249,0,0,0,0
445.62,2.304,2.633,0.18305,0,0,0,0
446.12,2.3071,2.633,0.18352,0,0,0,0
446.61,2.3104,2.6333,0.18414,0,0,0,0
447.12,2.3134,2.6337,0.18461,0,0,0,0
447.62,2.3168,2.634,0.18514,0,0,0,0
448.12,2.32,2.634,0.18573,0,0,0,0
448.62,2.3231,2.6343,0.18612,0,0,0,0
449.12,2.3263,2.6347,0.18673,0,0,0,0
449.62,2.3291,2.6353,0.18721,0,0,0,0
450.12,2.3324,2.6357,0.18768,0,0,0,0
450.62,2.3351,2.636,0.18829,0,0,0,0
451.12,2.3383,2.636,0.18882,0,0,0,0
451.62,2.3416,2.636,0.18913,0,0,0,0
452.12,2.3449,2.6363,0.18971,0,0,0,0
452.62,2.3481,2.6367,0.19032,0,0,0,0
453.12,2.3514,2.637,0.19096,0,0,0,0
453.62,2.3547,2.637,0.19148,0,0,0,0
454.12,2.3578,2.637,0.1919,0,0,0,0
454.62,2.3608,2.637,0.19243,0,0,0,0
455.12,2.3637,2.6373,0.19304,0,0,0,0
455.62,2.3668,2.6377,0.19356,0,0,0,0
456.12,2.3697,2.638,0.19412,0,0,0,0
456.62,2.3732,2.638,0.19467,0,0,0,0
457.12,2.3764,2.638,0.19522,0,0,0,0
457.61,2.3794,2.6383,0.19583,0,0,0,0
458.12,2.3828,2.6387,0.19635,0,0,0,0
458.62,2.386,2.639,0.19699,0,0,0,0
459.12,2.3891,2.639,0.19776,0,0,0,0
459.62,2.3921,2.639,0.19817,0,0,0,0
460.12,2.3954,2.639,0.19892,0,0,0,0
460.61,2.3985,2.6393,0.19933,0,0,0,0
461.11,2.4017,2.6397,0.20018,0,0,0,0
461.61,2.4048,2.64,0.20092,0,0,0,0
462.11,2.4079,2.64,0.20139,0,0,0,0
462.61,2.4112,2.64,0.20199,0,0,0,0
463.11,2.4147,2.64,0.2027,0,0,0,0
463.62,2.418,2.64,0.20334,0,0,0,0
464.12,2.421,2.64,0.20386,0,0,0,0
464.62,2.4243,2.64,0.20454,0,0,0,0
465.12,2.4272,2.64,0.20514,0,0,0,0
465.62,2.4303,2.6403,0.2058,0,0,0,0
466.12,2.4335,2.6407,0.2064,0,0,0,0
466.61,2.4366,2.641,0.20711,0,0,0,0
467.12,2.4398,2.641,0.20771,0,0,0,0
467.62,2.443,2.641,0.2085,0,0,0,0
468.12,2.4465,2.6413,0.20913,0,0,0,0
468.62,2.4496,2.6414,0.21003,0,0,0,0
469.11,2.4528,2.6413,0.21057,0,0,0,0
469.61,2.4561,2.6413,0.21125,0,0,0,0
470.11,2.4594,2.6417,0.21212,0,0,0,0
470.61,2.4625,2.642,0.21288,0,0,0,0
471.12,2.4655,2.6417,0.2134,0,0,0,0
471.61,2.4689,2.6413,0.2141,0,0,0,0
472.12,2.472,2.6413,0.21478,0,0,0,0
472.61,2.4754,2.6417,0.21572,0,0,0,0
473.12,2.4785,2.642,0.21632,0,0,0,0
473.61,2.4819,2.642,0.21702,0,0,0,0
474.11,2.4851,2.642,0.21778,0,0,0,0
474.62,2.4885,2.642,0.21854,0,0,0,0
475.11,2.4918,2.642,0.21937,0,0,0,0
475.61,2.495,2.642,0.22015,0,0,0,0
476.12,2.4981,2.642,0.22104,0,0,0,0
476.62,2.5012,2.642,0.22174,0,0,0,0
477.11,2.5045,2.642,0.22276,0,0,0,0
477.62,2.5077,2.642,0.22333,0,0,0,0
478.12,2.511,2.642,0.22405,0,0,0,0
478.62,2.5142,2.642,0.22502,0,0,0,0
479.11,2.5178,2.642,0.22585,0,0,0,0
479.62,2.5211,2.642,0.22655,0,0,0,0
480.11,2.5241,2.642,0.22746,0,0,0,0
480.61,2.5272,2.6417,0.22831,0,0,0,0
481.11,2.5306,2.6416,0.22906,0,0,0,0
481.61,2.5337,2.6417,0.22997,0,0,0,0
482.11,2.5371,2.6417,0.23074,0,0,0,0
482.62,2.5403,2.6413,0.23159,0,0,0,0
483.11,2.5436,2.641,0.23255,0,0,0,0
483.61,2.5472,2.641,0.23327,0,0,0,0
484.11,2.5506,2.641,0.23417,0,0,0,0
484.61,2.5541,2.6407,0.23516,0,0,0,0
485.12,2.5573,2.6406,0.23584,0,0,0,0
485.61,2.5606,2.6407,0.2368,0,0,0,0
486.12,2.5638,2.6407,0.23797,0,0,0,0
486.62,2.5667,2.6403,0.23879,0,0,0,0
487.11,2.5702,2.6397,0.23987,0,0,0,0
487.62,2.5735,2.6393,0.24063,0,0,0,0
488.12,2.5769,2.639,0.2418,0,0,0,0
488.61,2.5802,2.639,0.24285,0,0,0,0
489.12,2.5838,2.639,0.24382,0,0,0,0
489.61,2.5868,2.639,0.24469,0,0,0,0
490.12,2.59,2.6387,0.24574,0,0,0,0
490.61,2.5933,2.6383,0.24674,0,0,0,0
491.11,2.5965,2.638,0.24768,0,0,0,0
491.61,2.5997,2.638,0.24871,0,0,0,0
492.11,2.6029,2.6377,0.24973,0,0,0,0
492.61,2.6061,2.6373,0.25059,0,0,0,0
493.11,2.6096,2.637,0.25198,0,0,0,0
493.61,2.613,2.637,0.25281,0,0,0,0
494.11,2.6164,2.6367,0.25409,0,0,0,0
494.61,2.6196,2.6363,0.25497,0,0,0,0
495.11,2.6232,2.6357,0.2563,0,0,0,0
495.62,2.6263,2.6353,0.25726,0,0,0,0
496.11,2.6295,2.635,0.25814,0,0,0,0
496.61,2.6329,2.6347,0.25926,0,0,0,0
497.11,2.6361,2.6343,0.26027,0,0,0,0
497.62,2.6392,2.6337,0.26156,0,0,0,0
498.11,2.6428,2.6333,0.26262,0,0,0,0
498.62,2.6462,2.6327,0.26376,0,0,0,0
499.11,2.6497,2.6323,0.26502,0,0,0,0
499.61,2.6532,2.632,0.26608,0,0,0,0
500.11,2.6564,2.6317,0.26736,0,0,0,0
500.61,2.6596,2.631,0.2686,0,0,0,0
501.11,2.6634,2.6303,0.2698,0,0,0,0
501.61,2.666,2.6297,0.27104,0,0,0,0
502.11,2.6694,2.6293,0.27221,0,0,0,0
502.61,2.6728,2.6287,0.27347,0,0,0,0
503.11,2.6761,2.6283,0.27479,0,0,0,0
503.61,2.6799,2.6277,0.27599,0,0,0,0
504.11,2.6833,2.627,0.27739,0,0,0,0
504.61,2.6867,2.626,0.27872,0,0,0,0
505.11,2.69,2.625,0.28009,0,0,0,0
505.61,2.6931,2.6243,0.28146,0,0,0,0
506.11,2.6964,2.6237,0.28283,0,0,0,0
506.61,2.7,2.623,0.28414,0,0,0,0
507.11,2.7032,2.622,0.28541,0,0,0,0
507.61,2.7066,2.621,0.28692,0,0,0,0
508.12,2.7101,2.6203,0.28813,0,0,0,0
508.61,2.7136,2.6197,0.28946,0,0,0,0
509.11,2.717,2.619,0.291,0,0,0,0
509.62,2.7203,2.618,0.2922,0,0,0,0
510.11,2.7239,2.617,0.2936,0,0,0,0
510.62,2.7272,2.616,0.2951,0,0,0,0
511.11,2.7305,2.615,0.29648,0,0,0,0
511.61,2.7337,2.614,0.29803,0,0,0,0
512.11,2.7373,2.613,0.29927,0,0,0,0
512.61,2.7407,2.612,0.30092,0,0,0,0
513.12,2.7442,2.6107,0.30253,0,0,0,0
513.61,2.7475,2.6093,0.30399,0,0,0,0
514.11,2.751,2.608,0.30553,0,0,0,0
514.61,2.7547,2.6067,0.30721,0,0,0,0
515.11,2.7579,2.6053,0.30867,0,0,0,0
515.61,2.7613,2.604,0.31012,0,0,0,0
516.11,2.7647,2.603,0.31155,0,0,0,0
516.61,2.7681,2.602,0.3132,0,0,0,0
517.11,2.7714,2.6007,0.31462,0,0,0,0
517.61,2.7747,2.599,0.31607,0,0,0,0
518.11,2.7783,2.5973,0.31762,0,0,0,0
518.61,2.7817,2.596,0.31906,0,0,0,0
519.11,2.7852,2.5947,0.32062,0,0,0,0
519.61,2.7888,2.593,0.3222,0,0,0,0
520.11,2.7922,2.5913,0.32381,0,0,0,0
520.61,2.7958,2.5897,0.32544,0,0,0,0
521.11,2.7992,2.5883,0.32704,0,0,0,0
521.61,2.8026,2.5867,0.32881,0,0,0,0
522.11,2.8058,2.585,0.3304,0,0,0,0
522.61,2.8093,2.583,0.33192,0,0,0,0
523.12,2.8129,2.581,0.33359,0,0,0,0
523.61,2.8166,2.579,0.33525,0,0,0,0
524.11,2.8197,2.577,0.33691,0,0,0,0
524.61,2.8232,2.575,0.33847,0,0,0,0
525.12,2.8269,2.573,0.34005,0,0,0,0
525.61,2.8303,2.571,0.34172,0,0,0,0
526.11,2.8339,2.569,0.34342,0,0,0,0
526.61,2.8371,2.567,0.34504,0,0,0,0
527.11,2.8408,2.565,0.34671,0,0,0,0
527.61,2.8441,2.5627,0.34847,0,0,0,0
528.11,2.8476,2.56,0.35001,0,0,0,0
528.61,2.8513,2.5573,0.35174,0,0,0,0
529.11,2.8549,2.555,0.35352,0,0,0,0
529.62,2.8585,2.5527,0.35527,0,0,0,0
530.11,2.8622,2.5503,0.35713,0,0,0,0
530.61,2.8656,2.5477,0.35877,0,0,0,0
531.11,2.8691,2.5453,0.36056,0,0,0,0
531.61,2.8723,2.5427,0.36241,0,0,0,0
532.11,2.8759,2.54,0.36422,0,0,0,0
532.61,2.8797,2.5373,0.36616,0,0,0,0
533.11,2.8832,2.5344,0.36782,0,0,0,0
533.61,2.8868,2.5313,0.36959,0,0,0,0
534.11,2.8904,2.528,0.3714,0,0,0,0
534.61,2.894,2.525,0.37319,0,0,0,0
535.11,2.8976,2.522,0.37497,0,0,0,0
535.61,2.901,2.519,0.37664,0,0,0,0
536.11,2.9046,2.516,0.37844,0,0,0,0
536.61,2.9079,2.5127,0.3804,0,0,0,0
537.11,2.9116,2.5093,0.38243,0,0,0,0
537.61,2.9153,2.506,0.38439,0,0,0,0
538.11,2.9188,2.5027,0.38618,0,0,0,0
538.61,2.9225,2.499,0.38813,0,0,0,0
539.11,2.9262,2.4953,0.39002,0,0,0,0
539.61,2.93,2.4917,0.39194,0,0,0,0
540.11,2.9332,2.4883,0.39408,0,0,0,0
540.61,2.9369,2.4847,0.39611,0,0,0,0
541.11,2.9405,2.481,0.39842,0,0,0,0
541.61,2.9441,2.477,0.40019,0,0,0,0
542.11,2.9477,2.473,0.402,0,0,0,0
542.61,2.9514,2.469,0.40403,0,0,0,0
543.11,2.9551,2.4647,0.40584,0,0,0,0
543.61,2.9591,2.4603,0.40788,0,0,0,0
544.11,2.963,2.4557,0.40981,0,0,0,0
544.61,2.9666,2.4513,0.41178,0,0,0,0
545.11,2.97,2.447,0.4138,0,0,0,0
545.61,2.9738,2.4424,0.4158,0,0,0,0
546.11,2.9774,2.4373,0.41795,0,0,0,0
546.61,2.981,2.4323,0.42024,0,0,0,0
547.11,2.9848,2.4277,0.42219,0,0,0,0
547.61,2.9886,2.423,0.42424,0,0,0,0
548.11,2.9924,2.418,0.42658,0,0,0,0
548.61,2.9965,2.4127,0.42881,0,0,0,0
549.11,3.0003,2.4073,0.43105,0,0,0,0
549.61,3.004,2.402,0.43319,0,0,0,0
550.11,3.0077,2.3964,0.43519,0,0,0,0
550.61,3.0114,2.39,0.43729,0,0,0,0
551.11,3.015,2.3833,0.44486,0,0,0,0
551.61,3.0188,2.3773,0.44826,0,0,0,0
552.11,3.0229,2.3711,0.45109,0,0,0,0
552.61,3.0273,2.3646,0.45366,0,0,0,0
553.11,3.0309,2.3571,0.45636,0,0,0,0
553.61,3.0349,2.3493,0.45911,0,0,0,0
554.11,3.0393,2.3407,0.46186,0,0,0,0