File: polyN_optimization/results_exp/AA6014-T4/NT6_45_2.csv
Time[s],Displacement[mm],Force[kN],AxStrain_1,AxStrain_2,Thickness[mm],OuterWidth[mm],InnerWidth[mm]
0.63,0,-0.0050833,0,0,1.1187,20,10
1.13,0.000184,0.0016718,-6.9002e-05,0,0,0,0
1.63,0.000519,0.0098673,-1.7e-05,0,0,0,0
2.13,0.001095,0.031004,2.5e-05,0,0,0,0
2.63,0.001696,0.05771,0.00012399,0,0,0,0
3.13,0.001937,0.084432,1.8e-05,0,0,0,0
3.63,0.002253,0.10613,1.2e-05,0,0,0,0
4.13,0.002604,0.12372,0.00019498,0,0,0,0
4.63,0.002675,0.139,1.7e-05,0,0,0,0
5.13,0.002934,0.15571,0.00016699,0,0,0,0
5.63,0.003215,0.17343,7.5997e-05,0,0,0,0
6.13,0.003752,0.19185,0.00013299,0,0,0,0
6.63,0.003925,0.21057,0.00018298,0,0,0,0
7.13,0.004215,0.22671,6.5998e-05,0,0,0,0
7.63,0.00401,0.23914,-4.8001e-05,0,0,0,0
8.13,0.004485,0.24829,-6.9002e-05,0,0,0,0
8.63,0.004799,0.25872,3.8999e-05,0,0,0,0
9.13,0.00498,0.27114,6.2998e-05,0,0,0,0
9.63,0.005276,0.28429,0.00012299,0,0,0,0
10.13,0.00557,0.29786,-0.00018902,0,0,0,0
10.63,0.005763,0.31214,2.5e-05,0,0,0,0
11.13,0.006063,0.32715,-4.4001e-05,0,0,0,0
11.63,0.006602,0.34185,2e-05,0,0,0,0
12.13,0.006798,0.35571,1.2e-05,0,0,0,0
12.63,0.007584,0.36915,0.00010399,0,0,0,0
13.13,0.007779,0.38429,0.00017099,0,0,0,0
13.63,0.007888,0.39957,-4.4001e-05,0,0,0,0
14.13,0.008187,0.41386,1.7e-05,0,0,0,0
14.63,0.008382,0.42857,0.00014399,0,0,0,0
15.13,0.00842,0.44385,0.00024797,0,0,0,0
15.63,0.008913,0.45915,0.00019798,0,0,0,0
16.13,0.00889,0.47443,0.00026896,0,0,0,0
16.63,0.009414,0.49057,0.00015399,0,0,0,0
17.13,0.009444,0.50614,0.00027896,0,0,0,0
17.63,0.009769,0.52215,0.00023497,0,0,0,0
18.13,0.009971,0.53785,0.00023797,0,0,0,0
18.63,0.010454,0.553,0.00014799,0,0,0,0
19.13,0.010585,0.56786,0.00014799,0,0,0,0
19.63,0.011089,0.58343,0.00019498,0,0,0,0
20.13,0.011421,0.59957,0.00015399,0,0,0,0
20.63,0.011623,0.61543,0.00022797,0,0,0,0
21.13,0.012022,0.63071,0.00030895,0,0,0,0
21.63,0.012579,0.64615,0.00033594,0,0,0,0
22.13,0.012878,0.663,0.00016799,0,0,0,0
22.63,0.013509,0.67985,0.00021798,0,0,0,0
23.13,0.01409,0.69529,0.00025197,0,0,0,0
23.63,0.014621,0.71086,0.00028896,0,0,0,0
24.13,0.015185,0.72714,0.00031895,0,0,0,0
24.63,0.015551,0.74386,0.00047689,0,0,0,0
25.13,0.015631,0.75985,0.00048988,0,0,0,0
25.63,0.016326,0.77615,0.00023197,0,0,0,0
26.13,0.016467,0.79185,0.00038293,0,0,0,0
26.63,0.016927,0.80815,0.00034194,0,0,0,0
27.13,0.017051,0.82385,0.00059382,0,0,0,0
27.63,0.017283,0.83929,0.00046289,0,0,0,0
28.13,0.017555,0.85457,0.00055085,0,0,0,0
28.63,0.01737,0.87014,0.00040592,0,0,0,0
29.13,0.018169,0.88615,0.00052386,0,0,0,0
29.63,0.018347,0.90185,0.00042591,0,0,0,0
30.13,0.018737,0.91786,0.00058383,0,0,0,0
30.63,0.019237,0.93343,0.00058083,0,0,0,0
31.13,0.019442,0.94957,0.00041591,0,0,0,0
31.63,0.019462,0.96514,0.00052386,0,0,0,0
32.13,0.020412,0.98029,0.00059382,0,0,0,0
32.63,0.020852,0.99557,0.00046689,0,0,0,0
33.13,0.021224,1.0111,0.00050987,0,0,0,0
33.63,0.021913,1.0271,0.00067077,0,0,0,0
34.13,0.022426,1.0429,0.00061381,0,0,0,0
34.63,0.022668,1.0589,0.00064779,0,0,0,0
35.13,0.023497,1.0741,0.00058783,0,0,0,0
35.63,0.024098,1.0899,0.00079568,0,0,0,0
36.13,0.024219,1.1051,0.00079169,0,0,0,0
36.63,0.024665,1.1197,0.00058783,0,0,0,0
37.13,0.024491,1.1341,0.0006378,0,0,0,0
37.63,0.025407,1.1491,0.00062381,0,0,0,0
38.13,0.026196,1.1649,0.0007757,0,0,0,0
38.63,0.026445,1.1799,0.00080168,0,0,0,0
39.13,0.026784,1.1951,0.00068477,0,0,0,0
39.63,0.026787,1.2099,0.00072474,0,0,0,0
40.13,0.027761,1.2249,0.00075472,0,0,0,0
40.63,0.028056,1.2391,0.00087562,0,0,0,0
41.13,0.028409,1.253,0.00081567,0,0,0,0
41.63,0.029369,1.2666,0.00068776,0,0,0,0
42.13,0.02958,1.2804,0.00085563,0,0,0,0
42.63,0.030668,1.2949,0.00086263,0,0,0,0
43.13,0.031289,1.3089,0.0010065,0,0,0,0
43.63,0.032122,1.3226,0.0010305,0,0,0,0
44.13,0.033038,1.3349,0.0012213,0,0,0,0
44.63,0.033952,1.3469,0.0014559,0,0,0,0
45.13,0.034851,1.3579,0.0015837,0,0,0,0
45.63,0.036335,1.368,0.0017714,0,0,0,0
46.13,0.037366,1.3776,0.0022634,0,0,0,0
46.63,0.038537,1.3871,0.0024041,0,0,0,0
47.13,0.040072,1.3966,0.0027991,0,0,0,0
47.63,0.041498,1.4054,0.0032208,0,0,0,0
48.13,0.042986,1.4143,0.0033952,0,0,0,0
48.63,0.044799,1.4227,0.0035856,0,0,0,0
49.13,0.046578,1.4313,0.0038137,0,0,0,0
49.63,0.04875,1.4394,0.0040837,0,0,0,0
50.13,0.050039,1.447,0.0041713,0,0,0,0
50.63,0.052131,1.4543,0.0043416,0,0,0,0
51.13,0.054434,1.4617,0.0044849,0,0,0,0
51.63,0.056351,1.4693,0.0049059,0,0,0,0
52.13,0.058211,1.4767,0.0050502,0,0,0,0
52.63,0.059983,1.484,0.0051636,0,0,0,0
53.13,0.061967,1.4907,0.0054302,0,0,0,0
53.63,0.063579,1.4976,0.0059383,0,0,0,0
54.13,0.065512,1.5044,0.0061451,0,0,0,0
54.63,0.067517,1.511,0.0064521,0,0,0,0
55.13,0.069904,1.5173,0.0066687,0,0,0,0
55.63,0.071804,1.5234,0.0071722,0,0,0,0
56.13,0.074218,1.5296,0.0075822,0,0,0,0
56.63,0.076393,1.5357,0.0079622,0,0,0,0
57.13,0.078454,1.5423,0.0082519,0,0,0,0
57.63,0.080922,1.5484,0.008355,0,0,0,0
58.13,0.082846,1.5546,0.0086207,0,0,0,0
58.63,0.084883,1.5604,0.0086049,0,0,0,0
59.13,0.087072,1.566,0.0088537,0,0,0,0
59.63,0.088926,1.5713,0.0090569,0,0,0,0
60.13,0.091041,1.5767,0.0090668,0,0,0,0
60.63,0.09333,1.5823,0.0090836,0,0,0,0
61.13,0.095848,1.5877,0.0092798,0,0,0,0
61.63,0.09746,1.5936,0.0095691,0,0,0,0
62.13,0.099961,1.5991,0.0096424,0,0,0,0
62.63,0.10241,1.6046,0.0098681,0,0,0,0
63.13,0.1048,1.6097,0.010071,0,0,0,0
63.63,0.10722,1.615,0.010324,0,0,0,0
64.13,0.10952,1.62,0.010629,0,0,0,0
64.63,0.11154,1.625,0.011011,0,0,0,0
65.13,0.11395,1.6303,0.011244,0,0,0,0
65.63,0.11613,1.6354,0.011702,0,0,0,0
66.13,0.11838,1.6406,0.01213,0,0,0,0
66.63,0.12029,1.6454,0.012316,0,0,0,0
67.13,0.12262,1.6506,0.012514,0,0,0,0
67.63,0.12514,1.6554,0.012909,0,0,0,0
68.13,0.12777,1.66,0.013032,0,0,0,0
68.63,0.13006,1.6646,0.013158,0,0,0,0
69.13,0.13275,1.6694,0.013334,0,0,0,0
69.63,0.13496,1.6743,0.013463,0,0,0,0
70.13,0.13783,1.6787,0.013559,0,0,0,0
70.63,0.14034,1.6836,0.013767,0,0,0,0
71.13,0.14295,1.6884,0.013695,0,0,0,0
71.63,0.1449,1.6933,0.013936,0,0,0,0
72.13,0.14688,1.6977,0.014029,0,0,0,0
72.63,0.14919,1.702,0.014287,0,0,0,0
73.13,0.15152,1.7063,0.014426,0,0,0,0
73.63,0.15391,1.7107,0.014502,0,0,0,0
74.13,0.15651,1.7153,0.01489,0,0,0,0
74.63,0.1592,1.7197,0.015193,0,0,0,0
75.13,0.16159,1.7243,0.015455,0,0,0,0
75.63,0.16466,1.7287,0.015954,0,0,0,0
76.13,0.16684,1.7333,0.016264,0,0,0,0
76.63,0.1696,1.7374,0.016551,0,0,0,0
77.13,0.17141,1.7413,0.016726,0,0,0,0
77.63,0.17378,1.7453,0.016915,0,0,0,0
78.13,0.17631,1.7497,0.017183,0,0,0,0
78.63,0.17891,1.754,0.017377,0,0,0,0
79.13,0.18136,1.758,0.017548,0,0,0,0
79.63,0.18376,1.762,0.017688,0,0,0,0
80.13,0.18634,1.766,0.017915,0,0,0,0
80.63,0.18901,1.7703,0.017849,0,0,0,0
81.13,0.19321,1.7747,0.018053,0,0,0,0
81.63,0.19509,1.7787,0.018136,0,0,0,0
82.13,0.19744,1.7826,0.018264,0,0,0,0
82.63,0.20005,1.7864,0.018235,0,0,0,0
83.13,0.20194,1.7906,0.018548,0,0,0,0
83.63,0.20446,1.7944,0.018782,0,0,0,0
84.13,0.20712,1.7986,0.019164,0,0,0,0
84.63,0.20955,1.8024,0.01948,0,0,0,0
85.13,0.21213,1.8066,0.019684,0,0,0,0
85.63,0.21499,1.8104,0.020115,0,0,0,0
86.13,0.21791,1.8143,0.020395,0,0,0,0
86.63,0.22076,1.818,0.020445,0,0,0,0
87.13,0.22331,1.8217,0.020786,0,0,0,0
87.63,0.22595,1.8256,0.020994,0,0,0,0
88.13,0.22856,1.8294,0.021063,0,0,0,0
88.63,0.23107,1.833,0.021438,0,0,0,0
89.13,0.23357,1.8366,0.021562,0,0,0,0
89.63,0.23603,1.8407,0.021637,0,0,0,0
90.13,0.23851,1.8447,0.021946,0,0,0,0
90.63,0.24103,1.848,0.022065,0,0,0,0
91.13,0.24382,1.8516,0.022157,0,0,0,0
91.63,0.24668,1.8554,0.022272,0,0,0,0
92.13,0.24941,1.8593,0.022423,0,0,0,0
92.63,0.25217,1.8627,0.022722,0,0,0,0
93.13,0.255,1.8663,0.022728,0,0,0,0
93.63,0.25772,1.87,0.023112,0,0,0,0
94.13,0.25999,1.874,0.023375,0,0,0,0
94.63,0.26262,1.8777,0.023551,0,0,0,0
95.13,0.26522,1.881,0.02387,0,0,0,0
95.63,0.26789,1.884,0.024131,0,0,0,0
96.13,0.27042,1.8873,0.024335,0,0,0,0
96.63,0.27314,1.891,0.024493,0,0,0,0
97.13,0.27605,1.8947,0.02481,0,0,0,0
97.63,0.27871,1.8983,0.024846,0,0,0,0
98.13,0.28153,1.9017,0.025082,0,0,0,0
98.63,0.28431,1.905,0.025314,0,0,0,0
99.13,0.28699,1.908,0.025508,0,0,0,0
99.63,0.28955,1.9113,0.025672,0,0,0,0
100.13,0.29196,1.915,0.025701,0,0,0,0
100.63,0.2946,1.9187,0.025982,0,0,0,0
101.13,0.2972,1.922,0.026139,0,0,0,0
101.63,0.29985,1.925,0.026485,0,0,0,0
102.13,0.30249,1.9283,0.026672,0,0,0,0
102.63,0.30531,1.9317,0.026884,0,0,0,0
103.13,0.30829,1.935,0.02728,0,0,0,0
103.63,0.31098,1.938,0.027214,0,0,0,0
104.13,0.31382,1.941,0.02746,0,0,0,0
104.63,0.31656,1.9443,0.027783,0,0,0,0
105.13,0.31909,1.9477,0.027989,0,0,0,0
105.63,0.32157,1.951,0.02821,0,0,0,0
106.13,0.32406,1.954,0.028145,0,0,0,0
106.63,0.32667,1.9573,0.028517,0,0,0,0
107.13,0.32947,1.9607,0.028723,0,0,0,0
107.63,0.33202,1.964,0.028642,0,0,0,0
108.13,0.3347,1.967,0.028941,0,0,0,0
108.63,0.33772,1.9697,0.029205,0,0,0,0
109.13,0.34058,1.9726,0.029379,0,0,0,0
109.63,0.34337,1.9757,0.029743,0,0,0,0
110.13,0.34608,1.979,0.02993,0,0,0,0
110.63,0.34866,1.982,0.030096,0,0,0,0
111.13,0.3514,1.985,0.030174,0,0,0,0
111.63,0.35391,1.988,0.030545,0,0,0,0
112.13,0.35626,1.991,0.030705,0,0,0,0
112.63,0.3591,1.994,0.030978,0,0,0,0
113.13,0.36183,1.997,0.031109,0,0,0,0
113.63,0.36485,2,0.031529,0,0,0,0
114.13,0.36774,2.003,0.031659,0,0,0,0
114.63,0.37069,2.006,0.031788,0,0,0,0
115.13,0.37372,2.009,0.031951,0,0,0,0
115.63,0.37629,2.012,0.032309,0,0,0,0
116.13,0.37889,2.0147,0.032602,0,0,0,0
116.63,0.38148,2.0176,0.032537,0,0,0,0
117.13,0.38394,2.0204,0.03257,0,0,0,0
117.63,0.38674,2.0233,0.032796,0,0,0,0
118.13,0.38935,2.026,0.032992,0,0,0,0
118.63,0.39211,2.029,0.033284,0,0,0,0
119.13,0.39485,2.032,0.033349,0,0,0,0
119.63,0.39768,2.035,0.033642,0,0,0,0
120.13,0.40098,2.038,0.033901,0,0,0,0
120.63,0.4037,2.0407,0.034161,0,0,0,0
121.13,0.40626,2.0433,0.034388,0,0,0,0
121.63,0.40923,2.046,0.034615,0,0,0,0
122.13,0.41179,2.0487,0.034874,0,0,0,0
122.63,0.41453,2.0513,0.035069,0,0,0,0
123.13,0.41682,2.054,0.035328,0,0,0,0
123.63,0.41923,2.057,0.035393,0,0,0,0
124.13,0.42272,2.06,0.035879,0,0,0,0
124.63,0.42547,2.0627,0.035749,0,0,0,0
125.13,0.4285,2.0653,0.036105,0,0,0,0
125.63,0.43151,2.068,0.03617,0,0,0,0
126.13,0.43435,2.071,0.036397,0,0,0,0
126.63,0.43716,2.0737,0.036591,0,0,0,0
127.13,0.44007,2.0763,0.036785,0,0,0,0
127.63,0.44262,2.0787,0.037012,0,0,0,0
128.13,0.44529,2.0813,0.037012,0,0,0,0
128.63,0.44776,2.084,0.037239,0,0,0,0
129.13,0.45051,2.087,0.0374,0,0,0,0
129.63,0.45342,2.0897,0.037659,0,0,0,0
130.13,0.45609,2.0923,0.037982,0,0,0,0
130.63,0.4593,2.0947,0.038435,0,0,0,0
131.13,0.46215,2.097,0.038531,0,0,0,0
131.63,0.46512,2.0993,0.038823,0,0,0,0
132.13,0.46801,2.1017,0.038983,0,0,0,0
132.63,0.47065,2.1043,0.039113,0,0,0,0
133.13,0.47336,2.107,0.039435,0,0,0,0
133.63,0.47601,2.11,0.039565,0,0,0,0
134.13,0.47883,2.1127,0.039758,0,0,0,0
134.63,0.48164,2.1153,0.039726,0,0,0,0
135.13,0.4842,2.1177,0.040114,0,0,0,0
135.63,0.48728,2.12,0.040371,0,0,0,0
136.13,0.49028,2.1223,0.040823,0,0,0,0
136.63,0.49322,2.1247,0.040661,0,0,0,0
137.13,0.49636,2.1273,0.041145,0,0,0,0
137.63,0.49883,2.13,0.041209,0,0,0,0
138.13,0.5021,2.1327,0.041436,0,0,0,0
138.63,0.50475,2.135,0.041661,0,0,0,0
139.13,0.50741,2.1373,0.041919,0,0,0,0
139.63,0.51,2.1397,0.041982,0,0,0,0
140.13,0.51328,2.142,0.042434,0,0,0,0
140.63,0.51545,2.1443,0.042594,0,0,0,0
141.13,0.51867,2.1467,0.042594,0,0,0,0
141.63,0.522,2.1493,0.042916,0,0,0,0
142.13,0.52472,2.1517,0.043077,0,0,0,0
142.63,0.52748,2.154,0.043173,0,0,0,0
143.13,0.53073,2.1563,0.043495,0,0,0,0
143.63,0.53358,2.1587,0.043656,0,0,0,0
144.13,0.53629,2.161,0.043848,0,0,0,0
144.63,0.53884,2.163,0.044073,0,0,0,0
145.13,0.54159,2.1653,0.044202,0,0,0,0
145.63,0.54428,2.1677,0.044459,0,0,0,0
146.13,0.54734,2.1703,0.04462,0,0,0,0
146.63,0.55026,2.1727,0.044877,0,0,0,0
147.13,0.55323,2.175,0.045101,0,0,0,0
147.63,0.55648,2.177,0.045519,0,0,0,0
148.13,0.55946,2.1793,0.045775,0,0,0,0
148.63,0.56212,2.1817,0.045936,0,0,0,0
149.13,0.56482,2.184,0.046097,0,0,0,0
149.63,0.56768,2.186,0.046448,0,0,0,0
150.13,0.5705,2.1883,0.046674,0,0,0,0
150.63,0.57317,2.1907,0.046769,0,0,0,0
151.13,0.57603,2.193,0.047057,0,0,0,0
151.63,0.57906,2.195,0.047154,0,0,0,0
152.13,0.58181,2.197,0.047346,0,0,0,0
152.63,0.58509,2.1993,0.047634,0,0,0,0
153.13,0.588,2.2017,0.047826,0,0,0,0
153.63,0.59107,2.204,0.047922,0,0,0,0
154.13,0.59394,2.206,0.04805,0,0,0,0
154.63,0.5967,2.208,0.048339,0,0,0,0
155.13,0.59948,2.21,0.048434,0,0,0,0
155.63,0.60226,2.2123,0.048786,0,0,0,0
156.13,0.60513,2.2147,0.04901,0,0,0,0
156.63,0.60811,2.217,0.049234,0,0,0,0
157.13,0.61104,2.219,0.049585,0,0,0,0
157.63,0.61399,2.221,0.049681,0,0,0,0
158.13,0.61686,2.223,0.049905,0,0,0,0
158.63,0.62019,2.225,0.05032,0,0,0,0
159.13,0.62314,2.227,0.050544,0,0,0,0
159.63,0.62604,2.229,0.050958,0,0,0,0
160.13,0.62862,2.2313,0.050958,0,0,0,0
160.63,0.63152,2.2337,0.051119,0,0,0,0
161.13,0.63442,2.236,0.051278,0,0,0,0
161.63,0.63735,2.238,0.051565,0,0,0,0
162.13,0.64019,2.24,0.051883,0,0,0,0
162.63,0.64314,2.242,0.051979,0,0,0,0
163.13,0.64633,2.244,0.052075,0,0,0,0
163.63,0.64947,2.246,0.052267,0,0,0,0
164.13,0.65244,2.248,0.052489,0,0,0,0
164.63,0.65554,2.25,0.052554,0,0,0,0
165.13,0.65834,2.252,0.052872,0,0,0,0
165.63,0.66122,2.254,0.05319,0,0,0,0
166.13,0.66411,2.256,0.053317,0,0,0,0
166.63,0.6668,2.258,0.053445,0,0,0,0
167.13,0.66954,2.2597,0.053795,0,0,0,0
167.63,0.67247,2.2616,0.05405,0,0,0,0
168.13,0.67549,2.2634,0.054431,0,0,0,0
168.63,0.67864,2.2653,0.054527,0,0,0,0
169.13,0.68172,2.2673,0.05494,0,0,0,0
169.63,0.68446,2.2697,0.055194,0,0,0,0
170.13,0.68758,2.2717,0.055543,0,0,0,0
170.63,0.69033,2.2736,0.055576,0,0,0,0
171.13,0.69325,2.2754,0.055893,0,0,0,0
171.63,0.69587,2.2773,0.055988,0,0,0,0
172.13,0.69872,2.279,0.056274,0,0,0,0
172.63,0.70179,2.281,0.05637,0,0,0,0
173.13,0.70469,2.283,0.056623,0,0,0,0
173.63,0.70762,2.285,0.056909,0,0,0,0
174.13,0.7107,2.2867,0.056909,0,0,0,0
174.63,0.71379,2.2883,0.057036,0,0,0,0
175.13,0.71688,2.29,0.057289,0,0,0,0
175.63,0.71978,2.292,0.057417,0,0,0,0
176.13,0.72271,2.294,0.057828,0,0,0,0
176.63,0.72552,2.2957,0.057955,0,0,0,0
177.13,0.72817,2.2973,0.058145,0,0,0,0
177.63,0.73089,2.299,0.058462,0,0,0,0
178.13,0.73386,2.301,0.058779,0,0,0,0
178.63,0.73681,2.303,0.059126,0,0,0,0
179.13,0.73989,2.3047,0.059349,0,0,0,0
179.63,0.74298,2.3066,0.059507,0,0,0,0
180.13,0.74601,2.3084,0.059791,0,0,0,0
180.63,0.74914,2.3103,0.060046,0,0,0,0
181.13,0.75223,2.312,0.060109,0,0,0,0
181.63,0.75482,2.3137,0.060583,0,0,0,0
182.13,0.75766,2.3153,0.060898,0,0,0,0
182.63,0.76045,2.3173,0.060867,0,0,0,0
183.13,0.76322,2.3194,0.061184,0,0,0,0
183.63,0.76616,2.321,0.061247,0,0,0,0
184.13,0.7692,2.3223,0.061467,0,0,0,0
184.63,0.77205,2.324,0.061562,0,0,0,0
185.13,0.77524,2.326,0.061878,0,0,0,0
185.63,0.77826,2.328,0.062066,0,0,0,0
186.13,0.78135,2.3297,0.062129,0,0,0,0
186.63,0.78434,2.3313,0.062288,0,0,0,0
187.13,0.78701,2.3327,0.06273,0,0,0,0
187.63,0.78985,2.3343,0.062981,0,0,0,0
188.13,0.79261,2.336,0.063076,0,0,0,0
188.63,0.79552,2.338,0.063518,0,0,0,0
189.13,0.79837,2.34,0.063738,0,0,0,0
189.63,0.80143,2.3417,0.064085,0,0,0,0
190.13,0.80438,2.3433,0.064243,0,0,0,0
190.63,0.80739,2.3447,0.064589,0,0,0,0
191.13,0.81061,2.3463,0.064809,0,0,0,0
191.63,0.81349,2.348,0.065093,0,0,0,0
192.13,0.81644,2.3497,0.065155,0,0,0,0
192.63,0.81923,2.3513,0.06547,0,0,0,0
193.13,0.82199,2.353,0.065721,0,0,0,0
193.63,0.82497,2.3547,0.065785,0,0,0,0
194.13,0.82761,2.356,0.066036,0,0,0,0
194.63,0.83054,2.3576,0.066194,0,0,0,0
195.13,0.83367,2.3594,0.066508,0,0,0,0
195.63,0.83674,2.3613,0.066634,0,0,0,0
196.13,0.83986,2.3627,0.066854,0,0,0,0
196.63,0.84312,2.3643,0.067072,0,0,0,0
197.13,0.84602,2.3657,0.067135,0,0,0,0
197.63,0.84886,2.3673,0.067545,0,0,0,0
198.13,0.85183,2.369,0.067795,0,0,0,0
198.63,0.85452,2.3707,0.067951,0,0,0,0
199.13,0.85754,2.3723,0.068077,0,0,0,0
199.63,0.86038,2.3737,0.068548,0,0,0,0
200.13,0.86342,2.3753,0.068736,0,0,0,0
200.63,0.86629,2.3767,0.069049,0,0,0,0
201.13,0.86967,2.3783,0.069456,0,0,0,0
201.63,0.87275,2.3797,0.069614,0,0,0,0
202.13,0.87574,2.3813,0.069895,0,0,0,0
202.63,0.87861,2.3827,0.070177,0,0,0,0
203.13,0.88157,2.3843,0.070427,0,0,0,0
203.63,0.88441,2.386,0.070678,0,0,0,0
204.13,0.88718,2.3877,0.070896,0,0,0,0
204.63,0.89009,2.3893,0.071084,0,0,0,0
205.13,0.89292,2.3907,0.071365,0,0,0,0
205.63,0.89609,2.3923,0.071647,0,0,0,0
206.13,0.89915,2.3937,0.071741,0,0,0,0
206.63,0.90235,2.3953,0.071928,0,0,0,0
207.13,0.90556,2.3967,0.072271,0,0,0,0
207.63,0.90848,2.3983,0.072271,0,0,0,0
208.13,0.91138,2.3997,0.072523,0,0,0,0
208.63,0.91438,2.401,0.072834,0,0,0,0
209.13,0.91703,2.4023,0.073116,0,0,0,0
209.63,0.92001,2.404,0.073272,0,0,0,0
210.13,0.9229,2.4057,0.073583,0,0,0,0
210.63,0.92592,2.407,0.073802,0,0,0,0
211.13,0.92887,2.4083,0.074084,0,0,0,0
211.63,0.9322,2.4097,0.074426,0,0,0,0
212.13,0.93523,2.4113,0.074644,0,0,0,0
212.63,0.93834,2.4127,0.075144,0,0,0,0
213.13,0.94125,2.4143,0.075173,0,0,0,0
213.63,0.94438,2.4157,0.075578,0,0,0,0
214.13,0.94702,2.4173,0.075889,0,0,0,0
214.63,0.94993,2.4187,0.076138,0,0,0,0
215.13,0.9528,2.42,0.076387,0,0,0,0
215.63,0.95572,2.4213,0.076542,0,0,0,0
216.13,0.95876,2.4227,0.076885,0,0,0,0
216.63,0.96189,2.4243,0.076979,0,0,0,0
217.13,0.96505,2.4257,0.07732,0,0,0,0
217.63,0.96794,2.427,0.077445,0,0,0,0
218.13,0.97103,2.4283,0.077692,0,0,0,0
218.63,0.97391,2.4297,0.077879,0,0,0,0
219.13,0.97694,2.4313,0.078159,0,0,0,0
219.63,0.97993,2.4327,0.078314,0,0,0,0
220.13,0.98279,2.4343,0.078625,0,0,0,0
220.63,0.98579,2.4357,0.07906,0,0,0,0
221.13,0.98864,2.437,0.079153,0,0,0,0
221.63,0.99154,2.4383,0.079463,0,0,0,0
222.13,0.99497,2.4397,0.079743,0,0,0,0
222.63,0.99804,2.4413,0.080083,0,0,0,0
223.13,1.0011,2.4427,0.080394,0,0,0,0
223.63,1.004,2.444,0.08061,0,0,0,0
224.13,1.0072,2.445,0.081012,0,0,0,0
224.63,1.0104,2.4463,0.081353,0,0,0,0
225.13,1.013,2.4477,0.081632,0,0,0,0
225.63,1.0158,2.449,0.081849,0,0,0,0
226.13,1.0186,2.45,0.082126,0,0,0,0
226.63,1.0216,2.4513,0.082467,0,0,0,0
227.13,1.0247,2.4527,0.082653,0,0,0,0
227.63,1.0278,2.4543,0.082869,0,0,0,0
228.13,1.031,2.4557,0.083054,0,0,0,0
228.63,1.0341,2.457,0.083271,0,0,0,0
229.13,1.0372,2.458,0.083549,0,0,0,0
229.63,1.04,2.4593,0.08395,0,0,0,0
230.13,1.0429,2.4607,0.083919,0,0,0,0
230.63,1.046,2.4623,0.08429,0,0,0,0
231.13,1.0488,2.4637,0.084631,0,0,0,0
231.63,1.0517,2.465,0.084816,0,0,0,0
232.13,1.0547,2.466,0.085216,0,0,0,0
232.63,1.058,2.467,0.085711,0,0,0,0
233.13,1.0613,2.468,0.085987,0,0,0,0
233.63,1.0643,2.4693,0.086325,0,0,0,0
234.13,1.0675,2.4707,0.086389,0,0,0,0
234.63,1.0705,2.472,0.086695,0,0,0,0
235.13,1.0735,2.4733,0.087003,0,0,0,0
235.63,1.076,2.4747,0.087342,0,0,0,0
236.13,1.079,2.476,0.087557,0,0,0,0
236.63,1.0819,2.4773,0.087957,0,0,0,0
237.13,1.0848,2.4787,0.088203,0,0,0,0
237.63,1.088,2.48,0.088449,0,0,0,0
238.13,1.0912,2.481,0.088542,0,0,0,0
238.63,1.0945,2.482,0.089095,0,0,0,0
239.13,1.0976,2.483,0.089341,0,0,0,0
239.63,1.1006,2.4843,0.089586,0,0,0,0
240.13,1.1035,2.4857,0.089924,0,0,0,0
240.63,1.1065,2.487,0.090016,0,0,0,0
241.13,1.1094,2.488,0.090262,0,0,0,0
241.63,1.1125,2.4893,0.090784,0,0,0,0
242.13,1.1151,2.4907,0.090936,0,0,0,0
242.63,1.1181,2.492,0.091274,0,0,0,0
243.13,1.1214,2.493,0.091704,0,0,0,0
243.63,1.1246,2.494,0.092039,0,0,0,0
244.13,1.1279,2.495,0.092254,0,0,0,0
244.63,1.131,2.496,0.092377,0,0,0,0
245.13,1.134,2.4973,0.092714,0,0,0,0
245.63,1.1371,2.4987,0.092927,0,0,0,0
246.13,1.1399,2.5,0.093234,0,0,0,0
246.63,1.1428,2.501,0.093448,0,0,0,0
247.13,1.1456,2.502,0.093938,0,0,0,0
247.63,1.1484,2.503,0.094181,0,0,0,0
248.13,1.1518,2.5043,0.094518,0,0,0,0
248.63,1.1546,2.5057,0.094792,0,0,0,0
249.13,1.1579,2.507,0.095006,0,0,0,0
249.63,1.1611,2.508,0.095403,0,0,0,0
250.13,1.1642,2.509,0.095708,0,0,0,0
250.63,1.167,2.51,0.096014,0,0,0,0
251.13,1.17,2.511,0.09641,0,0,0,0
251.63,1.1728,2.512,0.096806,0,0,0,0
252.13,1.1757,2.513,0.096837,0,0,0,0
252.63,1.1786,2.514,0.097203,0,0,0,0
253.13,1.1816,2.5153,0.097509,0,0,0,0
253.63,1.1846,2.5167,0.097783,0,0,0,0
254.13,1.1879,2.518,0.098116,0,0,0,0
254.63,1.191,2.519,0.098361,0,0,0,0
255.13,1.1941,2.52,0.098695,0,0,0,0
255.63,1.1971,2.521,0.098969,0,0,0,0
256.13,1.2001,2.522,0.099151,0,0,0,0
256.63,1.2028,2.523,0.099486,0,0,0,0
257.13,1.2058,2.524,0.10003,0,0,0,0
257.63,1.2085,2.525,0.10018,0,0,0,0
258.13,1.2117,2.526,0.10055,0,0,0,0
258.63,1.2147,2.527,0.10097,0,0,0,0
259.13,1.2179,2.5283,0.10125,0,0,0,0
259.63,1.2211,2.5294,0.10161,0,0,0,0
260.13,1.2243,2.5303,0.1021,0,0,0,0
260.63,1.2274,2.531,0.10231,0,0,0,0
261.13,1.2303,2.5323,0.10246,0,0,0,0
261.63,1.233,2.5334,0.10285,0,0,0,0
262.13,1.236,2.5343,0.10313,0,0,0,0
262.63,1.2388,2.535,0.10337,0,0,0,0
263.13,1.2415,2.536,0.10376,0,0,0,0
263.63,1.2445,2.5373,0.10391,0,0,0,0
264.13,1.2476,2.5387,0.10431,0,0,0,0
264.63,1.2508,2.54,0.10464,0,0,0,0
265.13,1.2539,2.541,0.10491,0,0,0,0
265.63,1.2571,2.542,0.10528,0,0,0,0
266.13,1.2605,2.5427,0.10585,0,0,0,0
266.63,1.2629,2.5433,0.10585,0,0,0,0
267.13,1.2655,2.544,0.10639,0,0,0,0
267.63,1.269,2.545,0.10661,0,0,0,0
268.13,1.2719,2.546,0.10709,0,0,0,0
268.63,1.2748,2.547,0.10736,0,0,0,0
269.13,1.278,2.548,0.10772,0,0,0,0
269.63,1.2807,2.549,0.10796,0,0,0,0
270.13,1.2841,2.55,0.10845,0,0,0,0
270.63,1.2875,2.551,0.10869,0,0,0,0
271.13,1.2906,2.552,0.10893,0,0,0,0
271.63,1.2933,2.553,0.10917,0,0,0,0
272.13,1.2964,2.554,0.10974,0,0,0,0
272.63,1.2993,2.555,0.1101,0,0,0,0
273.13,1.3022,2.556,0.11037,0,0,0,0
273.63,1.3051,2.557,0.11064,0,0,0,0
274.13,1.3081,2.558,0.11082,0,0,0,0
274.63,1.311,2.559,0.11115,0,0,0,0
275.13,1.3142,2.56,0.11164,0,0,0,0
275.63,1.3175,2.561,0.11203,0,0,0,0
276.13,1.3205,2.5617,0.11254,0,0,0,0
276.63,1.3239,2.5626,0.11275,0,0,0,0
277.13,1.3267,2.5634,0.11317,0,0,0,0
277.63,1.3294,2.5643,0.11365,0,0,0,0
278.13,1.3324,2.565,0.11373,0,0,0,0
278.63,1.3355,2.566,0.11427,0,0,0,0
279.13,1.3383,2.567,0.11436,0,0,0,0
279.63,1.3412,2.568,0.11487,0,0,0,0
280.13,1.3444,2.5687,0.11502,0,0,0,0
280.63,1.3476,2.5696,0.11556,0,0,0,0
281.13,1.3509,2.5704,0.11589,0,0,0,0
281.63,1.3541,2.5713,0.11604,0,0,0,0
282.13,1.357,2.572,0.11649,0,0,0,0
282.63,1.3601,2.573,0.11688,0,0,0,0
283.13,1.363,2.574,0.11726,0,0,0,0
283.63,1.3658,2.575,0.11753,0,0,0,0
284.13,1.3689,2.5757,0.11798,0,0,0,0
284.63,1.372,2.5763,0.11846,0,0,0,0
285.13,1.375,2.577,0.11885,0,0,0,0
285.63,1.378,2.578,0.11923,0,0,0,0
286.13,1.3815,2.579,0.11968,0,0,0,0
286.63,1.3846,2.58,0.11998,0,0,0,0
287.13,1.3876,2.5807,0.12025,0,0,0,0
287.63,1.3906,2.5813,0.12075,0,0,0,0
288.13,1.3936,2.582,0.12099,0,0,0,0
288.63,1.3965,2.583,0.12129,0,0,0,0
289.13,1.3996,2.584,0.12168,0,0,0,0
289.63,1.4023,2.585,0.12197,0,0,0,0
290.13,1.4055,2.586,0.12239,0,0,0,0
290.63,1.4085,2.5867,0.12263,0,0,0,0
291.13,1.4118,2.5873,0.12316,0,0,0,0
291.63,1.4149,2.588,0.1234,0,0,0,0
292.13,1.418,2.589,0.1239,0,0,0,0
292.63,1.4212,2.59,0.12438,0,0,0,0
293.13,1.4241,2.5907,0.125,0,0,0,0
293.63,1.4272,2.5913,0.1253,0,0,0,0
294.13,1.4302,2.592,0.12577,0,0,0,0
294.63,1.4331,2.5927,0.1261,0,0,0,0
295.13,1.4361,2.5933,0.12645,0,0,0,0
295.63,1.4391,2.594,0.12684,0,0,0,0
296.13,1.4422,2.595,0.12728,0,0,0,0
296.63,1.4454,2.596,0.12767,0,0,0,0
297.13,1.4487,2.5967,0.12802,0,0,0,0
297.63,1.4518,2.5973,0.12835,0,0,0,0
298.13,1.4546,2.598,0.12867,0,0,0,0
298.63,1.4579,2.599,0.12902,0,0,0,0
299.13,1.4606,2.5997,0.12941,0,0,0,0
299.63,1.4636,2.6003,0.12985,0,0,0,0
300.13,1.4665,2.601,0.13032,0,0,0,0
300.63,1.4693,2.6017,0.13059,0,0,0,0
301.13,1.4727,2.6026,0.13103,0,0,0,0
301.63,1.4758,2.6034,0.13153,0,0,0,0
302.13,1.4791,2.6043,0.13203,0,0,0,0
302.63,1.482,2.6047,0.13244,0,0,0,0
303.13,1.4851,2.6053,0.13294,0,0,0,0
303.63,1.4883,2.6057,0.13336,0,0,0,0
304.13,1.491,2.6063,0.13377,0,0,0,0
304.63,1.494,2.607,0.13418,0,0,0,0
305.13,1.497,2.608,0.13459,0,0,0,0
305.63,1.5001,2.6087,0.13497,0,0,0,0
306.13,1.5029,2.6093,0.13538,0,0,0,0
306.63,1.5062,2.61,0.13561,0,0,0,0
307.13,1.5093,2.6107,0.13617,0,0,0,0
307.63,1.5125,2.6113,0.13649,0,0,0,0
308.13,1.5157,2.612,0.1369,0,0,0,0
308.63,1.5188,2.6127,0.13734,0,0,0,0
309.13,1.5216,2.6133,0.1379,0,0,0,0
309.63,1.5248,2.614,0.13837,0,0,0,0
310.13,1.5275,2.6147,0.13886,0,0,0,0
310.63,1.5302,2.6153,0.13945,0,0,0,0
311.13,1.5333,2.6157,0.13983,0,0,0,0
311.63,1.5367,2.6163,0.14029,0,0,0,0
312.13,1.5399,2.617,0.14085,0,0,0,0
312.63,1.5434,2.6177,0.14126,0,0,0,0
313.13,1.5464,2.6183,0.14178,0,0,0,0
313.63,1.5493,2.6187,0.14216,0,0,0,0
314.13,1.5524,2.6193,0.14257,0,0,0,0
314.63,1.5554,2.62,0.14295,0,0,0,0
315.13,1.5585,2.621,0.14347,0,0,0,0
315.63,1.5612,2.6217,0.14382,0,0,0,0
316.13,1.5642,2.6223,0.14437,0,0,0,0
316.63,1.5674,2.6227,0.14481,0,0,0,0
317.13,1.5705,2.6233,0.14519,0,0,0,0
317.63,1.5744,2.624,0.14571,0,0,0,0
318.13,1.5772,2.6247,0.14638,0,0,0,0
318.63,1.5805,2.625,0.14679,0,0,0,0
319.13,1.5835,2.6253,0.14736,0,0,0,0
319.63,1.5864,2.626,0.148,0,0,0,0
320.13,1.5893,2.6267,0.14844,0,0,0,0
320.63,1.5924,2.6273,0.14887,0,0,0,0
321.13,1.5952,2.6277,0.14936,0,0,0,0
321.63,1.5984,2.6283,0.14983,0,0,0,0
322.13,1.6016,2.6287,0.15035,0,0,0,0
322.63,1.6049,2.6293,0.15081,0,0,0,0
323.13,1.6082,2.63,0.15136,0,0,0,0
323.63,1.6115,2.6307,0.15179,0,0,0,0
324.13,1.6147,2.6313,0.15228,0,0,0,0
324.63,1.6175,2.6317,0.15274,0,0,0,0
325.13,1.6205,2.6323,0.15312,0,0,0,0
325.63,1.6235,2.633,0.15375,0,0,0,0
326.13,1.6266,2.6337,0.1543,0,0,0,0
326.63,1.6296,2.634,0.15499,0,0,0,0
327.13,1.6327,2.634,0.15536,0,0,0,0
327.63,1.6359,2.6343,0.15591,0,0,0,0
328.13,1.6392,2.635,0.15651,0,0,0,0
328.63,1.6427,2.6357,0.15706,0,0,0,0
329.13,1.6456,2.636,0.15763,0,0,0,0
329.63,1.6487,2.6363,0.15815,0,0,0,0
330.13,1.6516,2.637,0.15872,0,0,0,0
330.63,1.6546,2.6377,0.15906,0,0,0,0
331.13,1.6577,2.6383,0.15966,0,0,0,0
331.63,1.6606,2.6387,0.16012,0,0,0,0
332.13,1.6638,2.639,0.16075,0,0,0,0
332.63,1.667,2.6393,0.16132,0,0,0,0
333.13,1.6703,2.6397,0.16195,0,0,0,0
333.63,1.6735,2.6403,0.16258,0,0,0,0
334.13,1.6767,2.6407,0.16304,0,0,0,0
334.63,1.6798,2.6413,0.16349,0,0,0,0
335.13,1.6828,2.6417,0.16423,0,0,0,0
335.63,1.6858,2.642,0.16483,0,0,0,0
336.13,1.6889,2.6423,0.1654,0,0,0,0
336.63,1.6919,2.6427,0.16614,0,0,0,0
337.13,1.6951,2.6433,0.16668,0,0,0,0
337.63,1.6982,2.6437,0.16728,0,0,0,0
338.13,1.7015,2.644,0.1677,0,0,0,0
338.63,1.7048,2.6443,0.16847,0,0,0,0
339.13,1.7083,2.6447,0.16909,0,0,0,0
339.62,1.7112,2.645,0.16975,0,0,0,0
340.13,1.7143,2.6453,0.1704,0,0,0,0
340.63,1.7172,2.6457,0.17091,0,0,0,0
341.13,1.7203,2.646,0.17147,0,0,0,0
341.63,1.7233,2.6463,0.17224,0,0,0,0
342.13,1.7263,2.6467,0.17292,0,0,0,0
342.63,1.7296,2.647,0.17348,0,0,0,0
343.13,1.7328,2.6473,0.17425,0,0,0,0
343.63,1.7362,2.6477,0.17495,0,0,0,0
344.13,1.7396,2.6483,0.17551,0,0,0,0
344.63,1.7426,2.6487,0.17619,0,0,0,0
345.13,1.7459,2.649,0.17667,0,0,0,0
345.63,1.7489,2.649,0.17757,0,0,0,0
346.13,1.7519,2.6493,0.17824,0,0,0,0
346.63,1.755,2.6497,0.17889,0,0,0,0
347.13,1.758,2.6503,0.17971,0,0,0,0
347.63,1.7613,2.6507,0.17999,0,0,0,0
348.13,1.7645,2.651,0.18083,0,0,0,0
348.63,1.7679,2.651,0.18156,0,0,0,0
349.13,1.7711,2.651,0.18203,0,0,0,0
349.63,1.7744,2.6513,0.18301,0,0,0,0
350.12,1.7773,2.6517,0.18363,0,0,0,0
350.63,1.7806,2.6523,0.1843,0,0,0,0
351.13,1.7836,2.6527,0.18494,0,0,0,0
351.63,1.7869,2.653,0.18558,0,0,0,0
352.13,1.79,2.653,0.18633,0,0,0,0
352.63,1.793,2.653,0.18714,0,0,0,0
353.13,1.7965,2.653,0.18784,0,0,0,0
353.63,1.7999,2.653,0.18862,0,0,0,0
354.13,1.8031,2.653,0.18937,0,0,0,0
354.63,1.8063,2.6533,0.1902,0,0,0,0
355.13,1.8096,2.6537,0.19089,0,0,0,0
355.63,1.8128,2.654,0.19186,0,0,0,0
356.13,1.8157,2.654,0.19256,0,0,0,0
356.63,1.8188,2.654,0.19339,0,0,0,0
357.13,1.8221,2.654,0.19405,0,0,0,0
357.63,1.8253,2.6543,0.19494,0,0,0,0
358.13,1.8284,2.6547,0.19585,0,0,0,0
358.63,1.8318,2.655,0.19659,0,0,0,0
359.13,1.8352,2.655,0.19736,0,0,0,0
359.63,1.8384,2.655,0.19816,0,0,0,0
360.13,1.8418,2.6553,0.19893,0,0,0,0
360.63,1.845,2.6557,0.19962,0,0,0,0
361.13,1.8481,2.6557,0.20053,0,0,0,0
361.63,1.8512,2.6553,0.20146,0,0,0,0
362.13,1.8542,2.655,0.20245,0,0,0,0
362.63,1.8575,2.6553,0.20319,0,0,0,0
363.13,1.861,2.6557,0.20399,0,0,0,0
363.63,1.8644,2.6557,0.205,0,0,0,0
364.13,1.8676,2.6553,0.20585,0,0,0,0
364.63,1.8711,2.6553,0.20683,0,0,0,0
365.13,1.8742,2.6554,0.20787,0,0,0,0
365.63,1.8772,2.6556,0.20866,0,0,0,0
366.13,1.8804,2.6554,0.20953,0,0,0,0
366.63,1.8836,2.6553,0.21059,0,0,0,0
367.13,1.8867,2.655,0.2116,0,0,0,0
367.63,1.89,2.655,0.21255,0,0,0,0
368.13,1.8932,2.6553,0.21361,0,0,0,0
368.62,1.8966,2.6557,0.21445,0,0,0,0
369.13,1.8998,2.6557,0.21538,0,0,0,0
369.63,1.9033,2.6553,0.21649,0,0,0,0
370.13,1.9067,2.655,0.21749,0,0,0,0
370.63,1.9097,2.655,0.21832,0,0,0,0
371.13,1.9129,2.655,0.21943,0,0,0,0
371.63,1.9159,2.6547,0.22062,0,0,0,0
372.13,1.9191,2.6543,0.22156,0,0,0,0
372.63,1.9225,2.654,0.22264,0,0,0,0
373.13,1.9259,2.654,0.22366,0,0,0,0
373.63,1.9293,2.654,0.2246,0,0,0,0
374.12,1.9327,2.654,0.22591,0,0,0,0
374.63,1.936,2.6537,0.2269,0,0,0,0
375.13,1.9392,2.6533,0.22787,0,0,0,0
375.62,1.9423,2.653,0.22923,0,0,0,0
376.13,1.9457,2.653,0.23022,0,0,0,0
376.63,1.9488,2.6527,0.23136,0,0,0,0
377.12,1.9521,2.6523,0.23262,0,0,0,0
377.62,1.9552,2.6517,0.23371,0,0,0,0
378.13,1.9585,2.6513,0.23496,0,0,0,0
378.63,1.962,2.651,0.23612,0,0,0,0
379.12,1.9656,2.6507,0.23713,0,0,0,0
379.63,1.969,2.6503,0.23848,0,0,0,0
380.13,1.9723,2.6497,0.23985,0,0,0,0
380.63,1.9754,2.6493,0.24094,0,0,0,0
381.13,1.9786,2.649,0.2421,0,0,0,0
381.63,1.9818,2.649,0.24344,0,0,0,0
382.13,1.9851,2.6487,0.24478,0,0,0,0
382.63,1.9882,2.648,0.24602,0,0,0,0
383.12,1.9914,2.6473,0.24743,0,0,0,0
383.63,1.995,2.6467,0.24859,0,0,0,0
384.13,1.9985,2.646,0.25005,0,0,0,0
384.63,2.002,2.6453,0.25128,0,0,0,0
385.13,2.0053,2.6447,0.25269,0,0,0,0
385.63,2.0087,2.644,0.25405,0,0,0,0
386.13,2.0119,2.6433,0.25551,0,0,0,0
386.63,2.0151,2.6427,0.25686,0,0,0,0
387.13,2.0183,2.642,0.25831,0,0,0,0
387.63,2.0216,2.6413,0.25953,0,0,0,0
388.12,2.025,2.6407,0.26114,0,0,0,0
388.63,2.0284,2.64,0.26245,0,0,0,0
389.13,2.032,2.639,0.2639,0,0,0,0
389.63,2.0354,2.638,0.26511,0,0,0,0
390.13,2.0388,2.637,0.26655,0,0,0,0
390.62,2.0422,2.636,0.26805,0,0,0,0
391.13,2.0454,2.635,0.26946,0,0,0,0
391.63,2.0486,2.634,0.27089,0,0,0,0
392.13,2.0518,2.633,0.27251,0,0,0,0
392.63,2.0552,2.632,0.27422,0,0,0,0
393.12,2.0585,2.631,0.27578,0,0,0,0
393.62,2.0621,2.6297,0.27728,0,0,0,0
394.13,2.0657,2.6286,0.27889,0,0,0,0
394.63,2.0692,2.6274,0.28061,0,0,0,0
395.13,2.0727,2.6263,0.28208,0,0,0,0
395.63,2.0762,2.6247,0.28388,0,0,0,0
396.13,2.0796,2.6233,0.2854,0,0,0,0
396.63,2.0829,2.622,0.28699,0,0,0,0
397.13,2.0862,2.6207,0.28853,0,0,0,0
397.63,2.0894,2.619,0.29006,0,0,0,0
398.13,2.093,2.6173,0.29175,0,0,0,0
398.63,2.0966,2.6157,0.29358,0,0,0,0
399.12,2.1001,2.614,0.2951,0,0,0,0
399.63,2.1035,2.6123,0.29691,0,0,0,0
400.12,2.1072,2.6107,0.29868,0,0,0,0
400.62,2.1107,2.609,0.30052,0,0,0,0
401.13,2.1139,2.6067,0.30189,0,0,0,0
401.63,2.1174,2.6046,0.30378,0,0,0,0
402.12,2.1205,2.6027,0.30549,0,0,0,0
402.63,2.1243,2.6007,0.30719,0,0,0,0
403.13,2.1277,2.5983,0.30907,0,0,0,0
403.63,2.1312,2.596,0.31087,0,0,0,0
404.12,2.1351,2.5937,0.31252,0,0,0,0
404.62,2.1386,2.5913,0.31444,0,0,0,0
405.13,2.1422,2.589,0.31625,0,0,0,0
405.62,2.1455,2.5864,0.31823,0,0,0,0
406.12,2.149,2.5836,0.31997,0,0,0,0
406.62,2.1525,2.5807,0.3219,0,0,0,0
407.13,2.1561,2.578,0.32358,0,0,0,0
407.62,2.1595,2.5753,0.32552,0,0,0,0
408.13,2.1632,2.5724,0.32724,0,0,0,0
408.62,2.1669,2.5693,0.32911,0,0,0,0
409.12,2.1704,2.5663,0.331,0,0,0,0
409.63,2.1742,2.5634,0.33286,0,0,0,0
410.13,2.1779,2.56,0.33463,0,0,0,0
410.62,2.1813,2.5563,0.33663,0,0,0,0
411.13,2.1848,2.553,0.33853,0,0,0,0
411.63,2.1882,2.5494,0.34044,0,0,0,0
412.13,2.192,2.5456,0.3425,0,0,0,0
412.62,2.1954,2.5417,0.34441,0,0,0,0
413.13,2.1995,2.538,0.34626,0,0,0,0
413.62,2.2031,2.534,0.34819,0,0,0,0
414.13,2.2066,2.5297,0.35023,0,0,0,0
414.62,2.2106,2.525,0.35229,0,0,0,0
415.13,2.2141,2.5203,0.3543,0,0,0,0
415.63,2.2174,2.5157,0.35628,0,0,0,0
416.13,2.2211,2.5113,0.35839,0,0,0,0
416.63,2.2246,2.5067,0.36039,0,0,0,0
417.12,2.2282,2.502,0.36238,0,0,0,0
417.63,2.232,2.497,0.36448,0,0,0,0
418.13,2.2361,2.4923,0.36644,0,0,0,0
418.62,2.2398,2.4871,0.36835,0,0,0,0
419.12,2.2437,2.4813,0.37035,0,0,0,0
419.63,2.2477,2.475,0.37249,0,0,0,0
420.13,2.2512,2.4687,0.37461,0,0,0,0
420.62,2.2551,2.4626,0.37667,0,0,0,0
421.13,2.2588,2.4567,0.37881,0,0,0,0
421.62,2.2624,2.4504,0.3813,0,0,0,0
422.13,2.2664,2.4433,0.38334,0,0,0,0
422.62,2.2706,2.436,0.38572,0,0,0,0
423.13,2.2747,2.4281,0.388,0,0,0,0
423.62,2.2789,2.4187,0.39019,0,0,0,0