File: polyN_optimization/results_exp/AA6014-T4/NT6_90_2.csv
Time[s],Displacement[mm],Force[kN],AxStrain_1,AxStrain_2,Thickness[mm],OuterWidth[mm],InnerWidth[mm]
0.64,0,-0.0055575,0,0,1.1166,20,10.039
1.14,0.000108,0.0026359,9.0996e-05,0,0,0,0
1.64,0.000662,0.012295,0.00013299,0,0,0,0
2.14,0.000814,0.032714,0.00020798,0,0,0,0
2.64,0.001674,0.058718,0.00014999,0,0,0,0
3.14,0.00194,0.085568,0.00014299,0,0,0,0
3.64,0.002207,0.10771,0.00010899,0,0,0,0
4.14,0.002629,0.12429,3.8999e-05,0,0,0,0
4.64,0.002841,0.13943,0.00014299,0,0,0,0
5.14,0.003177,0.156,0.00026297,0,0,0,0
5.64,0.003352,0.17286,0.00012799,0,0,0,0
6.14,0.003619,0.18842,0.00014599,0,0,0,0
6.64,0.003682,0.20014,0.00022997,0,0,0,0
7.14,0.003876,0.20943,6.8998e-05,0,0,0,0
7.64,0.00392,0.22057,4.7999e-05,0,0,0,0
8.14,0.004228,0.23371,0.00016499,0,0,0,0
8.64,0.004604,0.24786,0.00022198,0,0,0,0
9.14,0.004885,0.26214,7.7997e-05,0,0,0,0
9.64,0.005057,0.276,0.00012099,0,0,0,0
10.14,0.005392,0.28986,0.00018998,0,0,0,0
10.64,0.005794,0.30414,0.00018798,0,0,0,0
11.14,0.006123,0.31771,7.9997e-05,0,0,0,0
11.64,0.00642,0.33115,0.00024897,0,0,0,0
12.14,0.006689,0.346,0.0004529,0,0,0,0
12.64,0.007392,0.36114,0.00030695,0,0,0,0
13.14,0.007517,0.37615,0.00039292,0,0,0,0
13.64,0.007768,0.39085,0.00018098,0,0,0,0
14.14,0.008174,0.405,0.00038892,0,0,0,0
14.64,0.008524,0.41915,0.00029496,0,0,0,0
15.14,0.008558,0.43385,0.00017498,0,0,0,0
15.64,0.00885,0.448,0.00020098,0,0,0,0
16.14,0.008944,0.46215,0.00034894,0,0,0,0
16.64,0.009283,0.478,0.00038593,0,0,0,0
17.14,0.009447,0.49385,0.00019498,0,0,0,0
17.64,0.009739,0.50915,0.00036893,0,0,0,0
18.14,0.009954,0.52385,0.00030195,0,0,0,0
18.64,0.010163,0.538,0.00035894,0,0,0,0
19.14,0.010522,0.55215,0.0004499,0,0,0,0
19.64,0.010918,0.56685,0.00031595,0,0,0,0
20.14,0.011197,0.58129,0.00032195,0,0,0,0
20.64,0.011704,0.59586,0.00036593,0,0,0,0
21.14,0.012137,0.61171,0.00053386,0,0,0,0
21.64,0.012462,0.62743,0.00040992,0,0,0,0
22.14,0.013161,0.642,0.0004529,0,0,0,0
22.64,0.013543,0.65686,0.00052686,0,0,0,0
23.14,0.01405,0.67185,0.00048988,0,0,0,0
23.64,0.014561,0.68715,0.0004499,0,0,0,0
24.14,0.015081,0.70185,0.00050387,0,0,0,0
24.64,0.015276,0.71629,0.00058083,0,0,0,0
25.14,0.015823,0.73086,0.0004399,0,0,0,0
25.64,0.016058,0.747,0.00046289,0,0,0,0
26.14,0.016407,0.76285,0.00075472,0,0,0,0
26.64,0.016558,0.77815,0.00052386,0,0,0,0
27.14,0.01683,0.79285,0.00054385,0,0,0,0
27.64,0.017008,0.807,0.0006278,0,0,0,0
28.14,0.017401,0.82115,0.0006278,0,0,0,0
28.64,0.017535,0.83585,0.00052386,0,0,0,0
29.14,0.017868,0.85,0.00068177,0,0,0,0
29.64,0.017952,0.86415,0.00067077,0,0,0,0
30.14,0.018546,0.87971,0.00049988,0,0,0,0
30.64,0.018838,0.89514,0.00058783,0,0,0,0
31.14,0.01916,0.90929,0.00057683,0,0,0,0
31.64,0.01956,0.92357,0.00061781,0,0,0,0
32.14,0.020205,0.93814,0.0006348,0,0,0,0
32.64,0.020913,0.95315,0.00067477,0,0,0,0
33.14,0.0214,0.96785,0.00057783,0,0,0,0
33.64,0.021695,0.982,0.00070175,0,0,0,0
34.14,0.022263,0.99586,0.00073473,0,0,0,0
34.64,0.022723,1.011,0.00087562,0,0,0,0
35.14,0.023307,1.0261,0.0010504,0,0,0,0
35.64,0.023623,1.0409,0.00088561,0,0,0,0
36.14,0.024059,1.0551,0.0010634,0,0,0,0
36.64,0.024576,1.069,0.0010475,0,0,0,0
37.14,0.024976,1.0829,0.00093257,0,0,0,0
37.64,0.025335,1.0971,0.00090659,0,0,0,0
38.14,0.025725,1.1107,0.00096354,0,0,0,0
38.64,0.025809,1.1241,0.00074872,0,0,0,0
39.14,0.026238,1.139,0.0010105,0,0,0,0
39.64,0.026668,1.1539,0.00094655,0,0,0,0
40.14,0.026924,1.1681,0.00085963,0,0,0,0
40.64,0.027313,1.1819,0.00097353,0,0,0,0
41.14,0.028092,1.1953,0.00094655,0,0,0,0
41.64,0.028307,1.2086,0.00093656,0,0,0,0
42.14,0.028952,1.2221,0.00094655,0,0,0,0
42.64,0.029442,1.235,0.0010165,0,0,0,0
43.14,0.029925,1.2479,0.0010574,0,0,0,0
43.64,0.030798,1.2611,0.0011443,0,0,0,0
44.14,0.031413,1.2749,0.0011843,0,0,0,0
44.64,0.03198,1.289,0.0012982,0,0,0,0
45.14,0.032527,1.3031,0.0012982,0,0,0,0
45.64,0.033148,1.3157,0.0013121,0,0,0,0
46.14,0.033914,1.3279,0.0014929,0,0,0,0
46.64,0.034508,1.3404,0.0015668,0,0,0,0
47.14,0.035099,1.3527,0.0015967,0,0,0,0
47.64,0.035932,1.3646,0.0018183,0,0,0,0
48.14,0.03661,1.377,0.0020389,0,0,0,0
48.64,0.037614,1.3889,0.0021467,0,0,0,0
49.14,0.038718,1.3993,0.002434,0,0,0,0
49.64,0.040111,1.4084,0.0026186,0,0,0,0
50.14,0.041508,1.4167,0.00284,0,0,0,0
50.64,0.042868,1.4249,0.0031441,0,0,0,0
51.14,0.044654,1.4331,0.0033185,0,0,0,0
51.64,0.046322,1.441,0.0036563,0,0,0,0
52.14,0.048327,1.4486,0.0038506,0,0,0,0
52.64,0.049781,1.4564,0.0039741,0,0,0,0
53.14,0.051869,1.4646,0.0042719,0,0,0,0
53.64,0.053359,1.4727,0.0044481,0,0,0,0
54.14,0.055199,1.4807,0.0047995,0,0,0,0
54.64,0.056764,1.4877,0.0050134,0,0,0,0
55.14,0.058563,1.4946,0.0053775,0,0,0,0
55.64,0.060336,1.5014,0.0057315,0,0,0,0
56.14,0.061964,1.508,0.0060417,0,0,0,0
56.64,0.063895,1.5143,0.0063021,0,0,0,0
57.14,0.066013,1.521,0.0066488,0,0,0,0
57.64,0.067799,1.5277,0.0069925,0,0,0,0
58.14,0.069995,1.5343,0.0072159,0,0,0,0
58.64,0.072254,1.5404,0.0074422,0,0,0,0
59.14,0.074174,1.5463,0.007605,0,0,0,0
59.64,0.076155,1.552,0.0077052,0,0,0,0
60.14,0.078173,1.558,0.0078551,0,0,0,0
60.64,0.080097,1.5637,0.008108,0,0,0,0
61.14,0.082047,1.5693,0.0082112,0,0,0,0
61.64,0.084004,1.5753,0.008235,0,0,0,0
62.14,0.086214,1.5814,0.0085008,0,0,0,0
62.64,0.088077,1.5873,0.0084879,0,0,0,0
63.14,0.090178,1.5927,0.0086981,0,0,0,0
63.64,0.092565,1.598,0.0089003,0,0,0,0
64.14,0.094858,1.603,0.0091936,0,0,0,0
64.64,0.097,1.608,0.0093363,0,0,0,0
65.14,0.099542,1.613,0.0097325,0,0,0,0
65.64,0.1018,1.6183,0.010018,0,0,0,0
66.14,0.10402,1.624,0.010374,0,0,0,0
66.64,0.10646,1.6294,0.010725,0,0,0,0
67.14,0.10851,1.6346,0.01118,0,0,0,0
67.64,0.11074,1.6394,0.011429,0,0,0,0
68.14,0.11292,1.6443,0.011794,0,0,0,0
68.64,0.11515,1.649,0.011894,0,0,0,0
69.14,0.11732,1.654,0.012106,0,0,0,0
69.64,0.11965,1.6587,0.012223,0,0,0,0
70.14,0.12211,1.6636,0.012275,0,0,0,0
70.64,0.12465,1.6687,0.012402,0,0,0,0
71.14,0.12725,1.6737,0.012571,0,0,0,0
71.64,0.12986,1.6783,0.012593,0,0,0,0
72.14,0.13212,1.6827,0.01271,0,0,0,0
72.64,0.13444,1.6873,0.012651,0,0,0,0
73.14,0.13671,1.692,0.012842,0,0,0,0
73.64,0.13883,1.6967,0.013068,0,0,0,0
74.14,0.14122,1.701,0.013198,0,0,0,0
74.64,0.14368,1.7053,0.013588,0,0,0,0
75.14,0.14613,1.71,0.013945,0,0,0,0
75.64,0.14835,1.7147,0.014164,0,0,0,0
76.14,0.15099,1.7193,0.014515,0,0,0,0
76.64,0.15356,1.7237,0.014882,0,0,0,0
77.14,0.15645,1.728,0.015087,0,0,0,0
77.64,0.15892,1.7323,0.015457,0,0,0,0
78.14,0.16123,1.7364,0.015729,0,0,0,0
78.64,0.16394,1.7403,0.015798,0,0,0,0
79.14,0.1662,1.7443,0.016079,0,0,0,0
79.64,0.1683,1.749,0.016211,0,0,0,0
80.14,0.17088,1.7534,0.016362,0,0,0,0
80.64,0.17326,1.7576,0.016369,0,0,0,0
81.14,0.17564,1.7617,0.016554,0,0,0,0
81.64,0.17849,1.7657,0.016449,0,0,0,0
82.14,0.18096,1.7696,0.016726,0,0,0,0
82.64,0.18362,1.7737,0.016782,0,0,0,0
83.14,0.18637,1.7777,0.017066,0,0,0,0
83.64,0.1889,1.7816,0.017126,0,0,0,0
84.14,0.19161,1.7857,0.017247,0,0,0,0
84.64,0.19404,1.79,0.017653,0,0,0,0
85.14,0.19641,1.7937,0.017818,0,0,0,0
85.64,0.19884,1.7976,0.017979,0,0,0,0
86.14,0.20133,1.8014,0.018287,0,0,0,0
86.64,0.20384,1.8053,0.01882,0,0,0,0
87.14,0.2064,1.809,0.019015,0,0,0,0
87.64,0.20893,1.813,0.019179,0,0,0,0
88.14,0.21181,1.817,0.019373,0,0,0,0
88.64,0.21472,1.821,0.019644,0,0,0,0
89.14,0.21725,1.825,0.019772,0,0,0,0
89.64,0.22002,1.829,0.019887,0,0,0,0
90.14,0.22238,1.8327,0.020098,0,0,0,0
90.64,0.22488,1.8363,0.020262,0,0,0,0
91.14,0.22739,1.84,0.020243,0,0,0,0
91.64,0.23001,1.8437,0.020413,0,0,0,0
92.14,0.23253,1.847,0.020643,0,0,0,0
92.64,0.23508,1.8506,0.020871,0,0,0,0
93.14,0.23772,1.8544,0.021009,0,0,0,0
93.64,0.24045,1.8583,0.0212,0,0,0,0
94.14,0.24336,1.862,0.02144,0,0,0,0
94.64,0.24583,1.8657,0.021686,0,0,0,0
95.14,0.24874,1.869,0.021936,0,0,0,0
95.64,0.25122,1.8723,0.022033,0,0,0,0
96.14,0.25365,1.8757,0.022251,0,0,0,0
96.64,0.25617,1.8793,0.022428,0,0,0,0
97.14,0.25876,1.8827,0.022703,0,0,0,0
97.64,0.26138,1.8863,0.022907,0,0,0,0
98.14,0.26371,1.8897,0.023274,0,0,0,0
98.64,0.26629,1.8933,0.023553,0,0,0,0
99.14,0.26921,1.8967,0.023648,0,0,0,0
99.64,0.27169,1.9,0.023789,0,0,0,0
100.14,0.27471,1.9033,0.023917,0,0,0,0
100.64,0.27726,1.9067,0.024071,0,0,0,0
101.14,0.27995,1.91,0.02414,0,0,0,0
101.64,0.28269,1.9133,0.024288,0,0,0,0
102.14,0.28537,1.917,0.024448,0,0,0,0
102.64,0.28776,1.9207,0.024776,0,0,0,0
103.14,0.29022,1.924,0.024815,0,0,0,0
103.64,0.29279,1.927,0.025103,0,0,0,0
104.14,0.29532,1.93,0.025231,0,0,0,0
104.64,0.2981,1.9333,0.025525,0,0,0,0
105.14,0.30077,1.9364,0.025774,0,0,0,0
105.64,0.30351,1.9393,0.02599,0,0,0,0
106.14,0.3064,1.9423,0.025977,0,0,0,0
106.64,0.30923,1.9457,0.026196,0,0,0,0
107.14,0.31176,1.949,0.026425,0,0,0,0
107.64,0.31428,1.9523,0.026712,0,0,0,0
108.14,0.31677,1.9557,0.026954,0,0,0,0
108.64,0.3193,1.959,0.027176,0,0,0,0
109.14,0.32199,1.962,0.02719,0,0,0,0
109.64,0.32452,1.965,0.02752,0,0,0,0
110.14,0.32734,1.968,0.027552,0,0,0,0
110.64,0.33019,1.971,0.027754,0,0,0,0
111.14,0.33316,1.974,0.0281,0,0,0,0
111.64,0.33618,1.977,0.028059,0,0,0,0
112.14,0.3387,1.9803,0.028297,0,0,0,0
112.64,0.34147,1.9834,0.028557,0,0,0,0
113.14,0.34411,1.9863,0.028812,0,0,0,0
113.64,0.34665,1.989,0.028874,0,0,0,0
114.14,0.34923,1.992,0.02905,0,0,0,0
114.64,0.35182,1.995,0.029376,0,0,0,0
115.14,0.35443,1.998,0.029539,0,0,0,0
115.64,0.35729,2.001,0.029604,0,0,0,0
116.14,0.36001,2.004,0.029866,0,0,0,0
116.64,0.36286,2.007,0.030028,0,0,0,0
117.14,0.36581,2.01,0.030289,0,0,0,0
117.64,0.3688,2.0127,0.030354,0,0,0,0
118.14,0.37155,2.0156,0.030809,0,0,0,0
118.64,0.37415,2.0184,0.030809,0,0,0,0
119.14,0.37667,2.0213,0.031102,0,0,0,0
119.64,0.37941,2.024,0.0312,0,0,0,0
120.14,0.38198,2.0267,0.031363,0,0,0,0
120.64,0.38462,2.0293,0.031753,0,0,0,0
121.14,0.38741,2.0323,0.031818,0,0,0,0
121.64,0.39026,2.0354,0.032078,0,0,0,0
122.14,0.39307,2.0383,0.032111,0,0,0,0
122.64,0.39595,2.041,0.032533,0,0,0,0
123.14,0.39892,2.0437,0.032501,0,0,0,0
123.64,0.4017,2.0463,0.03276,0,0,0,0
124.14,0.40444,2.049,0.033054,0,0,0,0
124.64,0.40711,2.052,0.033054,0,0,0,0
125.14,0.4098,2.0547,0.033313,0,0,0,0
125.64,0.41253,2.0573,0.033573,0,0,0,0
126.14,0.41508,2.06,0.03367,0,0,0,0
126.64,0.41787,2.0627,0.033767,0,0,0,0
127.14,0.42085,2.0653,0.033963,0,0,0,0
127.64,0.42364,2.0677,0.034222,0,0,0,0
128.14,0.4268,2.0703,0.034384,0,0,0,0
128.64,0.42998,2.073,0.034546,0,0,0,0
129.14,0.43246,2.0757,0.034676,0,0,0,0
129.64,0.43477,2.0783,0.035065,0,0,0,0
130.14,0.43767,2.081,0.035357,0,0,0,0
130.64,0.44031,2.0837,0.035389,0,0,0,0
131.14,0.44285,2.086,0.035648,0,0,0,0
131.64,0.44566,2.0883,0.035713,0,0,0,0
132.14,0.44882,2.0907,0.035972,0,0,0,0
132.64,0.45125,2.0933,0.036166,0,0,0,0
133.14,0.45437,2.096,0.036232,0,0,0,0
133.64,0.4573,2.0987,0.036425,0,0,0,0
134.14,0.46018,2.1013,0.036619,0,0,0,0
134.64,0.4631,2.104,0.036749,0,0,0,0
135.14,0.46593,2.1067,0.036943,0,0,0,0
135.64,0.46837,2.109,0.037202,0,0,0,0
136.14,0.47117,2.111,0.037364,0,0,0,0
136.64,0.47398,2.1133,0.037364,0,0,0,0
137.14,0.47651,2.1157,0.037817,0,0,0,0
137.64,0.47941,2.1183,0.037849,0,0,0,0
138.14,0.48216,2.1207,0.038237,0,0,0,0
138.64,0.48539,2.123,0.038366,0,0,0,0
139.14,0.48837,2.1253,0.03856,0,0,0,0
139.64,0.49118,2.1277,0.038753,0,0,0,0
140.14,0.49413,2.13,0.038915,0,0,0,0
140.64,0.49667,2.1323,0.039141,0,0,0,0
141.14,0.49934,2.1347,0.03927,0,0,0,0
141.64,0.50212,2.137,0.039367,0,0,0,0
142.14,0.5048,2.1393,0.03969,0,0,0,0
142.64,0.50753,2.1417,0.039787,0,0,0,0
143.14,0.51038,2.144,0.039916,0,0,0,0
143.64,0.51316,2.1463,0.040109,0,0,0,0
144.14,0.5162,2.1487,0.040173,0,0,0,0
144.64,0.51931,2.151,0.040335,0,0,0,0
145.14,0.5222,2.153,0.040496,0,0,0,0
145.64,0.52497,2.155,0.04069,0,0,0,0
146.14,0.52793,2.157,0.040883,0,0,0,0
146.64,0.53065,2.1593,0.041011,0,0,0,0
147.14,0.53325,2.1617,0.041398,0,0,0,0
147.64,0.53593,2.164,0.041624,0,0,0,0
148.14,0.53869,2.1663,0.041946,0,0,0,0
148.64,0.54149,2.1687,0.04201,0,0,0,0
149.14,0.54522,2.171,0.042364,0,0,0,0
149.64,0.54777,2.173,0.042525,0,0,0,0
150.14,0.55106,2.175,0.042653,0,0,0,0
150.64,0.55384,2.177,0.042686,0,0,0,0
151.14,0.55656,2.1793,0.042975,0,0,0,0
151.64,0.55919,2.1817,0.043104,0,0,0,0
152.14,0.56229,2.184,0.043264,0,0,0,0
152.64,0.56475,2.186,0.043329,0,0,0,0
153.14,0.56769,2.188,0.043425,0,0,0,0
153.64,0.57024,2.19,0.043714,0,0,0,0
154.14,0.57324,2.1923,0.043779,0,0,0,0
154.64,0.57607,2.1944,0.043939,0,0,0,0
155.14,0.57908,2.1963,0.044261,0,0,0,0
155.64,0.58244,2.1983,0.044389,0,0,0,0
156.14,0.58514,2.2007,0.044678,0,0,0,0
156.64,0.58825,2.203,0.044774,0,0,0,0
157.14,0.59106,2.205,0.045032,0,0,0,0
157.64,0.59369,2.207,0.045353,0,0,0,0
158.14,0.59618,2.209,0.045705,0,0,0,0
158.64,0.59805,2.211,0.045866,0,0,0,0
159.14,0.60148,2.213,0.046026,0,0,0,0
159.64,0.605,2.215,0.046218,0,0,0,0
160.14,0.60771,2.217,0.046315,0,0,0,0
160.64,0.611,2.219,0.046539,0,0,0,0
161.14,0.61409,2.221,0.046667,0,0,0,0
161.64,0.61699,2.2233,0.046859,0,0,0,0
162.14,0.61969,2.2254,0.046988,0,0,0,0
162.64,0.62252,2.2273,0.047179,0,0,0,0
163.14,0.62535,2.229,0.047276,0,0,0,0
163.64,0.62838,2.231,0.047403,0,0,0,0
164.14,0.63088,2.233,0.047628,0,0,0,0
164.64,0.63352,2.235,0.047724,0,0,0,0
165.14,0.63684,2.237,0.047915,0,0,0,0
165.64,0.63945,2.239,0.048203,0,0,0,0
166.14,0.64284,2.241,0.048396,0,0,0,0
166.64,0.64557,2.243,0.048716,0,0,0,0
167.14,0.64882,2.2447,0.048971,0,0,0,0
167.64,0.65151,2.2466,0.049227,0,0,0,0
168.14,0.65432,2.2487,0.049387,0,0,0,0
168.64,0.65719,2.2507,0.049706,0,0,0,0
169.14,0.65969,2.2523,0.04993,0,0,0,0
169.64,0.66251,2.2543,0.050281,0,0,0,0
170.14,0.66547,2.2564,0.050217,0,0,0,0
170.64,0.66844,2.2586,0.0506,0,0,0,0
171.14,0.67119,2.2604,0.050664,0,0,0,0
171.64,0.67444,2.2623,0.050696,0,0,0,0
172.14,0.6775,2.264,0.050856,0,0,0,0
172.64,0.68045,2.2657,0.050919,0,0,0,0
173.14,0.68341,2.2673,0.051175,0,0,0,0
173.64,0.68599,2.2693,0.05143,0,0,0,0
174.14,0.68902,2.2714,0.051653,0,0,0,0
174.64,0.69162,2.2733,0.051716,0,0,0,0
175.14,0.69433,2.275,0.051908,0,0,0,0
175.64,0.69734,2.277,0.052163,0,0,0,0
176.14,0.70002,2.2787,0.052354,0,0,0,0
176.64,0.70337,2.2803,0.052704,0,0,0,0
177.14,0.70614,2.282,0.05296,0,0,0,0
177.64,0.70914,2.284,0.053246,0,0,0,0
178.14,0.71208,2.286,0.053469,0,0,0,0
178.64,0.71521,2.2877,0.053723,0,0,0,0
179.14,0.71787,2.2893,0.053818,0,0,0,0
179.64,0.72074,2.291,0.054168,0,0,0,0
180.14,0.72337,2.2927,0.054296,0,0,0,0
180.64,0.72613,2.2943,0.054391,0,0,0,0
181.14,0.72917,2.296,0.05455,0,0,0,0
181.64,0.73181,2.298,0.054582,0,0,0,0
182.14,0.73492,2.2997,0.054868,0,0,0,0
182.64,0.73796,2.3013,0.054963,0,0,0,0
183.14,0.74109,2.303,0.05509,0,0,0,0
183.64,0.74379,2.305,0.05528,0,0,0,0
184.14,0.74689,2.307,0.055567,0,0,0,0
184.64,0.74952,2.3087,0.055725,0,0,0,0
185.14,0.75248,2.3103,0.055947,0,0,0,0
185.64,0.75522,2.312,0.056234,0,0,0,0
186.14,0.75792,2.3137,0.056487,0,0,0,0
186.64,0.7609,2.3153,0.056678,0,0,0,0
187.14,0.76358,2.317,0.056995,0,0,0,0
187.64,0.76667,2.319,0.057185,0,0,0,0
188.14,0.76951,2.3207,0.057344,0,0,0,0
188.64,0.77259,2.3223,0.057819,0,0,0,0
189.14,0.77591,2.324,0.057851,0,0,0,0
189.64,0.77861,2.3257,0.058104,0,0,0,0
190.14,0.78107,2.327,0.058231,0,0,0,0
190.64,0.78397,2.3283,0.058358,0,0,0,0
191.14,0.78687,2.33,0.058516,0,0,0,0
191.64,0.78978,2.3317,0.058674,0,0,0,0
192.14,0.79246,2.3333,0.058927,0,0,0,0
192.64,0.79544,2.335,0.059181,0,0,0,0
193.14,0.79844,2.337,0.059339,0,0,0,0
193.64,0.80176,2.339,0.059465,0,0,0,0
194.14,0.80472,2.3407,0.059655,0,0,0,0
194.64,0.80755,2.342,0.059939,0,0,0,0
195.14,0.81034,2.3433,0.060129,0,0,0,0
195.64,0.81317,2.3447,0.060382,0,0,0,0
196.14,0.81618,2.3466,0.060603,0,0,0,0
196.64,0.8191,2.3484,0.060982,0,0,0,0
197.14,0.82178,2.35,0.061046,0,0,0,0
197.64,0.82473,2.3513,0.061203,0,0,0,0
198.14,0.82798,2.3527,0.061488,0,0,0,0
198.64,0.8311,2.3543,0.06174,0,0,0,0
199.14,0.83413,2.356,0.061961,0,0,0,0
199.64,0.83723,2.3577,0.062119,0,0,0,0
200.14,0.84026,2.359,0.06234,0,0,0,0
200.64,0.84317,2.3603,0.062749,0,0,0,0
201.14,0.84595,2.362,0.062907,0,0,0,0
201.64,0.84869,2.3637,0.06297,0,0,0,0
202.14,0.85121,2.3653,0.06316,0,0,0,0
202.64,0.85418,2.367,0.06338,0,0,0,0
203.14,0.85715,2.3687,0.063727,0,0,0,0
203.64,0.86017,2.3703,0.063884,0,0,0,0
204.14,0.86348,2.3717,0.064042,0,0,0,0
204.64,0.86637,2.3733,0.06442,0,0,0,0
205.14,0.86945,2.3747,0.064608,0,0,0,0
205.64,0.87248,2.3763,0.064766,0,0,0,0
206.14,0.87539,2.3777,0.064923,0,0,0,0
206.64,0.87796,2.3793,0.065238,0,0,0,0
207.14,0.88094,2.3807,0.065458,0,0,0,0
207.64,0.88379,2.3823,0.065584,0,0,0,0
208.14,0.88669,2.3837,0.065835,0,0,0,0
208.64,0.88986,2.3853,0.065992,0,0,0,0
209.14,0.89275,2.3867,0.066212,0,0,0,0
209.64,0.89589,2.388,0.066432,0,0,0,0
210.14,0.89907,2.3893,0.066714,0,0,0,0
210.64,0.90191,2.391,0.066871,0,0,0,0
211.14,0.90485,2.3927,0.067186,0,0,0,0
211.64,0.90776,2.394,0.067405,0,0,0,0
212.14,0.91056,2.3953,0.067782,0,0,0,0
212.64,0.91344,2.3967,0.067907,0,0,0,0
213.14,0.91626,2.3983,0.068096,0,0,0,0
213.64,0.91905,2.3997,0.068378,0,0,0,0
214.14,0.92222,2.4013,0.068535,0,0,0,0
214.64,0.92525,2.4027,0.068817,0,0,0,0
215.14,0.92815,2.404,0.068974,0,0,0,0
215.64,0.93149,2.4053,0.06913,0,0,0,0
216.14,0.93424,2.407,0.069506,0,0,0,0
216.64,0.93709,2.4087,0.0696,0,0,0,0
217.14,0.93973,2.41,0.069976,0,0,0,0
217.64,0.94278,2.4113,0.070038,0,0,0,0
218.14,0.94549,2.4127,0.070289,0,0,0,0
218.64,0.9483,2.414,0.070508,0,0,0,0
219.14,0.95141,2.4153,0.070695,0,0,0,0
219.64,0.95426,2.4167,0.071008,0,0,0,0
220.13,0.95736,2.4183,0.071321,0,0,0,0
220.64,0.96072,2.4197,0.07154,0,0,0,0
221.14,0.9637,2.421,0.071821,0,0,0,0
221.64,0.96654,2.4223,0.072133,0,0,0,0
222.14,0.96964,2.4237,0.072321,0,0,0,0
222.64,0.97225,2.425,0.072602,0,0,0,0
223.14,0.97514,2.4263,0.072914,0,0,0,0
223.64,0.97801,2.4277,0.073039,0,0,0,0
224.13,0.98075,2.429,0.073319,0,0,0,0
224.64,0.98379,2.4303,0.073569,0,0,0,0
225.14,0.98664,2.4317,0.073725,0,0,0,0
225.64,0.98987,2.433,0.073944,0,0,0,0
226.14,0.99299,2.4343,0.074162,0,0,0,0
226.64,0.99616,2.4357,0.074473,0,0,0,0
227.14,0.99901,2.437,0.07466,0,0,0,0
227.64,1.0017,2.4383,0.074816,0,0,0,0
228.14,1.0047,2.4397,0.075127,0,0,0,0
228.64,1.0076,2.441,0.07547,0,0,0,0
229.13,1.0103,2.4423,0.075656,0,0,0,0
229.64,1.0133,2.444,0.075936,0,0,0,0
230.14,1.0162,2.4454,0.076124,0,0,0,0
230.64,1.0192,2.4466,0.076434,0,0,0,0
231.14,1.0224,2.4477,0.076745,0,0,0,0
231.64,1.0256,2.449,0.076963,0,0,0,0
232.14,1.0286,2.45,0.077274,0,0,0,0
232.64,1.0316,2.4513,0.077429,0,0,0,0
233.14,1.0345,2.4527,0.077615,0,0,0,0
233.64,1.0372,2.454,0.077988,0,0,0,0
234.14,1.0401,2.4553,0.078206,0,0,0,0
234.64,1.0432,2.4567,0.078516,0,0,0,0
235.13,1.046,2.458,0.078734,0,0,0,0
235.64,1.049,2.459,0.078702,0,0,0,0
236.14,1.0518,2.46,0.079198,0,0,0,0
236.64,1.0551,2.4613,0.079323,0,0,0,0
237.14,1.0585,2.4627,0.079694,0,0,0,0
237.64,1.0612,2.464,0.079788,0,0,0,0
238.14,1.0642,2.4653,0.080098,0,0,0,0
238.64,1.0671,2.4667,0.080532,0,0,0,0
239.14,1.0699,2.468,0.080717,0,0,0,0
239.64,1.0729,2.469,0.081058,0,0,0,0
240.14,1.0757,2.4703,0.081367,0,0,0,0
240.64,1.0789,2.4717,0.081398,0,0,0,0
241.13,1.0816,2.473,0.08177,0,0,0,0
241.64,1.0848,2.474,0.082048,0,0,0,0
242.13,1.0881,2.475,0.082358,0,0,0,0
242.64,1.0911,2.476,0.082636,0,0,0,0
243.14,1.0941,2.4773,0.082821,0,0,0,0
243.64,1.0971,2.4787,0.08316,0,0,0,0
244.14,1.0998,2.48,0.083315,0,0,0,0
244.64,1.1026,2.481,0.083501,0,0,0,0
245.14,1.1056,2.482,0.083933,0,0,0,0
245.64,1.1084,2.4833,0.084087,0,0,0,0
246.14,1.1114,2.4847,0.084334,0,0,0,0
246.64,1.1145,2.486,0.08455,0,0,0,0
247.13,1.1176,2.487,0.085043,0,0,0,0
247.64,1.1207,2.488,0.085136,0,0,0,0
248.13,1.1237,2.489,0.085506,0,0,0,0
248.63,1.1267,2.4903,0.085814,0,0,0,0
249.14,1.1297,2.4917,0.086091,0,0,0,0
249.64,1.1325,2.493,0.086153,0,0,0,0
250.14,1.1353,2.494,0.086677,0,0,0,0
250.64,1.1381,2.495,0.086768,0,0,0,0
251.13,1.1409,2.496,0.087076,0,0,0,0
251.63,1.1437,2.4973,0.087262,0,0,0,0
252.14,1.1469,2.4987,0.087568,0,0,0,0
252.64,1.1501,2.4997,0.087876,0,0,0,0
253.14,1.153,2.5006,0.088184,0,0,0,0
253.63,1.1562,2.5017,0.088338,0,0,0,0
254.13,1.1591,2.503,0.088553,0,0,0,0
254.64,1.1617,2.504,0.088891,0,0,0,0
255.14,1.1647,2.505,0.089228,0,0,0,0
255.64,1.1676,2.506,0.089535,0,0,0,0
256.14,1.1702,2.507,0.089719,0,0,0,0
256.64,1.1733,2.5083,0.090211,0,0,0,0
257.13,1.1762,2.5097,0.090426,0,0,0,0
257.64,1.1794,2.511,0.090763,0,0,0,0
258.14,1.1824,2.5117,0.091007,0,0,0,0
258.64,1.1857,2.5123,0.091436,0,0,0,0
259.14,1.1886,2.5133,0.09159,0,0,0,0
259.64,1.1914,2.5147,0.091835,0,0,0,0
260.13,1.1943,2.516,0.09208,0,0,0,0
260.64,1.1972,2.517,0.092264,0,0,0,0
261.13,1.1999,2.518,0.092692,0,0,0,0
261.64,1.2028,2.519,0.092845,0,0,0,0
262.14,1.2054,2.52,0.093121,0,0,0,0
262.63,1.2087,2.521,0.093488,0,0,0,0
263.13,1.2117,2.5223,0.093732,0,0,0,0
263.63,1.2148,2.5234,0.09419,0,0,0,0
264.13,1.218,2.5246,0.094312,0,0,0,0
264.64,1.2209,2.5257,0.094863,0,0,0,0
265.13,1.2238,2.5267,0.094924,0,0,0,0
265.63,1.2266,2.5273,0.095412,0,0,0,0
266.13,1.2295,2.528,0.095473,0,0,0,0
266.64,1.2323,2.529,0.095992,0,0,0,0
267.14,1.2351,2.53,0.096327,0,0,0,0
267.64,1.2383,2.531,0.096571,0,0,0,0
268.13,1.2413,2.532,0.096815,0,0,0,0
268.64,1.2445,2.533,0.097149,0,0,0,0
269.13,1.2475,2.534,0.097333,0,0,0,0
269.64,1.2506,2.535,0.097728,0,0,0,0
270.14,1.2535,2.536,0.097972,0,0,0,0
270.64,1.2564,2.537,0.098215,0,0,0,0
271.14,1.2592,2.538,0.09858,0,0,0,0
271.63,1.2619,2.539,0.098885,0,0,0,0
272.14,1.2646,2.54,0.099128,0,0,0,0
272.64,1.2677,2.541,0.099584,0,0,0,0
273.14,1.2708,2.542,0.099948,0,0,0,0
273.64,1.2739,2.543,0.10025,0,0,0,0
274.14,1.277,2.544,0.10059,0,0,0,0
274.63,1.2802,2.545,0.10104,0,0,0,0
275.13,1.2831,2.546,0.10122,0,0,0,0
275.64,1.2863,2.547,0.10159,0,0,0,0
276.14,1.2889,2.548,0.10186,0,0,0,0
276.63,1.2918,2.549,0.10216,0,0,0,0
277.13,1.2946,2.55,0.10256,0,0,0,0
277.63,1.2975,2.551,0.10289,0,0,0,0
278.13,1.3007,2.552,0.10307,0,0,0,0
278.63,1.3037,2.5527,0.10353,0,0,0,0
279.13,1.3069,2.5533,0.10386,0,0,0,0
279.63,1.3102,2.554,0.1041,0,0,0,0
280.13,1.3132,2.555,0.10453,0,0,0,0
280.64,1.3161,2.556,0.10483,0,0,0,0
281.14,1.3193,2.557,0.10513,0,0,0,0
281.63,1.322,2.558,0.1054,0,0,0,0
282.13,1.3249,2.5587,0.10576,0,0,0,0
282.64,1.3279,2.5596,0.10616,0,0,0,0
283.13,1.3306,2.5607,0.10646,0,0,0,0
283.63,1.3337,2.562,0.10691,0,0,0,0
284.13,1.3367,2.563,0.10736,0,0,0,0
284.64,1.34,2.5637,0.10764,0,0,0,0
285.13,1.3431,2.5643,0.10803,0,0,0,0
285.63,1.3462,2.565,0.10836,0,0,0,0
286.14,1.3492,2.566,0.10881,0,0,0,0
286.63,1.352,2.567,0.10905,0,0,0,0
287.13,1.3549,2.5677,0.10947,0,0,0,0
287.63,1.358,2.5683,0.10974,0,0,0,0
288.13,1.3607,2.569,0.11007,0,0,0,0
288.64,1.3637,2.57,0.11062,0,0,0,0
289.14,1.3669,2.571,0.11077,0,0,0,0
289.63,1.3701,2.572,0.11101,0,0,0,0
290.13,1.3732,2.573,0.11143,0,0,0,0
290.63,1.3764,2.574,0.11179,0,0,0,0
291.14,1.3793,2.5747,0.11203,0,0,0,0
291.63,1.3825,2.5753,0.11251,0,0,0,0
292.14,1.3854,2.576,0.11296,0,0,0,0
292.63,1.3883,2.5767,0.11329,0,0,0,0
293.14,1.3913,2.5773,0.11359,0,0,0,0
293.63,1.3941,2.578,0.11407,0,0,0,0
294.13,1.3972,2.579,0.11425,0,0,0,0
294.63,1.4005,2.58,0.11475,0,0,0,0
295.14,1.4035,2.581,0.11508,0,0,0,0
295.64,1.4066,2.5817,0.11541,0,0,0,0
296.13,1.4096,2.5823,0.1158,0,0,0,0
296.63,1.4125,2.583,0.11613,0,0,0,0
297.14,1.4155,2.584,0.1167,0,0,0,0
297.63,1.4186,2.585,0.11703,0,0,0,0
298.13,1.4213,2.586,0.11741,0,0,0,0
298.63,1.4244,2.5867,0.11786,0,0,0,0
299.13,1.4274,2.5873,0.11822,0,0,0,0
299.63,1.4304,2.588,0.11858,0,0,0,0
300.13,1.4336,2.589,0.11888,0,0,0,0
300.63,1.4369,2.5897,0.11926,0,0,0,0
301.13,1.4399,2.5903,0.11974,0,0,0,0
301.63,1.4431,2.591,0.12016,0,0,0,0
302.13,1.4459,2.5917,0.12057,0,0,0,0
302.63,1.449,2.5923,0.12084,0,0,0,0
303.13,1.4518,2.593,0.12132,0,0,0,0
303.63,1.4548,2.5937,0.12162,0,0,0,0
304.13,1.4577,2.5943,0.12197,0,0,0,0
304.63,1.4608,2.595,0.12245,0,0,0,0
305.13,1.4639,2.596,0.12292,0,0,0,0
305.63,1.4671,2.5967,0.12334,0,0,0,0
306.13,1.4703,2.5973,0.12375,0,0,0,0
306.63,1.4733,2.598,0.12426,0,0,0,0
307.13,1.4765,2.5987,0.12476,0,0,0,0
307.63,1.4795,2.5993,0.12509,0,0,0,0
308.13,1.4823,2.6,0.12553,0,0,0,0
308.63,1.4852,2.601,0.12616,0,0,0,0
309.13,1.4882,2.6017,0.12648,0,0,0,0
309.64,1.4913,2.6023,0.12698,0,0,0,0
310.14,1.4942,2.603,0.12743,0,0,0,0
310.63,1.4974,2.6037,0.12775,0,0,0,0
311.13,1.5006,2.6043,0.12817,0,0,0,0
311.63,1.5037,2.605,0.12876,0,0,0,0
312.13,1.507,2.6057,0.12917,0,0,0,0
312.63,1.51,2.6063,0.12955,0,0,0,0
313.13,1.513,2.607,0.12994,0,0,0,0
313.63,1.5156,2.6077,0.13029,0,0,0,0
314.13,1.5189,2.6083,0.13094,0,0,0,0
314.63,1.5219,2.6087,0.13132,0,0,0,0
315.13,1.525,2.6093,0.1317,0,0,0,0
315.63,1.5283,2.6097,0.13229,0,0,0,0
316.13,1.5316,2.6103,0.1327,0,0,0,0
316.63,1.5348,2.611,0.1332,0,0,0,0
317.13,1.5377,2.6117,0.13347,0,0,0,0
317.63,1.5409,2.6123,0.13408,0,0,0,0
318.13,1.5438,2.613,0.13452,0,0,0,0
318.63,1.5466,2.6137,0.13502,0,0,0,0
319.13,1.5497,2.6143,0.13552,0,0,0,0
319.63,1.5529,2.6147,0.13599,0,0,0,0
320.13,1.5559,2.6153,0.13646,0,0,0,0
320.63,1.5589,2.616,0.13702,0,0,0,0
321.13,1.5624,2.6167,0.13742,0,0,0,0
321.63,1.5655,2.6173,0.13783,0,0,0,0
322.13,1.5688,2.6177,0.13845,0,0,0,0
322.63,1.5719,2.6183,0.13897,0,0,0,0
323.13,1.5749,2.619,0.13956,0,0,0,0
323.63,1.5778,2.6197,0.14005,0,0,0,0
324.13,1.5807,2.6203,0.14061,0,0,0,0
324.63,1.5839,2.6207,0.14096,0,0,0,0
325.13,1.5868,2.621,0.14151,0,0,0,0
325.63,1.5901,2.6213,0.14204,0,0,0,0
326.13,1.5932,2.6217,0.14262,0,0,0,0
326.63,1.5965,2.6223,0.14297,0,0,0,0
327.13,1.5997,2.6227,0.14361,0,0,0,0
327.63,1.6028,2.6233,0.14416,0,0,0,0
328.13,1.6059,2.6237,0.14463,0,0,0,0
328.63,1.6089,2.6243,0.14521,0,0,0,0
329.13,1.612,2.625,0.14561,0,0,0,0
329.63,1.6151,2.6257,0.14631,0,0,0,0
330.13,1.6181,2.626,0.14675,0,0,0,0
330.63,1.6212,2.6263,0.1475,0,0,0,0
331.13,1.6242,2.627,0.14805,0,0,0,0
331.63,1.6273,2.6277,0.14857,0,0,0,0
332.13,1.6306,2.6283,0.14901,0,0,0,0
332.63,1.6336,2.6287,0.1497,0,0,0,0
333.13,1.6368,2.6293,0.15022,0,0,0,0
333.63,1.6397,2.6297,0.15077,0,0,0,0
334.13,1.6431,2.6303,0.15129,0,0,0,0
334.63,1.6461,2.6307,0.15192,0,0,0,0
335.13,1.649,2.631,0.15247,0,0,0,0
335.63,1.6522,2.6313,0.15316,0,0,0,0
336.13,1.6554,2.6317,0.15362,0,0,0,0
336.63,1.6587,2.6323,0.15437,0,0,0,0
337.13,1.662,2.6327,0.15475,0,0,0,0
337.63,1.6652,2.6333,0.15544,0,0,0,0
338.13,1.6683,2.6337,0.15616,0,0,0,0
338.63,1.6718,2.634,0.15684,0,0,0,0
339.13,1.6746,2.634,0.15736,0,0,0,0
339.63,1.6775,2.6343,0.15808,0,0,0,0
340.13,1.6805,2.635,0.15882,0,0,0,0
340.63,1.6837,2.6354,0.15948,0,0,0,0
341.13,1.6871,2.6353,0.15994,0,0,0,0
341.63,1.6901,2.6353,0.16065,0,0,0,0
342.13,1.6935,2.636,0.16125,0,0,0,0
342.63,1.6966,2.6367,0.16182,0,0,0,0
343.13,1.7,2.637,0.16242,0,0,0,0
343.63,1.7031,2.637,0.16325,0,0,0,0
344.13,1.7063,2.637,0.16388,0,0,0,0
344.63,1.7091,2.6373,0.1647,0,0,0,0
345.13,1.7122,2.6377,0.16524,0,0,0,0
345.63,1.7151,2.6383,0.16601,0,0,0,0
346.13,1.7185,2.6387,0.16681,0,0,0,0
346.63,1.7217,2.639,0.16743,0,0,0,0
347.13,1.7249,2.639,0.16817,0,0,0,0
347.63,1.7283,2.6393,0.16902,0,0,0,0
348.13,1.7317,2.6397,0.16973,0,0,0,0
348.63,1.7348,2.64,0.17035,0,0,0,0
349.13,1.738,2.6403,0.1712,0,0,0,0
349.63,1.7411,2.6407,0.17185,0,0,0,0
350.13,1.7442,2.641,0.17267,0,0,0,0
350.63,1.7474,2.641,0.17349,0,0,0,0
351.13,1.7506,2.641,0.17417,0,0,0,0
351.63,1.7539,2.641,0.17507,0,0,0,0
352.13,1.7572,2.641,0.17578,0,0,0,0
352.63,1.7604,2.641,0.17668,0,0,0,0
353.13,1.7636,2.6413,0.17744,0,0,0,0
353.63,1.7671,2.6417,0.17814,0,0,0,0
354.13,1.7702,2.642,0.17912,0,0,0,0
354.63,1.7733,2.642,0.17996,0,0,0,0
355.13,1.7762,2.642,0.18067,0,0,0,0
355.63,1.7792,2.642,0.18153,0,0,0,0
356.13,1.7824,2.6423,0.18226,0,0,0,0
356.63,1.7859,2.6427,0.18316,0,0,0,0
357.13,1.7893,2.643,0.184,0,0,0,0
357.63,1.7925,2.643,0.18486,0,0,0,0
358.13,1.7958,2.643,0.18578,0,0,0,0
358.63,1.7991,2.643,0.18659,0,0,0,0
359.13,1.8026,2.643,0.18774,0,0,0,0
359.63,1.8057,2.643,0.18854,0,0,0,0
360.13,1.8088,2.643,0.1896,0,0,0,0
360.63,1.8119,2.643,0.19046,0,0,0,0
361.13,1.8152,2.643,0.19135,0,0,0,0
361.63,1.8184,2.643,0.19235,0,0,0,0
362.13,1.8219,2.643,0.19318,0,0,0,0
362.63,1.825,2.643,0.1944,0,0,0,0
363.13,1.8285,2.643,0.1952,0,0,0,0
363.63,1.8318,2.643,0.19614,0,0,0,0
364.13,1.8349,2.643,0.19713,0,0,0,0
364.63,1.8379,2.643,0.19829,0,0,0,0
365.13,1.8412,2.643,0.19917,0,0,0,0
365.63,1.8444,2.6427,0.20027,0,0,0,0
366.13,1.8476,2.6423,0.20128,0,0,0,0
366.63,1.851,2.642,0.20252,0,0,0,0
367.13,1.8542,2.642,0.20353,0,0,0,0
367.63,1.8577,2.642,0.20443,0,0,0,0
368.13,1.8612,2.6417,0.20572,0,0,0,0
368.63,1.8645,2.6413,0.20678,0,0,0,0
369.13,1.8676,2.641,0.20796,0,0,0,0
369.63,1.871,2.641,0.20918,0,0,0,0
370.13,1.8741,2.641,0.21019,0,0,0,0
370.63,1.8771,2.6407,0.21144,0,0,0,0
371.13,1.8803,2.6403,0.2125,0,0,0,0
371.63,1.8834,2.64,0.21377,0,0,0,0
372.13,1.8869,2.64,0.21488,0,0,0,0
372.63,1.8905,2.6397,0.21605,0,0,0,0
373.13,1.8938,2.639,0.21724,0,0,0,0
373.63,1.8971,2.6383,0.21853,0,0,0,0
374.13,1.9004,2.638,0.21967,0,0,0,0
374.63,1.9036,2.6377,0.22085,0,0,0,0
375.13,1.9068,2.6373,0.22217,0,0,0,0
375.63,1.9099,2.6367,0.22354,0,0,0,0
376.13,1.9132,2.636,0.22496,0,0,0,0
376.63,1.9164,2.6353,0.2263,0,0,0,0
377.13,1.9199,2.6347,0.22761,0,0,0,0
377.63,1.9235,2.6343,0.22892,0,0,0,0
378.13,1.927,2.6337,0.23013,0,0,0,0
378.63,1.9302,2.633,0.23146,0,0,0,0
379.13,1.9333,2.6323,0.23282,0,0,0,0
379.63,1.9365,2.6317,0.23407,0,0,0,0
380.13,1.94,2.6313,0.2355,0,0,0,0
380.63,1.9431,2.6307,0.23675,0,0,0,0
381.13,1.9462,2.63,0.23813,0,0,0,0
381.63,1.9495,2.629,0.23961,0,0,0,0
382.13,1.9529,2.6283,0.24106,0,0,0,0
382.63,1.9567,2.6274,0.24262,0,0,0,0
383.13,1.96,2.6266,0.24388,0,0,0,0
383.63,1.9636,2.6254,0.24567,0,0,0,0
384.13,1.9668,2.6246,0.24691,0,0,0,0
384.63,1.9702,2.6237,0.24848,0,0,0,0
385.13,1.9735,2.623,0.25003,0,0,0,0
385.63,1.977,2.6217,0.2516,0,0,0,0
386.13,1.98,2.6203,0.25319,0,0,0,0
386.63,1.9835,2.619,0.2548,0,0,0,0
387.13,1.9869,2.618,0.25637,0,0,0,0
387.63,1.9904,2.617,0.25795,0,0,0,0
388.13,1.994,2.6157,0.25951,0,0,0,0
388.63,1.9975,2.6143,0.26124,0,0,0,0
389.13,2.0007,2.6127,0.26277,0,0,0,0
389.63,2.0043,2.6113,0.26431,0,0,0,0
390.13,2.0076,2.6097,0.26589,0,0,0,0
390.63,2.0108,2.6083,0.26764,0,0,0,0
391.13,2.0141,2.607,0.26928,0,0,0,0
391.63,2.0176,2.6057,0.271,0,0,0,0
392.13,2.0212,2.604,0.27284,0,0,0,0
392.63,2.0249,2.602,0.27435,0,0,0,0
393.13,2.0284,2.6,0.27619,0,0,0,0
393.63,2.0317,2.5983,0.27794,0,0,0,0
394.13,2.0353,2.5967,0.27967,0,0,0,0
394.63,2.0385,2.595,0.28132,0,0,0,0
395.13,2.0421,2.593,0.28294,0,0,0,0
395.63,2.0453,2.591,0.28479,0,0,0,0
396.13,2.0489,2.589,0.28671,0,0,0,0
396.63,2.0525,2.587,0.28845,0,0,0,0
397.13,2.0559,2.585,0.29041,0,0,0,0
397.63,2.0597,2.5827,0.29222,0,0,0,0
398.13,2.0632,2.5803,0.29395,0,0,0,0
398.63,2.0669,2.578,0.2959,0,0,0,0
399.13,2.0703,2.5757,0.2976,0,0,0,0
399.63,2.0737,2.5733,0.29947,0,0,0,0
400.13,2.0771,2.571,0.30131,0,0,0,0
400.63,2.0804,2.5687,0.30317,0,0,0,0
401.13,2.0838,2.566,0.30513,0,0,0,0
401.63,2.0877,2.563,0.30702,0,0,0,0
402.13,2.0913,2.56,0.30877,0,0,0,0
402.63,2.0952,2.5573,0.31077,0,0,0,0
403.13,2.0987,2.5547,0.31266,0,0,0,0
403.63,2.1022,2.552,0.31446,0,0,0,0
404.13,2.1058,2.549,0.31659,0,0,0,0
404.63,2.1091,2.546,0.31864,0,0,0,0
405.13,2.1124,2.543,0.32057,0,0,0,0
405.63,2.116,2.54,0.32252,0,0,0,0
406.13,2.1194,2.5367,0.32452,0,0,0,0
406.63,2.1233,2.533,0.32648,0,0,0,0
407.13,2.1271,2.5293,0.32854,0,0,0,0
407.63,2.1309,2.526,0.33055,0,0,0,0
408.13,2.1344,2.5227,0.33258,0,0,0,0
408.63,2.1381,2.519,0.3345,0,0,0,0
409.13,2.1416,2.5153,0.33643,0,0,0,0
409.63,2.1451,2.5117,0.33837,0,0,0,0
410.13,2.1486,2.508,0.34067,0,0,0,0
410.63,2.1521,2.504,0.3426,0,0,0,0
411.13,2.1558,2.4997,0.34475,0,0,0,0
411.63,2.1598,2.4953,0.34701,0,0,0,0
412.13,2.1635,2.491,0.34886,0,0,0,0
412.63,2.1671,2.4867,0.35102,0,0,0,0
413.13,2.1707,2.4823,0.35305,0,0,0,0
413.63,2.1746,2.478,0.3552,0,0,0,0
414.13,2.1782,2.4737,0.3572,0,0,0,0
414.63,2.1816,2.4693,0.35943,0,0,0,0
415.13,2.1853,2.4647,0.36161,0,0,0,0
415.63,2.1889,2.4597,0.36372,0,0,0,0
416.13,2.1926,2.4546,0.36593,0,0,0,0
416.63,2.1965,2.4497,0.36819,0,0,0,0
417.13,2.2005,2.4447,0.37035,0,0,0,0
417.63,2.2042,2.4393,0.37251,0,0,0,0
418.13,2.2081,2.434,0.37487,0,0,0,0
418.63,2.2118,2.4284,0.37704,0,0,0,0
419.13,2.2154,2.4226,0.37923,0,0,0,0
419.63,2.219,2.4164,0.38155,0,0,0,0
420.13,2.2227,2.4103,0.38396,0,0,0,0
420.63,2.2264,2.404,0.38639,0,0,0,0
421.13,2.2305,2.398,0.38862,0,0,0,0
421.63,2.2346,2.3917,0.39095,0,0,0,0
422.13,2.2382,2.3853,0.39345,0,0,0,0
422.63,2.242,2.379,0.39589,0,0,0,0
423.13,2.2461,2.3724,0.39804,0,0,0,0
423.63,2.2497,2.3656,0.40057,0,0,0,0
424.13,2.2537,2.3581,0.40304,0,0,0,0
424.63,2.2575,2.3503,0.4054,0,0,0,0
425.13,2.2614,2.3423,0.40786,0,0,0,0
425.63,2.2655,2.3347,0.41036,0,0,0,0
426.13,2.2696,2.3264,0.41317,0,0,0,0
426.63,2.2739,2.3176,0.41561,0,0,0,0
427.13,2.2781,2.3084,0.41854,0,0,0,0