File: polyN_optimization/results_exp/AA6014-T4/NT6_90_1.csv
Time[s],Displacement[mm],Force[kN],AxStrain_1,AxStrain_2,Thickness[mm],OuterWidth[mm],InnerWidth[mm]
0.64,0,-0.0050318,0,0,1.1161,20,10.071
1.14,-2e-05,0.0036,0.00030695,0,0,0,0
1.64,0.0006,0.013722,-1.2e-05,0,0,0,0
2.14,0.000917,0.036718,2.1e-05,0,0,0,0
2.64,0.001458,0.063423,-4e-06,0,0,0,0
3.14,0.001966,0.087714,0.00011699,0,0,0,0
3.64,0.002197,0.10785,0.00013099,0,0,0,0
4.14,0.002479,0.12657,3.2999e-05,0,0,0,0
4.64,0.002883,0.14385,0.00011099,0,0,0,0
5.14,0.003231,0.16115,0.00010099,0,0,0,0
5.64,0.003478,0.177,-1e-06,0,0,0,0
6.14,0.003379,0.19071,-6.7002e-05,0,0,0,0
6.64,0.003778,0.20286,5.8998e-05,0,0,0,0
7.14,0.003856,0.21543,0.00015699,0,0,0,0
7.64,0.004031,0.22829,0.00017998,0,0,0,0
8.14,0.00477,0.24186,0.00011399,0,0,0,0
8.64,0.005145,0.25729,0.00021598,0,0,0,0
9.14,0.0053,0.27257,0.00026896,0,0,0,0
9.64,0.005705,0.28715,0.00026896,0,0,0,0
10.14,0.005985,0.30143,0.00029896,0,0,0,0
10.64,0.006348,0.31543,0.00034494,0,0,0,0
11.14,0.006511,0.32915,0.00025097,0,0,0,0
11.64,0.006979,0.34314,0.00020198,0,0,0,0
12.14,0.007722,0.357,0.00033294,0,0,0,0
12.64,0.007896,0.37115,0.00035794,0,0,0,0
13.14,0.008288,0.38585,0.00033894,0,0,0,0
13.64,0.008664,0.40115,0.00041591,0,0,0,0
14.14,0.008841,0.417,0.00023197,0,0,0,0
14.64,0.009175,0.43285,0.00036593,0,0,0,0
15.14,0.009232,0.44729,0.00029896,0,0,0,0
15.64,0.009447,0.46186,0.00038293,0,0,0,0
16.14,0.009749,0.47685,0.00019798,0,0,0,0
16.64,0.009954,0.49129,0.00027896,0,0,0,0
17.14,0.010478,0.50586,0.00029496,0,0,0,0
17.64,0.010649,0.522,0.00015799,0,0,0,0
18.14,0.01077,0.53814,0.00038593,0,0,0,0
18.64,0.011227,0.55386,0.00041991,0,0,0,0
19.14,0.011536,0.56885,0.00035294,0,0,0,0
19.64,0.011875,0.58329,0.00037593,0,0,0,0
20.14,0.012278,0.59786,0.00037293,0,0,0,0
20.64,0.012818,0.61314,0.00049388,0,0,0,0
21.14,0.01306,0.62771,0.00042591,0,0,0,0
21.64,0.013792,0.64243,0.00043291,0,0,0,0
22.14,0.014268,0.65871,0.00040992,0,0,0,0
22.64,0.01499,0.67514,0.00056384,0,0,0,0
23.14,0.0154,0.69086,0.00054085,0,0,0,0
23.64,0.015826,0.70614,0.00059382,0,0,0,0
24.14,0.016091,0.721,0.00057084,0,0,0,0
24.64,0.016457,0.73586,0.00056384,0,0,0,0
25.14,0.016679,0.75143,0.00058083,0,0,0,0
25.64,0.017226,0.76643,0.0004499,0,0,0,0
26.14,0.017428,0.78115,0.00058083,0,0,0,0
26.64,0.017609,0.79729,0.0006378,0,0,0,0
27.14,0.017666,0.81357,0.00051986,0,0,0,0
27.64,0.017925,0.82943,0.00050987,0,0,0,0
28.14,0.018213,0.84457,0.00058383,0,0,0,0
28.64,0.018529,0.85929,0.00055085,0,0,0,0
29.14,0.018868,0.87386,0.00069176,0,0,0,0
29.64,0.019405,0.88914,0.00045989,0,0,0,0
30.14,0.019738,0.904,0.00060782,0,0,0,0
30.64,0.020352,0.91886,0.0006378,0,0,0,0
31.14,0.020735,0.935,0.00070475,0,0,0,0
31.64,0.021218,0.95114,0.00065778,0,0,0,0
32.14,0.021802,0.96686,0.0007717,0,0,0,0
32.64,0.022195,0.98185,0.0007717,0,0,0,0
33.14,0.022739,0.99629,0.0008926,0,0,0,0
33.64,0.023364,1.0109,0.00090559,0,0,0,0
34.14,0.023911,1.0259,0.0010105,0,0,0,0
34.64,0.024186,1.04,0.00098651,0,0,0,0
35.14,0.024515,1.0541,0.00087961,0,0,0,0
35.64,0.025009,1.07,0.00088561,0,0,0,0
36.14,0.025355,1.0859,0.0008956,0,0,0,0
36.64,0.02564,1.1011,0.00095654,0,0,0,0
37.14,0.026097,1.1159,0.00087961,0,0,0,0
37.64,0.026493,1.13,0.00088261,0,0,0,0
38.14,0.027037,1.1439,0.0010804,0,0,0,0
38.64,0.027262,1.1581,0.0007787,0,0,0,0
39.14,0.027319,1.1723,0.0009965,0,0,0,0
39.64,0.027869,1.1863,0.0010335,0,0,0,0
40.14,0.02847,1.2016,0.00098651,0,0,0,0
40.64,0.028923,1.2169,0.00093656,0,0,0,0
41.14,0.029541,1.2319,0.00097652,0,0,0,0
41.64,0.030273,1.2461,0.0011144,0,0,0,0
42.14,0.030693,1.2597,0.0012352,0,0,0,0
42.64,0.031264,1.2729,0.0011883,0,0,0,0
43.14,0.031918,1.2864,0.0012882,0,0,0,0
43.64,0.032358,1.2997,0.0012043,0,0,0,0
44.14,0.032902,1.3129,0.0013321,0,0,0,0
44.64,0.033621,1.327,0.0014959,0,0,0,0
45.14,0.034242,1.3411,0.0014859,0,0,0,0
45.64,0.035021,1.3549,0.0015298,0,0,0,0
46.14,0.035588,1.3679,0.0016976,0,0,0,0
46.64,0.036102,1.3797,0.0017175,0,0,0,0
47.14,0.037183,1.3909,0.0017914,0,0,0,0
47.64,0.038368,1.4016,0.002012,0,0,0,0
48.14,0.039758,1.411,0.0022674,0,0,0,0
48.64,0.041124,1.4196,0.0024879,0,0,0,0
49.14,0.042618,1.429,0.0027692,0,0,0,0
49.64,0.04431,1.4384,0.0029397,0,0,0,0
50.14,0.046093,1.4467,0.0033613,0,0,0,0
50.64,0.047785,1.4546,0.003449,0,0,0,0
51.14,0.04938,1.4627,0.0036732,0,0,0,0
51.64,0.051075,1.471,0.0041713,0,0,0,0
52.14,0.052683,1.4787,0.0042948,0,0,0,0
52.64,0.054272,1.486,0.0045725,0,0,0,0
53.14,0.055953,1.4933,0.0049637,0,0,0,0
53.64,0.057767,1.501,0.0052442,0,0,0,0
54.14,0.059633,1.5084,0.0054471,0,0,0,0
54.64,0.061647,1.5156,0.0059314,0,0,0,0
55.14,0.063393,1.5224,0.0064253,0,0,0,0
55.64,0.065572,1.529,0.0065356,0,0,0,0
56.14,0.067573,1.5353,0.0066786,0,0,0,0
56.64,0.069564,1.5417,0.0070491,0,0,0,0
57.14,0.071605,1.548,0.0071395,0,0,0,0
57.64,0.073707,1.5543,0.0072258,0,0,0,0
58.14,0.075543,1.5607,0.0075484,0,0,0,0
58.64,0.077729,1.567,0.0075623,0,0,0,0
59.14,0.079498,1.5727,0.007605,0,0,0,0
59.64,0.081529,1.5786,0.0079384,0,0,0,0
60.14,0.083476,1.5844,0.0081051,0,0,0,0
60.64,0.085682,1.5903,0.0082281,0,0,0,0
61.14,0.087669,1.5957,0.0083679,0,0,0,0
61.64,0.089996,1.601,0.0085682,0,0,0,0
62.14,0.092447,1.6063,0.0089171,0,0,0,0
62.64,0.094783,1.6123,0.0090975,0,0,0,0
63.14,0.09711,1.6181,0.0093502,0,0,0,0
63.64,0.099413,1.6236,0.0097394,0,0,0,0
64.14,0.10147,1.6287,0.010015,0,0,0,0
64.64,0.10375,1.634,0.010473,0,0,0,0
65.14,0.10584,1.639,0.010809,0,0,0,0
65.64,0.10801,1.644,0.011138,0,0,0,0
66.14,0.11022,1.649,0.011356,0,0,0,0
66.64,0.11247,1.654,0.011666,0,0,0,0
67.14,0.1147,1.6593,0.011629,0,0,0,0
67.64,0.11708,1.6644,0.011771,0,0,0,0
68.14,0.11959,1.6696,0.011954,0,0,0,0
68.64,0.12224,1.6744,0.011964,0,0,0,0
69.14,0.12479,1.679,0.01209,0,0,0,0
69.64,0.12728,1.6836,0.012163,0,0,0,0
70.14,0.12968,1.6884,0.012296,0,0,0,0
70.64,0.13193,1.693,0.012422,0,0,0,0
71.14,0.1341,1.6973,0.012683,0,0,0,0
71.64,0.13625,1.7017,0.01274,0,0,0,0
72.14,0.13872,1.7066,0.012969,0,0,0,0
72.64,0.14114,1.7117,0.013353,0,0,0,0
73.14,0.14361,1.7167,0.013515,0,0,0,0
73.64,0.14588,1.721,0.014028,0,0,0,0
74.14,0.14858,1.7253,0.014208,0,0,0,0
74.64,0.15114,1.7297,0.014452,0,0,0,0
75.14,0.15363,1.734,0.014839,0,0,0,0
75.64,0.15619,1.7383,0.015095,0,0,0,0
76.14,0.15869,1.7427,0.015451,0,0,0,0
76.64,0.16109,1.7473,0.015772,0,0,0,0
77.14,0.1635,1.7517,0.015752,0,0,0,0
77.64,0.16591,1.756,0.016006,0,0,0,0
78.14,0.16829,1.76,0.015999,0,0,0,0
78.64,0.17054,1.7643,0.016237,0,0,0,0
79.14,0.17324,1.7687,0.016162,0,0,0,0
79.64,0.17587,1.7727,0.01634,0,0,0,0
80.14,0.17861,1.7766,0.016614,0,0,0,0
80.64,0.18121,1.7804,0.016568,0,0,0,0
81.14,0.18386,1.7846,0.016796,0,0,0,0
81.64,0.1864,1.789,0.017036,0,0,0,0
82.14,0.18891,1.7934,0.017201,0,0,0,0
82.64,0.19149,1.7973,0.017268,0,0,0,0
83.14,0.1936,1.801,0.01768,0,0,0,0
83.64,0.1963,1.805,0.017806,0,0,0,0
84.14,0.19875,1.809,0.01828,0,0,0,0
84.64,0.20118,1.813,0.018567,0,0,0,0
85.14,0.20391,1.817,0.018679,0,0,0,0
85.64,0.20652,1.821,0.018976,0,0,0,0
86.14,0.20918,1.825,0.019311,0,0,0,0
86.64,0.21199,1.829,0.019305,0,0,0,0
87.14,0.21468,1.8327,0.019536,0,0,0,0
87.64,0.21706,1.8363,0.01973,0,0,0,0
88.14,0.21979,1.84,0.019914,0,0,0,0
88.64,0.22209,1.8437,0.020007,0,0,0,0
89.14,0.22464,1.8473,0.020102,0,0,0,0
89.64,0.22724,1.8513,0.02025,0,0,0,0
90.14,0.22962,1.8554,0.02046,0,0,0,0
90.64,0.23219,1.8593,0.020716,0,0,0,0
91.14,0.23522,1.863,0.020933,0,0,0,0
91.64,0.23779,1.8667,0.02097,0,0,0,0
92.14,0.24055,1.8703,0.021088,0,0,0,0
92.64,0.24328,1.8737,0.021499,0,0,0,0
93.14,0.24592,1.877,0.021519,0,0,0,0
93.64,0.24831,1.8803,0.021771,0,0,0,0
94.14,0.25094,1.884,0.022001,0,0,0,0
94.64,0.25331,1.8877,0.022156,0,0,0,0
95.14,0.25575,1.8913,0.022537,0,0,0,0
95.64,0.25818,1.8947,0.022697,0,0,0,0
96.14,0.26132,1.8983,0.022845,0,0,0,0
96.64,0.26378,1.9017,0.023108,0,0,0,0
97.14,0.26667,1.905,0.02321,0,0,0,0
97.64,0.26937,1.9083,0.023301,0,0,0,0
98.14,0.27217,1.9117,0.023672,0,0,0,0
98.64,0.27481,1.9153,0.023891,0,0,0,0
99.14,0.27718,1.9187,0.023901,0,0,0,0
99.64,0.27977,1.9223,0.024128,0,0,0,0
100.14,0.28211,1.9257,0.024297,0,0,0,0
100.64,0.28498,1.929,0.024393,0,0,0,0
101.14,0.28748,1.9323,0.024632,0,0,0,0
101.64,0.29007,1.9357,0.024753,0,0,0,0
102.14,0.29276,1.939,0.024914,0,0,0,0
102.64,0.29567,1.942,0.02513,0,0,0,0
103.14,0.29856,1.9453,0.025336,0,0,0,0
103.64,0.30119,1.9487,0.025604,0,0,0,0
104.14,0.30387,1.952,0.025811,0,0,0,0
104.64,0.30664,1.955,0.025935,0,0,0,0
105.14,0.3091,1.958,0.026059,0,0,0,0
105.64,0.31163,1.9613,0.026412,0,0,0,0
106.14,0.31418,1.9647,0.026576,0,0,0,0
106.64,0.31682,1.9677,0.026795,0,0,0,0
107.14,0.31953,1.9706,0.026929,0,0,0,0
107.64,0.32221,1.974,0.027024,0,0,0,0
108.14,0.32521,1.9774,0.027276,0,0,0,0
108.64,0.3281,1.9806,0.027327,0,0,0,0
109.14,0.3309,1.9837,0.027533,0,0,0,0
109.64,0.33351,1.9867,0.027765,0,0,0,0
110.14,0.33612,1.9896,0.027955,0,0,0,0
110.64,0.33891,1.9924,0.028085,0,0,0,0
111.14,0.34165,1.9953,0.028399,0,0,0,0
111.64,0.34409,1.9983,0.028549,0,0,0,0
112.14,0.34667,2.0017,0.028758,0,0,0,0
112.64,0.34953,2.0047,0.029051,0,0,0,0
113.14,0.35225,2.0076,0.029149,0,0,0,0
113.64,0.35515,2.0107,0.029474,0,0,0,0
114.14,0.35808,2.0137,0.029637,0,0,0,0
114.64,0.36096,2.0166,0.029834,0,0,0,0
115.14,0.36379,2.0194,0.029866,0,0,0,0
115.64,0.36641,2.0223,0.030159,0,0,0,0
116.14,0.36899,2.025,0.030257,0,0,0,0
116.64,0.37165,2.0283,0.030453,0,0,0,0
117.14,0.37435,2.0314,0.030616,0,0,0,0
117.64,0.37701,2.0343,0.030648,0,0,0,0
118.14,0.37982,2.037,0.03081,0,0,0,0
118.64,0.38265,2.0397,0.03094,0,0,0,0
119.14,0.38542,2.0423,0.031266,0,0,0,0
119.64,0.38833,2.045,0.031429,0,0,0,0
120.14,0.39135,2.0477,0.031722,0,0,0,0
120.64,0.39406,2.0503,0.031884,0,0,0,0
121.14,0.39679,2.0533,0.032242,0,0,0,0
121.64,0.39948,2.0564,0.032275,0,0,0,0
122.14,0.40215,2.0593,0.032436,0,0,0,0
122.64,0.40494,2.062,0.032632,0,0,0,0
123.14,0.40747,2.0647,0.032892,0,0,0,0
123.64,0.41015,2.0673,0.032989,0,0,0,0
124.14,0.41305,2.0697,0.033346,0,0,0,0
124.64,0.41592,2.0723,0.033574,0,0,0,0
125.14,0.41891,2.075,0.033736,0,0,0,0
125.64,0.42183,2.078,0.033866,0,0,0,0
126.14,0.42483,2.0807,0.034125,0,0,0,0
126.64,0.42754,2.0833,0.03432,0,0,0,0
127.14,0.43028,2.086,0.034287,0,0,0,0
127.64,0.43302,2.0887,0.034418,0,0,0,0
128.14,0.43563,2.0913,0.034741,0,0,0,0
128.64,0.43831,2.0937,0.034904,0,0,0,0
129.14,0.44097,2.0963,0.035196,0,0,0,0
129.64,0.44377,2.0987,0.035261,0,0,0,0
130.14,0.44684,2.1013,0.035487,0,0,0,0
130.63,0.44967,2.1037,0.035779,0,0,0,0
131.14,0.4528,2.1063,0.035844,0,0,0,0
131.63,0.4556,2.109,0.036135,0,0,0,0
132.14,0.45832,2.1117,0.036168,0,0,0,0
132.64,0.46107,2.1143,0.036459,0,0,0,0
133.14,0.46369,2.1167,0.036686,0,0,0,0
133.63,0.46636,2.119,0.03688,0,0,0,0
134.13,0.46896,2.1213,0.037009,0,0,0,0
134.63,0.47183,2.124,0.037171,0,0,0,0
135.14,0.47469,2.1267,0.037461,0,0,0,0
135.64,0.47748,2.129,0.037592,0,0,0,0
136.14,0.48057,2.1313,0.037785,0,0,0,0
136.63,0.48364,2.1337,0.03785,0,0,0,0
137.13,0.48637,2.136,0.03814,0,0,0,0
137.64,0.48919,2.1383,0.038238,0,0,0,0
138.14,0.49203,2.1407,0.038561,0,0,0,0
138.64,0.49475,2.143,0.038561,0,0,0,0
139.13,0.49733,2.145,0.038787,0,0,0,0
139.63,0.50016,2.1473,0.039175,0,0,0,0
140.14,0.50287,2.15,0.039142,0,0,0,0
140.63,0.5057,2.1527,0.039401,0,0,0,0
141.14,0.50863,2.155,0.039529,0,0,0,0
141.63,0.51168,2.157,0.03982,0,0,0,0
142.13,0.51452,2.1593,0.039884,0,0,0,0
142.64,0.51759,2.1617,0.039948,0,0,0,0
143.14,0.52026,2.164,0.040465,0,0,0,0
143.63,0.52282,2.1663,0.040529,0,0,0,0
144.13,0.52554,2.1687,0.040691,0,0,0,0
144.64,0.5283,2.171,0.040884,0,0,0,0
145.13,0.53102,2.173,0.040949,0,0,0,0
145.63,0.53408,2.175,0.041109,0,0,0,0
146.13,0.53684,2.1773,0.041303,0,0,0,0
146.63,0.53978,2.1797,0.04156,0,0,0,0
147.14,0.54283,2.182,0.041786,0,0,0,0
147.64,0.54574,2.184,0.041979,0,0,0,0
148.13,0.54866,2.186,0.042205,0,0,0,0
148.64,0.55153,2.188,0.042333,0,0,0,0
149.13,0.55441,2.1903,0.042527,0,0,0,0
149.64,0.55688,2.1927,0.042655,0,0,0,0
150.13,0.55992,2.195,0.042816,0,0,0,0
150.64,0.56241,2.197,0.043009,0,0,0,0
151.14,0.56536,2.1993,0.043234,0,0,0,0
151.64,0.56821,2.2014,0.043298,0,0,0,0
152.13,0.57114,2.2036,0.043651,0,0,0,0
152.63,0.57433,2.2057,0.043748,0,0,0,0
153.13,0.57737,2.208,0.043941,0,0,0,0
153.63,0.58023,2.21,0.044262,0,0,0,0
154.14,0.58307,2.212,0.044423,0,0,0,0
154.63,0.58591,2.2137,0.044519,0,0,0,0
155.14,0.58849,2.2156,0.044936,0,0,0,0
155.63,0.59141,2.2177,0.044969,0,0,0,0
156.13,0.59413,2.22,0.045225,0,0,0,0
156.63,0.59691,2.222,0.045321,0,0,0,0
157.14,0.59977,2.2243,0.045578,0,0,0,0
157.64,0.60291,2.2264,0.045931,0,0,0,0
158.13,0.60609,2.2286,0.046059,0,0,0,0
158.63,0.60928,2.2304,0.046316,0,0,0,0
159.13,0.61219,2.2323,0.046476,0,0,0,0
159.63,0.61529,2.2343,0.046572,0,0,0,0
160.13,0.61782,2.2364,0.046828,0,0,0,0
160.64,0.62031,2.2383,0.047052,0,0,0,0
161.14,0.62298,2.2403,0.047117,0,0,0,0
161.63,0.62556,2.2427,0.047245,0,0,0,0
162.13,0.62947,2.2447,0.047597,0,0,0,0
162.63,0.63216,2.2466,0.047597,0,0,0,0
163.13,0.6354,2.2484,0.047854,0,0,0,0
163.63,0.63818,2.2503,0.048078,0,0,0,0
164.13,0.64141,2.252,0.048333,0,0,0,0
164.64,0.64399,2.254,0.048461,0,0,0,0
165.13,0.6465,2.256,0.048589,0,0,0,0
165.64,0.64956,2.258,0.048877,0,0,0,0
166.13,0.65273,2.26,0.049101,0,0,0,0
166.64,0.65527,2.262,0.049228,0,0,0,0
167.13,0.65778,2.264,0.049548,0,0,0,0
167.63,0.66078,2.266,0.049644,0,0,0,0
168.13,0.66379,2.268,0.049995,0,0,0,0
168.63,0.66703,2.27,0.050091,0,0,0,0
169.13,0.67014,2.2717,0.050186,0,0,0,0
169.63,0.67296,2.2733,0.050634,0,0,0,0
170.13,0.67593,2.275,0.050666,0,0,0,0
170.63,0.67883,2.2773,0.050825,0,0,0,0
171.13,0.68143,2.2794,0.051208,0,0,0,0
171.63,0.68401,2.2813,0.0514,0,0,0,0
172.13,0.68672,2.2827,0.051431,0,0,0,0
172.64,0.68978,2.2843,0.051718,0,0,0,0
173.13,0.69268,2.286,0.051845,0,0,0,0
173.63,0.69543,2.288,0.052037,0,0,0,0
174.13,0.69879,2.2897,0.052133,0,0,0,0
174.63,0.70182,2.2913,0.05242,0,0,0,0
175.13,0.70502,2.2933,0.052547,0,0,0,0
175.63,0.70761,2.2954,0.052897,0,0,0,0
176.13,0.71011,2.2973,0.052897,0,0,0,0
176.63,0.71311,2.299,0.053121,0,0,0,0
177.13,0.71583,2.301,0.053344,0,0,0,0
177.63,0.71869,2.303,0.053598,0,0,0,0
178.13,0.72158,2.3047,0.053884,0,0,0,0
178.63,0.72444,2.3063,0.054106,0,0,0,0
179.14,0.72753,2.308,0.054075,0,0,0,0
179.63,0.73041,2.3097,0.054488,0,0,0,0
180.13,0.73389,2.3113,0.054711,0,0,0,0
180.64,0.73698,2.313,0.055029,0,0,0,0
181.14,0.7399,2.315,0.05522,0,0,0,0
181.63,0.74259,2.3167,0.055092,0,0,0,0
182.13,0.74555,2.3183,0.055506,0,0,0,0
182.63,0.74789,2.32,0.055696,0,0,0,0
183.13,0.75073,2.3217,0.055886,0,0,0,0
183.63,0.75358,2.3233,0.056172,0,0,0,0
184.13,0.75665,2.325,0.05614,0,0,0,0
184.63,0.75939,2.3267,0.056458,0,0,0,0
185.13,0.76263,2.3283,0.056743,0,0,0,0
185.63,0.76586,2.33,0.056902,0,0,0,0
186.13,0.76863,2.332,0.056965,0,0,0,0
186.63,0.77142,2.334,0.057409,0,0,0,0
187.13,0.7744,2.3357,0.057409,0,0,0,0
187.63,0.77711,2.337,0.057663,0,0,0,0
188.13,0.78009,2.3383,0.057885,0,0,0,0
188.63,0.78255,2.34,0.058011,0,0,0,0
189.13,0.78552,2.342,0.058423,0,0,0,0
189.63,0.78853,2.3437,0.058676,0,0,0,0
190.13,0.79158,2.3453,0.058803,0,0,0,0
190.63,0.79457,2.347,0.058898,0,0,0,0
191.13,0.7977,2.349,0.059152,0,0,0,0
191.63,0.80068,2.3507,0.059499,0,0,0,0
192.13,0.80346,2.352,0.059594,0,0,0,0
192.64,0.80645,2.3533,0.059879,0,0,0,0
193.13,0.80906,2.355,0.060068,0,0,0,0
193.63,0.81184,2.357,0.060353,0,0,0,0
194.13,0.8148,2.3587,0.060417,0,0,0,0
194.63,0.81785,2.3603,0.060669,0,0,0,0
195.13,0.82077,2.3617,0.060953,0,0,0,0
195.63,0.82398,2.3633,0.061174,0,0,0,0
196.13,0.82716,2.3647,0.061427,0,0,0,0
196.63,0.83014,2.3663,0.061553,0,0,0,0
197.13,0.833,2.368,0.061869,0,0,0,0
197.63,0.83615,2.3697,0.062059,0,0,0,0
198.13,0.83869,2.371,0.062185,0,0,0,0
198.63,0.84177,2.3723,0.062532,0,0,0,0
199.13,0.84453,2.374,0.062594,0,0,0,0
199.63,0.84726,2.3757,0.062878,0,0,0,0
200.13,0.85025,2.3773,0.063099,0,0,0,0
200.63,0.85344,2.3787,0.063414,0,0,0,0
201.13,0.85646,2.3803,0.063414,0,0,0,0
201.63,0.85953,2.382,0.063698,0,0,0,0
202.13,0.86249,2.3837,0.064013,0,0,0,0
202.63,0.8654,2.3853,0.064107,0,0,0,0
203.13,0.86828,2.3867,0.064454,0,0,0,0
203.63,0.8712,2.3883,0.064579,0,0,0,0
204.13,0.87403,2.3897,0.064831,0,0,0,0
204.63,0.87688,2.3913,0.064926,0,0,0,0
205.13,0.88,2.3927,0.06524,0,0,0,0
205.63,0.8829,2.3943,0.065492,0,0,0,0
206.13,0.88587,2.3957,0.065838,0,0,0,0
206.63,0.88917,2.3973,0.066026,0,0,0,0
207.13,0.89228,2.3987,0.066184,0,0,0,0
207.63,0.89533,2.4,0.066309,0,0,0,0
208.13,0.89831,2.4013,0.066655,0,0,0,0
208.63,0.9009,2.4027,0.066937,0,0,0,0
209.13,0.90368,2.4043,0.067031,0,0,0,0
209.63,0.90676,2.4057,0.067314,0,0,0,0
210.13,0.90954,2.4073,0.067408,0,0,0,0
210.63,0.91256,2.4087,0.067659,0,0,0,0
211.13,0.91574,2.4103,0.067973,0,0,0,0
211.63,0.91904,2.4117,0.068099,0,0,0,0
212.13,0.92186,2.4133,0.068286,0,0,0,0
212.63,0.92492,2.4147,0.068475,0,0,0,0
213.13,0.92786,2.4163,0.068725,0,0,0,0
213.63,0.93104,2.4177,0.068976,0,0,0,0
214.13,0.93387,2.419,0.069258,0,0,0,0
214.63,0.93662,2.4203,0.069446,0,0,0,0
215.13,0.93886,2.4217,0.069634,0,0,0,0
215.63,0.94169,2.4233,0.069916,0,0,0,0
216.13,0.94472,2.4247,0.070197,0,0,0,0
216.63,0.94768,2.426,0.070417,0,0,0,0
217.13,0.95018,2.4273,0.070636,0,0,0,0
217.63,0.95446,2.4287,0.070886,0,0,0,0
218.13,0.95713,2.4303,0.071136,0,0,0,0
218.63,0.96016,2.4317,0.071449,0,0,0,0
219.13,0.96294,2.4333,0.071573,0,0,0,0
219.63,0.96562,2.4347,0.071792,0,0,0,0
220.13,0.96874,2.436,0.072042,0,0,0,0
220.63,0.97136,2.4373,0.072229,0,0,0,0
221.13,0.97441,2.4387,0.072574,0,0,0,0
221.63,0.97735,2.44,0.072698,0,0,0,0
222.13,0.98029,2.441,0.072885,0,0,0,0
222.63,0.98347,2.4423,0.073228,0,0,0,0
223.13,0.9865,2.4437,0.073354,0,0,0,0
223.63,0.9896,2.445,0.073604,0,0,0,0
224.13,0.99228,2.4463,0.07379,0,0,0,0
224.63,0.99519,2.4477,0.074321,0,0,0,0
225.13,0.99808,2.4493,0.074507,0,0,0,0
225.63,1.0008,2.4507,0.074726,0,0,0,0
226.13,1.0036,2.452,0.074882,0,0,0,0
226.63,1.0065,2.453,0.075224,0,0,0,0
227.13,1.0095,2.4543,0.075411,0,0,0,0
227.63,1.0125,2.4557,0.075691,0,0,0,0
228.13,1.0158,2.457,0.07594,0,0,0,0
228.63,1.0188,2.4583,0.076314,0,0,0,0
229.13,1.0218,2.4597,0.076469,0,0,0,0
229.63,1.0248,2.461,0.076718,0,0,0,0
230.13,1.0276,2.4623,0.076843,0,0,0,0
230.63,1.0304,2.4637,0.077091,0,0,0,0
231.13,1.0333,2.465,0.077527,0,0,0,0
231.63,1.0363,2.4663,0.077681,0,0,0,0
232.13,1.0392,2.4677,0.077868,0,0,0,0
232.63,1.0421,2.469,0.078054,0,0,0,0
233.13,1.0456,2.47,0.078489,0,0,0,0
233.63,1.0485,2.4713,0.078737,0,0,0,0
234.13,1.0516,2.4727,0.078923,0,0,0,0
234.63,1.0545,2.474,0.079233,0,0,0,0
235.13,1.0574,2.475,0.079451,0,0,0,0
235.63,1.0602,2.476,0.079729,0,0,0,0
236.13,1.0629,2.4773,0.080101,0,0,0,0
236.63,1.0658,2.4787,0.080257,0,0,0,0
237.13,1.0687,2.4803,0.080535,0,0,0,0
237.63,1.0718,2.4817,0.080845,0,0,0,0
238.13,1.0749,2.483,0.081031,0,0,0,0
238.63,1.0781,2.484,0.08131,0,0,0,0
239.13,1.0811,2.485,0.081495,0,0,0,0
239.63,1.0842,2.4863,0.081867,0,0,0,0
240.13,1.0871,2.4877,0.081898,0,0,0,0
240.63,1.0898,2.489,0.082331,0,0,0,0
241.13,1.0926,2.49,0.082547,0,0,0,0
241.63,1.0954,2.491,0.082671,0,0,0,0
242.13,1.0985,2.492,0.08301,0,0,0,0
242.63,1.1015,2.4933,0.08335,0,0,0,0
243.13,1.1045,2.4947,0.083659,0,0,0,0
243.63,1.1077,2.496,0.083875,0,0,0,0
244.13,1.1106,2.497,0.084091,0,0,0,0
244.63,1.1136,2.498,0.084246,0,0,0,0
245.13,1.1167,2.4993,0.084616,0,0,0,0
245.63,1.1197,2.5007,0.084832,0,0,0,0
246.13,1.1226,2.502,0.085233,0,0,0,0
246.63,1.1252,2.503,0.085479,0,0,0,0
247.13,1.1282,2.504,0.085818,0,0,0,0
247.63,1.1309,2.505,0.086035,0,0,0,0
248.13,1.1337,2.506,0.08625,0,0,0,0
248.63,1.1366,2.5073,0.086558,0,0,0,0
249.13,1.14,2.5084,0.086897,0,0,0,0
249.63,1.1431,2.5096,0.087143,0,0,0,0
250.13,1.146,2.5107,0.087481,0,0,0,0
250.63,1.149,2.512,0.087513,0,0,0,0
251.13,1.152,2.513,0.087758,0,0,0,0
251.63,1.1546,2.514,0.088127,0,0,0,0
252.13,1.1575,2.515,0.088404,0,0,0,0
252.63,1.1603,2.516,0.088619,0,0,0,0
253.13,1.1632,2.5173,0.088895,0,0,0,0
253.63,1.1661,2.5187,0.08908,0,0,0,0
254.13,1.1692,2.52,0.08948,0,0,0,0
254.63,1.1724,2.521,0.089601,0,0,0,0
255.13,1.1754,2.522,0.089878,0,0,0,0
255.63,1.1785,2.523,0.090491,0,0,0,0
256.13,1.1814,2.524,0.090615,0,0,0,0
256.63,1.1842,2.525,0.09089,0,0,0,0
257.13,1.1872,2.526,0.09132,0,0,0,0
257.63,1.1899,2.527,0.091442,0,0,0,0
258.13,1.1927,2.528,0.09181,0,0,0,0
258.63,1.1955,2.529,0.092208,0,0,0,0
259.13,1.1987,2.53,0.092391,0,0,0,0
259.63,1.2014,2.531,0.092729,0,0,0,0
260.13,1.2047,2.532,0.093035,0,0,0,0
260.63,1.2078,2.5333,0.093401,0,0,0,0
261.13,1.2105,2.5347,0.093737,0,0,0,0
261.63,1.2136,2.536,0.093983,0,0,0,0
262.13,1.2166,2.537,0.094196,0,0,0,0
262.63,1.2192,2.538,0.094349,0,0,0,0
263.13,1.2222,2.539,0.094776,0,0,0,0
263.63,1.225,2.54,0.095052,0,0,0,0
264.13,1.2281,2.541,0.095387,0,0,0,0
264.63,1.2311,2.542,0.095601,0,0,0,0
265.13,1.2341,2.543,0.095815,0,0,0,0
265.63,1.2372,2.5437,0.096211,0,0,0,0
266.13,1.2403,2.5443,0.096485,0,0,0,0
266.63,1.2432,2.5453,0.096851,0,0,0,0
267.13,1.2461,2.5467,0.097125,0,0,0,0
267.63,1.249,2.548,0.097491,0,0,0,0
268.13,1.2518,2.5487,0.097765,0,0,0,0
268.63,1.2546,2.5493,0.098039,0,0,0,0
269.13,1.2575,2.55,0.098374,0,0,0,0
269.63,1.2604,2.5513,0.098769,0,0,0,0
270.13,1.2636,2.5524,0.099225,0,0,0,0
270.63,1.2668,2.5533,0.09965,0,0,0,0
271.13,1.2699,2.554,0.099894,0,0,0,0
271.63,1.273,2.555,0.1002,0,0,0,0
272.13,1.276,2.5563,0.10038,0,0,0,0
272.63,1.2787,2.5577,0.10071,0,0,0,0
273.13,1.2815,2.5587,0.10114,0,0,0,0
273.63,1.2843,2.5593,0.10138,0,0,0,0
274.13,1.2871,2.5603,0.10175,0,0,0,0
274.63,1.2902,2.5614,0.1019,0,0,0,0
275.13,1.2931,2.5623,0.10226,0,0,0,0
275.63,1.2963,2.563,0.10265,0,0,0,0
276.13,1.2995,2.564,0.10287,0,0,0,0
276.63,1.3026,2.565,0.1032,0,0,0,0
277.13,1.3058,2.566,0.1035,0,0,0,0
277.63,1.3086,2.567,0.10399,0,0,0,0
278.13,1.3115,2.568,0.10429,0,0,0,0
278.63,1.3143,2.569,0.10471,0,0,0,0
279.13,1.3171,2.57,0.10502,0,0,0,0
279.63,1.3202,2.5707,0.10538,0,0,0,0
280.13,1.3232,2.5713,0.10577,0,0,0,0
280.63,1.3263,2.572,0.10595,0,0,0,0
281.13,1.3295,2.573,0.10644,0,0,0,0
281.63,1.3327,2.574,0.10686,0,0,0,0
282.13,1.3356,2.575,0.10713,0,0,0,0
282.63,1.3386,2.576,0.10767,0,0,0,0
283.13,1.3417,2.577,0.10788,0,0,0,0
283.63,1.3445,2.5777,0.10822,0,0,0,0
284.13,1.3474,2.5783,0.10873,0,0,0,0
284.63,1.3503,2.579,0.10891,0,0,0,0
285.13,1.3533,2.58,0.1093,0,0,0,0
285.63,1.3565,2.581,0.10984,0,0,0,0
286.13,1.3595,2.582,0.11011,0,0,0,0
286.63,1.3627,2.5827,0.11044,0,0,0,0
287.13,1.3658,2.5833,0.1108,0,0,0,0
287.63,1.3689,2.5843,0.11114,0,0,0,0
288.13,1.3719,2.5854,0.11137,0,0,0,0
288.63,1.3749,2.5863,0.11176,0,0,0,0
289.13,1.3778,2.587,0.1121,0,0,0,0
289.63,1.381,2.588,0.11255,0,0,0,0
290.13,1.3837,2.589,0.11288,0,0,0,0
290.63,1.3868,2.5897,0.11326,0,0,0,0
291.13,1.39,2.5903,0.11365,0,0,0,0
291.63,1.3931,2.591,0.11404,0,0,0,0
292.13,1.3967,2.5917,0.11449,0,0,0,0
292.63,1.3996,2.5923,0.1147,0,0,0,0
293.13,1.4023,2.593,0.1153,0,0,0,0
293.63,1.4054,2.594,0.11554,0,0,0,0
294.13,1.4081,2.595,0.11596,0,0,0,0
294.63,1.411,2.596,0.11635,0,0,0,0
295.13,1.414,2.5967,0.11689,0,0,0,0
295.63,1.4172,2.5973,0.11713,0,0,0,0
296.13,1.42,2.598,0.11769,0,0,0,0
296.63,1.4231,2.599,0.11826,0,0,0,0
297.13,1.4263,2.5997,0.11832,0,0,0,0
297.63,1.4295,2.6003,0.1188,0,0,0,0
298.13,1.4326,2.601,0.11921,0,0,0,0
298.63,1.4357,2.6017,0.11951,0,0,0,0
299.13,1.4386,2.6023,0.1199,0,0,0,0
299.63,1.4415,2.603,0.12023,0,0,0,0
300.13,1.4445,2.604,0.12055,0,0,0,0
300.63,1.4476,2.6047,0.12097,0,0,0,0
301.13,1.4504,2.6053,0.12136,0,0,0,0
301.63,1.4536,2.606,0.12171,0,0,0,0
302.13,1.4565,2.607,0.12216,0,0,0,0
302.63,1.4597,2.608,0.12258,0,0,0,0
303.13,1.463,2.6087,0.12311,0,0,0,0
303.63,1.466,2.6093,0.12344,0,0,0,0
304.13,1.4691,2.6097,0.12394,0,0,0,0
304.63,1.4721,2.6103,0.12436,0,0,0,0
305.13,1.4748,2.611,0.12465,0,0,0,0
305.63,1.4778,2.612,0.12516,0,0,0,0
306.13,1.4808,2.6127,0.1256,0,0,0,0
306.63,1.4838,2.6133,0.12602,0,0,0,0
307.13,1.487,2.614,0.12643,0,0,0,0
307.63,1.4902,2.6147,0.12679,0,0,0,0
308.13,1.4934,2.6153,0.12726,0,0,0,0
308.63,1.4964,2.616,0.12767,0,0,0,0
309.13,1.4994,2.6167,0.12818,0,0,0,0
309.63,1.5024,2.6173,0.12886,0,0,0,0
310.13,1.5052,2.618,0.129,0,0,0,0
310.63,1.5081,2.6187,0.12962,0,0,0,0
311.13,1.5111,2.6193,0.12992,0,0,0,0
311.63,1.5141,2.62,0.13045,0,0,0,0
312.13,1.5173,2.6207,0.13092,0,0,0,0
312.63,1.5206,2.6213,0.13142,0,0,0,0
313.13,1.524,2.6217,0.1318,0,0,0,0
313.63,1.5265,2.6223,0.13224,0,0,0,0
314.13,1.5298,2.623,0.13268,0,0,0,0
314.63,1.5329,2.624,0.1331,0,0,0,0
315.13,1.5365,2.6247,0.1336,0,0,0,0
315.63,1.5393,2.625,0.13404,0,0,0,0
316.13,1.5421,2.6253,0.13448,0,0,0,0
316.63,1.5453,2.6257,0.13503,0,0,0,0
317.13,1.5483,2.6263,0.13559,0,0,0,0
317.63,1.5515,2.627,0.13612,0,0,0,0
318.13,1.5546,2.6277,0.13656,0,0,0,0
318.63,1.558,2.6283,0.1372,0,0,0,0
319.13,1.5609,2.629,0.1377,0,0,0,0
319.63,1.5639,2.6297,0.1382,0,0,0,0
320.13,1.567,2.6303,0.13869,0,0,0,0
320.63,1.5698,2.6307,0.13907,0,0,0,0
321.13,1.5729,2.6313,0.13969,0,0,0,0
321.63,1.5758,2.6317,0.14009,0,0,0,0
322.13,1.579,2.6323,0.14071,0,0,0,0
322.63,1.5819,2.6327,0.14106,0,0,0,0
323.13,1.5855,2.6333,0.14173,0,0,0,0
323.63,1.5888,2.6337,0.14205,0,0,0,0
324.13,1.5921,2.6343,0.14281,0,0,0,0
324.63,1.595,2.6347,0.14318,0,0,0,0
325.13,1.5981,2.6353,0.14374,0,0,0,0
325.63,1.6012,2.6357,0.14435,0,0,0,0
326.13,1.6036,2.6363,0.14493,0,0,0,0
326.63,1.6072,2.6367,0.14542,0,0,0,0
327.13,1.6099,2.6373,0.14603,0,0,0,0
327.63,1.6133,2.6377,0.14661,0,0,0,0
328.13,1.6159,2.6383,0.14725,0,0,0,0
328.63,1.6197,2.6387,0.14769,0,0,0,0
329.13,1.6229,2.6393,0.14824,0,0,0,0
329.63,1.6259,2.6397,0.1489,0,0,0,0
330.13,1.6292,2.6403,0.14934,0,0,0,0
330.63,1.6319,2.6407,0.14992,0,0,0,0
331.13,1.6351,2.6413,0.15055,0,0,0,0
331.63,1.638,2.6417,0.15116,0,0,0,0
332.13,1.641,2.6423,0.15156,0,0,0,0
332.63,1.6439,2.6427,0.1522,0,0,0,0
333.13,1.647,2.643,0.15283,0,0,0,0
333.63,1.6506,2.6433,0.1537,0,0,0,0
334.13,1.654,2.6437,0.15416,0,0,0,0
334.63,1.6572,2.6443,0.15482,0,0,0,0
335.13,1.6602,2.6447,0.15542,0,0,0,0
335.63,1.663,2.645,0.15623,0,0,0,0
336.13,1.6665,2.6453,0.15677,0,0,0,0
336.63,1.6692,2.6457,0.15738,0,0,0,0
337.13,1.6724,2.6463,0.15801,0,0,0,0
337.63,1.6753,2.6467,0.15867,0,0,0,0
338.13,1.6784,2.647,0.15927,0,0,0,0
338.63,1.6817,2.647,0.1599,0,0,0,0
339.13,1.6854,2.6473,0.16058,0,0,0,0
339.63,1.6876,2.6477,0.16121,0,0,0,0
340.13,1.6915,2.648,0.16184,0,0,0,0
340.63,1.6949,2.6483,0.16264,0,0,0,0
341.13,1.6978,2.6487,0.16321,0,0,0,0
341.63,1.7009,2.6493,0.16392,0,0,0,0
342.13,1.7038,2.6494,0.16469,0,0,0,0
342.63,1.7069,2.6496,0.16543,0,0,0,0
343.13,1.7102,2.6497,0.16612,0,0,0,0
343.63,1.7141,2.65,0.16691,0,0,0,0
344.13,1.7179,2.6503,0.1677,0,0,0,0
344.63,1.7203,2.6507,0.16836,0,0,0,0
345.13,1.7232,2.651,0.16915,0,0,0,0
345.63,1.7262,2.651,0.16992,0,0,0,0
346.13,1.7291,2.651,0.17071,0,0,0,0
346.63,1.7325,2.6513,0.17133,0,0,0,0
347.13,1.7354,2.6517,0.17209,0,0,0,0
347.63,1.7382,2.652,0.17291,0,0,0,0
348.13,1.7415,2.6523,0.17359,0,0,0,0
348.63,1.745,2.6527,0.17447,0,0,0,0
349.13,1.7486,2.653,0.17528,0,0,0,0
349.63,1.7519,2.653,0.17599,0,0,0,0
350.13,1.7551,2.653,0.17706,0,0,0,0
350.63,1.7582,2.653,0.17773,0,0,0,0
351.13,1.7615,2.653,0.17869,0,0,0,0
351.63,1.7645,2.653,0.17959,0,0,0,0
352.13,1.7676,2.653,0.1804,0,0,0,0
352.63,1.7708,2.6533,0.18127,0,0,0,0
353.13,1.7741,2.6537,0.18205,0,0,0,0
353.63,1.7773,2.6537,0.18292,0,0,0,0
354.13,1.7806,2.6536,0.18396,0,0,0,0
354.63,1.7838,2.6537,0.1848,0,0,0,0
355.13,1.787,2.654,0.18563,0,0,0,0
355.63,1.7904,2.654,0.18642,0,0,0,0
356.13,1.7935,2.654,0.1875,0,0,0,0
356.63,1.7967,2.654,0.18831,0,0,0,0
357.13,1.7999,2.654,0.18917,0,0,0,0
357.63,1.8029,2.654,0.1904,0,0,0,0
358.13,1.8062,2.6543,0.19123,0,0,0,0
358.63,1.8095,2.6544,0.19206,0,0,0,0
359.13,1.813,2.6543,0.1932,0,0,0,0
359.63,1.8164,2.654,0.19409,0,0,0,0
360.13,1.8198,2.654,0.19508,0,0,0,0
360.63,1.8231,2.654,0.19619,0,0,0,0
361.13,1.8261,2.654,0.19721,0,0,0,0
361.63,1.8293,2.654,0.19817,0,0,0,0
362.13,1.8325,2.6537,0.19933,0,0,0,0
362.63,1.8357,2.6533,0.20035,0,0,0,0
363.13,1.8387,2.653,0.20136,0,0,0,0
363.63,1.842,2.653,0.20249,0,0,0,0
364.13,1.8454,2.653,0.20358,0,0,0,0
364.63,1.8489,2.653,0.2046,0,0,0,0
365.13,1.8521,2.6527,0.20591,0,0,0,0
365.63,1.8556,2.6523,0.20697,0,0,0,0
366.13,1.8588,2.652,0.20828,0,0,0,0
366.63,1.8622,2.652,0.20924,0,0,0,0
367.13,1.865,2.6517,0.21049,0,0,0,0
367.63,1.8682,2.651,0.2119,0,0,0,0
368.13,1.8715,2.6503,0.21293,0,0,0,0
368.63,1.8748,2.65,0.21418,0,0,0,0
369.13,1.8782,2.65,0.21553,0,0,0,0
369.63,1.8819,2.6497,0.21664,0,0,0,0
370.13,1.8851,2.6493,0.21788,0,0,0,0
370.63,1.8883,2.6487,0.21913,0,0,0,0
371.13,1.8915,2.6483,0.22047,0,0,0,0
371.63,1.8947,2.6477,0.22176,0,0,0,0
372.13,1.8979,2.6473,0.22314,0,0,0,0
372.63,1.9011,2.6467,0.2244,0,0,0,0
373.13,1.9043,2.6463,0.22566,0,0,0,0
373.63,1.9075,2.6457,0.22694,0,0,0,0
374.13,1.9111,2.6453,0.22826,0,0,0,0
374.63,1.9145,2.6444,0.22967,0,0,0,0
375.13,1.9181,2.6436,0.23119,0,0,0,0
375.63,1.9215,2.6427,0.23255,0,0,0,0
376.13,1.9249,2.642,0.23388,0,0,0,0
376.63,1.9282,2.641,0.23529,0,0,0,0
377.13,1.9312,2.6403,0.2368,0,0,0,0
377.63,1.9345,2.6397,0.23831,0,0,0,0
378.13,1.9379,2.639,0.23953,0,0,0,0
378.63,1.9411,2.638,0.24098,0,0,0,0
379.13,1.9445,2.637,0.24249,0,0,0,0
379.63,1.9482,2.636,0.24402,0,0,0,0
380.13,1.9517,2.635,0.24557,0,0,0,0
380.63,1.9553,2.634,0.24712,0,0,0,0
381.13,1.9585,2.633,0.24856,0,0,0,0
381.63,1.9618,2.632,0.25019,0,0,0,0
382.13,1.9648,2.6307,0.25165,0,0,0,0
382.63,1.9682,2.6293,0.25324,0,0,0,0
383.13,1.9714,2.628,0.25473,0,0,0,0
383.63,1.9748,2.627,0.25647,0,0,0,0
384.13,1.9783,2.626,0.25806,0,0,0,0
384.63,1.9822,2.6247,0.25977,0,0,0,0
385.13,1.9859,2.623,0.2614,0,0,0,0
385.63,1.989,2.6213,0.26293,0,0,0,0
386.13,1.9924,2.6197,0.2646,0,0,0,0
386.63,1.9958,2.6183,0.2661,0,0,0,0
387.13,1.999,2.6167,0.26788,0,0,0,0
387.63,2.0023,2.6153,0.26939,0,0,0,0
388.13,2.0056,2.6134,0.27126,0,0,0,0
388.63,2.0091,2.6116,0.2729,0,0,0,0
389.13,2.0127,2.6097,0.27456,0,0,0,0
389.63,2.0164,2.608,0.27638,0,0,0,0
390.13,2.02,2.606,0.27816,0,0,0,0
390.63,2.0234,2.604,0.27986,0,0,0,0
391.13,2.0269,2.602,0.28169,0,0,0,0
391.63,2.0302,2.6,0.28341,0,0,0,0
392.13,2.0335,2.598,0.28523,0,0,0,0
392.63,2.037,2.596,0.28695,0,0,0,0
393.13,2.0404,2.5937,0.28876,0,0,0,0
393.63,2.0438,2.5913,0.29042,0,0,0,0
394.13,2.0478,2.589,0.29233,0,0,0,0
394.63,2.0515,2.5867,0.29423,0,0,0,0
395.13,2.0551,2.5843,0.29596,0,0,0,0
395.63,2.0587,2.5817,0.29783,0,0,0,0
396.13,2.0621,2.579,0.29975,0,0,0,0
396.63,2.0655,2.5763,0.30152,0,0,0,0
397.13,2.0689,2.5737,0.30341,0,0,0,0
397.63,2.0722,2.571,0.30527,0,0,0,0
398.13,2.0758,2.568,0.30725,0,0,0,0
398.63,2.0793,2.565,0.30902,0,0,0,0
399.13,2.0836,2.562,0.31105,0,0,0,0
399.63,2.0866,2.559,0.31289,0,0,0,0
400.13,2.0907,2.5557,0.31493,0,0,0,0
400.63,2.0942,2.5523,0.31684,0,0,0,0
401.13,2.0976,2.5493,0.31867,0,0,0,0
401.63,2.1011,2.5464,0.32068,0,0,0,0
402.13,2.1044,2.543,0.32255,0,0,0,0
402.63,2.1081,2.539,0.3245,0,0,0,0
403.13,2.1117,2.5353,0.32668,0,0,0,0
403.63,2.1153,2.5317,0.32855,0,0,0,0
404.13,2.1192,2.528,0.33068,0,0,0,0
404.63,2.1234,2.524,0.33258,0,0,0,0
405.13,2.127,2.5203,0.33458,0,0,0,0
405.63,2.1304,2.5167,0.33645,0,0,0,0
406.13,2.1339,2.5127,0.33849,0,0,0,0
406.63,2.1374,2.5083,0.34055,0,0,0,0
407.13,2.141,2.5037,0.34232,0,0,0,0
407.63,2.1447,2.499,0.34441,0,0,0,0
408.13,2.1485,2.4943,0.34655,0,0,0,0
408.63,2.152,2.49,0.34857,0,0,0,0
409.13,2.1562,2.4854,0.35049,0,0,0,0
409.63,2.16,2.4803,0.35274,0,0,0,0
410.13,2.1638,2.4753,0.35465,0,0,0,0
410.63,2.1674,2.4704,0.35679,0,0,0,0
411.13,2.171,2.4653,0.35894,0,0,0,0
411.63,2.1747,2.4597,0.361,0,0,0,0
412.13,2.1781,2.454,0.36315,0,0,0,0
412.63,2.1818,2.4483,0.36516,0,0,0,0
413.13,2.1858,2.443,0.36714,0,0,0,0
413.63,2.1898,2.4374,0.3693,0,0,0,0
414.13,2.1938,2.4316,0.37139,0,0,0,0
414.63,2.1978,2.4254,0.37361,0,0,0,0
415.13,2.2014,2.419,0.37565,0,0,0,0
415.63,2.2051,2.4123,0.37786,0,0,0,0
416.13,2.209,2.4054,0.38016,0,0,0,0
416.63,2.2127,2.398,0.38232,0,0,0,0
417.13,2.2168,2.3903,0.38461,0,0,0,0
417.63,2.2209,2.3827,0.3868,0,0,0,0
418.13,2.225,2.3747,0.38913,0,0,0,0
418.63,2.2292,2.3663,0.39158,0,0,0,0
419.13,2.2333,2.3574,0.39383,0,0,0,0