File: polyN_optimization/results_exp/AA6014-T4/NT6_00_1.csv
Time[s],Displacement[mm],Force[kN],AxStrain_1,AxStrain_2,Thickness[mm],OuterWidth[mm],InnerWidth[mm]
0.59,0,-0.0045575,0,0,1.1167,20,10
1.09,0.000266,0.0036359,2.1e-05,0,0,0,0
1.59,0.000663,0.013295,9.7995e-05,0,0,0,0
2.09,0.001222,0.035718,0.00017498,0,0,0,0
2.59,0.001442,0.064714,0.00020898,0,0,0,0
3.09,0.002156,0.091851,0.00021798,0,0,0,0
3.59,0.0023,0.11114,9.2996e-05,0,0,0,0
4.09,0.002435,0.12586,0.00010099,0,0,0,0
4.59,0.002931,0.14114,0.00014599,0,0,0,0
5.09,0.003132,0.15829,9.1996e-05,0,0,0,0
5.59,0.003321,0.17615,0.00026097,0,0,0,0
6.09,0.003853,0.19543,0.00020798,0,0,0,0
6.59,0.004118,0.21242,0.00025297,0,0,0,0
7.09,0.004207,0.22357,0.00013199,0,0,0,0
7.59,0.004119,0.23029,0.00026397,0,0,0,0
8.09,0.004593,0.23858,0.00034094,0,0,0,0
8.59,0.00398,0.25129,0.00028096,0,0,0,0
9.09,0.004858,0.26614,0.00030295,0,0,0,0
9.59,0.005216,0.28029,0.00023497,0,0,0,0
10.09,0.005891,0.29457,0.00015299,0,0,0,0
10.59,0.006025,0.30914,0.00018098,0,0,0,0
11.09,0.006392,0.32415,0.00035094,0,0,0,0
11.59,0.006699,0.33971,0.00037593,0,0,0,0
12.09,0.007142,0.35514,0.00038992,0,0,0,0
12.59,0.007392,0.369,0.00030395,0,0,0,0
13.09,0.007771,0.38315,0.00053686,0,0,0,0
13.59,0.008126,0.39785,0.00046989,0,0,0,0
14.09,0.008644,0.412,0.0004529,0,0,0,0
14.59,0.008893,0.42615,0.00041991,0,0,0,0
15.09,0.009172,0.442,0.00037893,0,0,0,0
15.59,0.009122,0.45785,0.00058783,0,0,0,0
16.09,0.009202,0.47315,0.0004529,0,0,0,0
16.59,0.009266,0.48814,0.00033194,0,0,0,0
17.09,0.009628,0.503,0.00034594,0,0,0,0
17.59,0.009702,0.51786,0.00035594,0,0,0,0
18.09,0.009947,0.53314,0.00031895,0,0,0,0
18.59,0.010229,0.548,0.00042591,0,0,0,0
19.09,0.01072,0.56315,0.00060782,0,0,0,0
19.59,0.010679,0.57971,0.00050987,0,0,0,0
20.09,0.011216,0.59614,0.00047988,0,0,0,0
20.59,0.01166,0.61215,0.00039992,0,0,0,0
21.09,0.011995,0.62785,0.00040292,0,0,0,0
21.59,0.012331,0.643,0.00065479,0,0,0,0
22.09,0.012459,0.65786,0.00051986,0,0,0,0
22.59,0.013442,0.67314,0.00038593,0,0,0,0
23.09,0.013791,0.688,0.00049988,0,0,0,0
23.59,0.014312,0.70315,0.00069776,0,0,0,0
24.09,0.014795,0.71971,0.00069776,0,0,0,0
24.59,0.015235,0.73614,0.0004499,0,0,0,0
25.09,0.01549,0.75215,0.00056384,0,0,0,0
25.59,0.015903,0.76785,0.00058083,0,0,0,0
26.09,0.016058,0.783,0.00064779,0,0,0,0
26.59,0.016272,0.79786,0.00055385,0,0,0,0
27.09,0.016363,0.81314,0.00072174,0,0,0,0
27.59,0.016605,0.828,0.00066478,0,0,0,0
28.09,0.016833,0.84286,0.00059782,0,0,0,0
28.59,0.017034,0.85929,0.0007757,0,0,0,0
29.09,0.017518,0.87585,0.00065079,0,0,0,0
29.59,0.01774,0.89186,0.00061381,0,0,0,0
30.09,0.017887,0.90714,0.00072873,0,0,0,0
30.59,0.018112,0.922,0.00075871,0,0,0,0
31.09,0.018643,0.93686,0.00066778,0,0,0,0
31.59,0.019116,0.95185,0.00086563,0,0,0,0
32.09,0.01927,0.96629,0.00058783,0,0,0,0
32.59,0.019777,0.98086,0.00076171,0,0,0,0
33.09,0.019932,0.997,0.00083565,0,0,0,0
33.59,0.020926,1.0131,0.0007787,0,0,0,0
34.09,0.021748,1.0289,0.00098651,0,0,0,0
34.59,0.022107,1.0441,0.00087562,0,0,0,0
35.09,0.022547,1.0587,0.00085863,0,0,0,0
35.59,0.022936,1.0731,0.00079169,0,0,0,0
36.09,0.023165,1.0881,0.00098651,0,0,0,0
36.59,0.023924,1.1027,0.00095954,0,0,0,0
37.09,0.024296,1.1171,0.0010574,0,0,0,0
37.59,0.024709,1.133,0.00098651,0,0,0,0
38.09,0.024575,1.1489,0.00094955,0,0,0,0
38.59,0.025146,1.1639,0.00092257,0,0,0,0
39.09,0.025515,1.1784,0.00086962,0,0,0,0
39.59,0.025861,1.1927,0.00098651,0,0,0,0
40.09,0.026166,1.2069,0.00092957,0,0,0,0
40.59,0.026623,1.2211,0.00098352,0,0,0,0
41.09,0.026985,1.2353,0.00095654,0,0,0,0
41.59,0.027529,1.2496,0.00094655,0,0,0,0
42.09,0.027966,1.2647,0.0010235,0,0,0,0
42.59,0.028506,1.2794,0.0010105,0,0,0,0
43.09,0.029305,1.2939,0.0010774,0,0,0,0
43.59,0.029815,1.3081,0.0012183,0,0,0,0
44.09,0.030463,1.3217,0.0012113,0,0,0,0
44.59,0.031011,1.3349,0.0012582,0,0,0,0
45.09,0.031712,1.3484,0.0013551,0,0,0,0
45.59,0.032239,1.3617,0.0014929,0,0,0,0
46.09,0.033025,1.3746,0.0014959,0,0,0,0
46.59,0.033612,1.3883,0.0013151,0,0,0,0
47.09,0.034304,1.4016,0.0015468,0,0,0,0
47.59,0.035106,1.4133,0.0017974,0,0,0,0
48.09,0.035942,1.4249,0.0017874,0,0,0,0
48.59,0.036671,1.4366,0.0018782,0,0,0,0
49.09,0.037634,1.4481,0.0019222,0,0,0,0
49.59,0.038665,1.4589,0.0021836,0,0,0,0
50.09,0.040065,1.469,0.0021936,0,0,0,0
50.59,0.041613,1.4786,0.002465,0,0,0,0
51.09,0.043019,1.4884,0.0025886,0,0,0,0
51.59,0.044486,1.498,0.0027353,0,0,0,0
52.09,0.046121,1.5073,0.002826,0,0,0,0
52.59,0.04784,1.5164,0.0031102,0,0,0,0
53.09,0.049432,1.5247,0.0034421,0,0,0,0
53.59,0.050818,1.5326,0.0036962,0,0,0,0
54.09,0.052527,1.5404,0.0039273,0,0,0,0
54.59,0.054085,1.548,0.004001,0,0,0,0
55.09,0.055693,1.5553,0.0044222,0,0,0,0
55.59,0.057412,1.563,0.0046621,0,0,0,0
56.09,0.059157,1.5707,0.0050064,0,0,0,0
56.59,0.060739,1.5783,0.0053606,0,0,0,0
57.09,0.062535,1.5854,0.0056878,0,0,0,0
57.59,0.064851,1.592,0.0060586,0,0,0,0
58.09,0.066453,1.5983,0.0061451,0,0,0,0
58.59,0.0689,1.6047,0.0065257,0,0,0,0
59.09,0.070955,1.611,0.006472,0,0,0,0
59.59,0.0731,1.6173,0.0068286,0,0,0,0
60.09,0.07495,1.624,0.0069091,0,0,0,0
60.59,0.07681,1.6304,0.0070253,0,0,0,0
61.09,0.07881,1.6369,0.0071653,0,0,0,0
61.59,0.080476,1.6431,0.0071851,0,0,0,0
62.09,0.082718,1.649,0.0074254,0,0,0,0
62.59,0.084786,1.6546,0.0076457,0,0,0,0
63.09,0.08675,1.6604,0.0079513,0,0,0,0
63.59,0.088875,1.666,0.0080852,0,0,0,0
64.09,0.090974,1.6713,0.0083381,0,0,0,0
64.59,0.093354,1.677,0.008478,0,0,0,0
65.09,0.095677,1.6827,0.0088577,0,0,0,0
65.59,0.098057,1.6886,0.0092402,0,0,0,0
66.09,0.10015,1.6944,0.009576,0,0,0,0
66.59,0.10235,1.6997,0.0098087,0,0,0,0
67.09,0.10443,1.7046,0.010187,0,0,0,0
67.59,0.1065,1.7097,0.01049,0,0,0,0
68.09,0.10861,1.7147,0.010679,0,0,0,0
68.59,0.11075,1.7196,0.010832,0,0,0,0
69.09,0.11284,1.7247,0.010978,0,0,0,0
69.59,0.11524,1.7303,0.011339,0,0,0,0
70.09,0.11767,1.7357,0.011393,0,0,0,0
70.59,0.1201,1.741,0.011343,0,0,0,0
71.09,0.12259,1.7457,0.011383,0,0,0,0
71.59,0.12515,1.7506,0.011413,0,0,0,0
72.09,0.12734,1.7554,0.011669,0,0,0,0
72.59,0.12962,1.76,0.011721,0,0,0,0
73.09,0.13198,1.7646,0.011762,0,0,0,0
73.59,0.13439,1.7697,0.012087,0,0,0,0
74.09,0.13653,1.7747,0.012278,0,0,0,0
74.59,0.13872,1.7796,0.012507,0,0,0,0
75.09,0.14116,1.7841,0.012786,0,0,0,0
75.59,0.14355,1.7886,0.013161,0,0,0,0
76.09,0.14577,1.793,0.013406,0,0,0,0
76.59,0.14833,1.7977,0.013674,0,0,0,0
77.09,0.15101,1.802,0.013992,0,0,0,0
77.59,0.15376,1.8063,0.014216,0,0,0,0
78.09,0.15609,1.811,0.014608,0,0,0,0
78.59,0.15844,1.8157,0.014776,0,0,0,0
79.09,0.16088,1.8203,0.015071,0,0,0,0
79.59,0.16305,1.8247,0.015096,0,0,0,0
80.09,0.16549,1.829,0.015223,0,0,0,0
80.59,0.16783,1.8333,0.015292,0,0,0,0
81.09,0.17027,1.8377,0.015424,0,0,0,0
81.59,0.17283,1.842,0.01557,0,0,0,0
82.09,0.17519,1.846,0.01552,0,0,0,0
82.59,0.17778,1.8503,0.015712,0,0,0,0
83.09,0.18079,1.8547,0.015692,0,0,0,0
83.59,0.1833,1.8593,0.01597,0,0,0,0
84.09,0.18585,1.8634,0.016102,0,0,0,0
84.59,0.18829,1.8673,0.016501,0,0,0,0
85.09,0.19068,1.8713,0.016663,0,0,0,0
85.59,0.19312,1.8757,0.016792,0,0,0,0
86.09,0.19542,1.8797,0.017214,0,0,0,0
86.59,0.19778,1.8836,0.017363,0,0,0,0
87.09,0.2002,1.888,0.017699,0,0,0,0
87.59,0.20287,1.8921,0.017983,0,0,0,0
88.09,0.20551,1.8961,0.018178,0,0,0,0
88.59,0.20819,1.9001,0.018537,0,0,0,0
89.09,0.21112,1.9043,0.018685,0,0,0,0
89.59,0.21383,1.908,0.018744,0,0,0,0
90.09,0.21602,1.912,0.018883,0,0,0,0
90.59,0.21859,1.9157,0.019028,0,0,0,0
91.09,0.22099,1.9196,0.01914,0,0,0,0
91.59,0.22328,1.9237,0.019298,0,0,0,0
92.09,0.22592,1.928,0.019317,0,0,0,0
92.59,0.22844,1.932,0.019567,0,0,0,0
93.09,0.23106,1.9357,0.019567,0,0,0,0
93.59,0.23369,1.9393,0.019627,0,0,0,0
94.09,0.23633,1.943,0.019844,0,0,0,0
94.59,0.23919,1.9467,0.020134,0,0,0,0
95.09,0.24196,1.9503,0.020292,0,0,0,0
95.59,0.24459,1.954,0.020673,0,0,0,0
96.09,0.24704,1.958,0.020742,0,0,0,0
96.59,0.24944,1.9614,0.021052,0,0,0,0
97.09,0.25198,1.9649,0.021088,0,0,0,0
97.59,0.25433,1.9684,0.021436,0,0,0,0
98.09,0.25715,1.9723,0.02184,0,0,0,0
98.59,0.2594,1.976,0.021936,0,0,0,0
99.09,0.26185,1.9797,0.021939,0,0,0,0
99.59,0.26461,1.983,0.022195,0,0,0,0
100.09,0.26763,1.9863,0.022543,0,0,0,0
100.59,0.2704,1.99,0.022543,0,0,0,0
101.09,0.27315,1.9937,0.022743,0,0,0,0
101.59,0.27581,1.9973,0.022812,0,0,0,0
102.09,0.2783,2.001,0.02309,0,0,0,0
102.59,0.28078,2.0047,0.023041,0,0,0,0
103.09,0.28324,2.008,0.023324,0,0,0,0
103.59,0.2857,2.011,0.023467,0,0,0,0
104.09,0.28808,2.0143,0.023718,0,0,0,0
104.59,0.29078,2.0177,0.023812,0,0,0,0
105.09,0.29365,2.0213,0.023996,0,0,0,0
105.59,0.29665,2.0247,0.024146,0,0,0,0
106.09,0.29934,2.028,0.024363,0,0,0,0
106.59,0.30205,2.0313,0.024648,0,0,0,0
107.09,0.3048,2.0347,0.024831,0,0,0,0
107.59,0.30754,2.038,0.025054,0,0,0,0
108.09,0.30979,2.041,0.02529,0,0,0,0
108.59,0.31223,2.044,0.025388,0,0,0,0
109.09,0.31474,2.0473,0.025555,0,0,0,0
109.59,0.31737,2.051,0.025709,0,0,0,0
110.09,0.32004,2.0547,0.02599,0,0,0,0
110.59,0.32283,2.058,0.026101,0,0,0,0
111.09,0.32567,2.061,0.026307,0,0,0,0
111.59,0.3284,2.064,0.026402,0,0,0,0
112.09,0.33123,2.067,0.026585,0,0,0,0
112.59,0.33407,2.0703,0.026723,0,0,0,0
113.09,0.33663,2.0734,0.026948,0,0,0,0
113.59,0.33917,2.0766,0.027026,0,0,0,0
114.09,0.34166,2.0797,0.027222,0,0,0,0
114.59,0.34435,2.083,0.027419,0,0,0,0
115.09,0.3468,2.086,0.027647,0,0,0,0
115.59,0.34956,2.089,0.027843,0,0,0,0
116.09,0.35234,2.092,0.027973,0,0,0,0
116.59,0.35523,2.095,0.028365,0,0,0,0
117.09,0.35802,2.098,0.02843,0,0,0,0
117.59,0.36086,2.101,0.028528,0,0,0,0
118.09,0.36374,2.104,0.028724,0,0,0,0
118.59,0.36644,2.107,0.028822,0,0,0,0
119.09,0.36901,2.11,0.029083,0,0,0,0
119.59,0.37142,2.113,0.029181,0,0,0,0
120.09,0.3741,2.116,0.029474,0,0,0,0
120.59,0.37676,2.119,0.029571,0,0,0,0
121.09,0.37933,2.122,0.029735,0,0,0,0
121.59,0.38212,2.125,0.029898,0,0,0,0
122.09,0.38526,2.1277,0.030094,0,0,0,0
122.59,0.38817,2.1303,0.030191,0,0,0,0
123.09,0.39113,2.133,0.030419,0,0,0,0
123.59,0.39397,2.136,0.03068,0,0,0,0
124.09,0.39656,2.139,0.030842,0,0,0,0
124.59,0.3992,2.142,0.030972,0,0,0,0
125.09,0.4017,2.1447,0.031298,0,0,0,0
125.59,0.40416,2.1476,0.031493,0,0,0,0
126.09,0.40709,2.1504,0.031558,0,0,0,0
126.59,0.40966,2.1533,0.031753,0,0,0,0
127.09,0.41245,2.156,0.032013,0,0,0,0
127.59,0.4155,2.1587,0.032306,0,0,0,0
128.09,0.41842,2.1616,0.032371,0,0,0,0
128.59,0.42152,2.1647,0.032436,0,0,0,0
129.09,0.42435,2.1677,0.032631,0,0,0,0
129.59,0.42704,2.17,0.032988,0,0,0,0
130.09,0.42984,2.1726,0.032956,0,0,0,0
130.59,0.4325,2.1754,0.033183,0,0,0,0
131.09,0.43506,2.178,0.033281,0,0,0,0
131.59,0.4377,2.1803,0.033475,0,0,0,0
132.09,0.44043,2.183,0.033605,0,0,0,0
132.59,0.44341,2.1857,0.033736,0,0,0,0
133.09,0.44622,2.1883,0.034124,0,0,0,0
133.59,0.44921,2.191,0.034319,0,0,0,0
134.09,0.45194,2.1937,0.034351,0,0,0,0
134.59,0.4547,2.1963,0.034644,0,0,0,0
135.09,0.45766,2.199,0.034838,0,0,0,0
135.59,0.46025,2.2017,0.034936,0,0,0,0
136.09,0.46293,2.2043,0.03513,0,0,0,0
136.59,0.46568,2.2067,0.035325,0,0,0,0
137.09,0.46818,2.2093,0.035389,0,0,0,0
137.59,0.47114,2.212,0.035648,0,0,0,0
138.09,0.47369,2.2147,0.035778,0,0,0,0
138.59,0.47653,2.2173,0.036005,0,0,0,0
139.09,0.47938,2.2197,0.036166,0,0,0,0
139.59,0.48266,2.2223,0.036523,0,0,0,0
140.09,0.48557,2.2247,0.036619,0,0,0,0
140.59,0.48823,2.2273,0.036685,0,0,0,0
141.09,0.49094,2.2297,0.036814,0,0,0,0
141.59,0.49373,2.2323,0.036911,0,0,0,0
142.09,0.49623,2.235,0.037073,0,0,0,0
142.59,0.49885,2.2377,0.037396,0,0,0,0
143.09,0.50174,2.24,0.037493,0,0,0,0
143.59,0.50446,2.2423,0.037655,0,0,0,0
144.09,0.50726,2.2447,0.03772,0,0,0,0
144.59,0.51034,2.247,0.038139,0,0,0,0
145.09,0.51348,2.249,0.038108,0,0,0,0
145.59,0.51635,2.2513,0.038495,0,0,0,0
146.09,0.51922,2.2537,0.038592,0,0,0,0
146.59,0.52174,2.2563,0.038753,0,0,0,0
147.09,0.5245,2.2587,0.038979,0,0,0,0
147.59,0.52701,2.261,0.039174,0,0,0,0
148.09,0.52985,2.2633,0.039431,0,0,0,0
148.59,0.53246,2.2657,0.039496,0,0,0,0
149.09,0.53513,2.268,0.039754,0,0,0,0
149.59,0.53825,2.2703,0.039916,0,0,0,0
150.09,0.54126,2.2727,0.040013,0,0,0,0
150.59,0.54396,2.275,0.040238,0,0,0,0
151.09,0.54712,2.2773,0.040464,0,0,0,0
151.59,0.5499,2.2797,0.04056,0,0,0,0
152.09,0.55274,2.282,0.040754,0,0,0,0
152.59,0.55519,2.284,0.040883,0,0,0,0
153.09,0.55795,2.286,0.041011,0,0,0,0
153.59,0.56054,2.288,0.041076,0,0,0,0
154.09,0.56338,2.2903,0.041334,0,0,0,0
154.59,0.56616,2.2927,0.041592,0,0,0,0
155.09,0.56906,2.295,0.041817,0,0,0,0
155.59,0.57218,2.2973,0.041849,0,0,0,0
156.09,0.57515,2.2997,0.042139,0,0,0,0
156.59,0.57804,2.302,0.042364,0,0,0,0
157.09,0.58088,2.304,0.042493,0,0,0,0
157.59,0.58357,2.306,0.042718,0,0,0,0
158.09,0.58611,2.308,0.042911,0,0,0,0
158.59,0.58895,2.3103,0.043169,0,0,0,0
159.09,0.59162,2.3127,0.043233,0,0,0,0
159.59,0.59419,2.315,0.043489,0,0,0,0
160.09,0.59719,2.317,0.043522,0,0,0,0
160.59,0.60003,2.319,0.043844,0,0,0,0
161.09,0.60299,2.321,0.044003,0,0,0,0
161.59,0.60595,2.3233,0.044164,0,0,0,0
162.09,0.60893,2.3254,0.044197,0,0,0,0
162.59,0.61177,2.3273,0.044389,0,0,0,0
163.09,0.61446,2.3293,0.044518,0,0,0,0
163.59,0.61716,2.3317,0.044743,0,0,0,0
164.09,0.61981,2.334,0.044871,0,0,0,0
164.59,0.62249,2.336,0.045096,0,0,0,0
165.09,0.62537,2.338,0.045224,0,0,0,0
165.59,0.62803,2.34,0.045384,0,0,0,0
166.09,0.63129,2.342,0.045609,0,0,0,0
166.59,0.63434,2.344,0.045833,0,0,0,0
167.09,0.63738,2.346,0.046154,0,0,0,0
167.59,0.64045,2.348,0.046346,0,0,0,0
168.09,0.64316,2.35,0.046282,0,0,0,0
168.59,0.64587,2.352,0.046603,0,0,0,0
169.09,0.64862,2.3543,0.046924,0,0,0,0
169.59,0.65137,2.3564,0.046988,0,0,0,0
170.09,0.65397,2.3583,0.047276,0,0,0,0
170.59,0.65681,2.36,0.047276,0,0,0,0
171.09,0.65968,2.362,0.047467,0,0,0,0
171.59,0.66239,2.364,0.047755,0,0,0,0
172.09,0.66561,2.366,0.048076,0,0,0,0
172.59,0.66885,2.368,0.048076,0,0,0,0
173.09,0.67164,2.37,0.048332,0,0,0,0
173.59,0.67454,2.372,0.04846,0,0,0,0
174.09,0.67729,2.374,0.048747,0,0,0,0
174.59,0.68003,2.376,0.048843,0,0,0,0
175.09,0.68265,2.378,0.049131,0,0,0,0
175.59,0.68545,2.38,0.049227,0,0,0,0
176.09,0.6883,2.3817,0.049419,0,0,0,0
176.59,0.69121,2.3836,0.049706,0,0,0,0
177.09,0.69418,2.3857,0.049642,0,0,0,0
177.59,0.69727,2.3877,0.049866,0,0,0,0
178.09,0.70039,2.3893,0.050089,0,0,0,0
178.59,0.70301,2.391,0.050473,0,0,0,0
179.09,0.70588,2.393,0.050409,0,0,0,0
179.59,0.70854,2.395,0.05076,0,0,0,0
180.09,0.71119,2.397,0.050952,0,0,0,0
180.59,0.71402,2.399,0.051175,0,0,0,0
181.09,0.7166,2.401,0.05127,0,0,0,0
181.59,0.71964,2.403,0.051462,0,0,0,0
182.09,0.72238,2.405,0.051685,0,0,0,0
182.59,0.72549,2.4067,0.051876,0,0,0,0
183.09,0.72874,2.4083,0.052004,0,0,0,0
183.59,0.73174,2.41,0.052131,0,0,0,0
184.09,0.73475,2.412,0.052291,0,0,0,0
184.59,0.73739,2.4137,0.052609,0,0,0,0
185.09,0.74012,2.4153,0.052704,0,0,0,0
185.59,0.74285,2.417,0.052927,0,0,0,0
186.09,0.74545,2.419,0.053087,0,0,0,0
186.59,0.74819,2.421,0.053342,0,0,0,0
187.09,0.751,2.423,0.053373,0,0,0,0
187.59,0.75409,2.4247,0.053691,0,0,0,0
188.09,0.75711,2.4263,0.053723,0,0,0,0
188.59,0.76009,2.428,0.053978,0,0,0,0
189.09,0.76321,2.4297,0.0542,0,0,0,0
189.59,0.76613,2.4313,0.054264,0,0,0,0
190.09,0.76886,2.433,0.054645,0,0,0,0
190.59,0.77152,2.435,0.054836,0,0,0,0
191.09,0.77438,2.4367,0.055122,0,0,0,0
191.59,0.77687,2.4383,0.055345,0,0,0,0
192.09,0.77969,2.44,0.055439,0,0,0,0
192.59,0.7826,2.4417,0.055598,0,0,0,0
193.09,0.78558,2.4433,0.055821,0,0,0,0
193.59,0.78877,2.445,0.056012,0,0,0,0
194.09,0.79152,2.4467,0.056138,0,0,0,0
194.59,0.79456,2.4483,0.056456,0,0,0,0
195.09,0.79755,2.45,0.056519,0,0,0,0
195.59,0.8003,2.452,0.056868,0,0,0,0
196.09,0.80312,2.4537,0.057027,0,0,0,0
196.59,0.80581,2.4553,0.057153,0,0,0,0
197.09,0.80855,2.457,0.057375,0,0,0,0
197.59,0.81136,2.459,0.057502,0,0,0,0
198.09,0.81398,2.4607,0.057788,0,0,0,0
198.59,0.81708,2.462,0.057977,0,0,0,0
199.09,0.82021,2.4633,0.058041,0,0,0,0
199.59,0.82328,2.465,0.058421,0,0,0,0
200.09,0.82624,2.467,0.05861,0,0,0,0
200.59,0.82949,2.4687,0.058864,0,0,0,0
201.09,0.83199,2.4703,0.05899,0,0,0,0
201.59,0.8348,2.472,0.059276,0,0,0,0
202.09,0.83763,2.4737,0.059433,0,0,0,0
202.59,0.84044,2.4753,0.059687,0,0,0,0
203.09,0.84324,2.4767,0.059876,0,0,0,0
203.59,0.84591,2.4783,0.060097,0,0,0,0
204.09,0.84887,2.4797,0.060225,0,0,0,0
204.59,0.8518,2.4813,0.060509,0,0,0,0
205.09,0.85485,2.483,0.060761,0,0,0,0
205.59,0.85801,2.485,0.060888,0,0,0,0
206.09,0.86066,2.4867,0.06114,0,0,0,0
206.59,0.86361,2.4883,0.06133,0,0,0,0
207.09,0.86629,2.4897,0.061519,0,0,0,0
207.59,0.86913,2.4913,0.061709,0,0,0,0
208.09,0.87179,2.493,0.061803,0,0,0,0
208.59,0.87452,2.4947,0.062056,0,0,0,0
209.09,0.87747,2.4963,0.062277,0,0,0,0
209.59,0.88042,2.4977,0.062403,0,0,0,0
210.09,0.88365,2.499,0.062813,0,0,0,0
210.59,0.88682,2.5003,0.062907,0,0,0,0
211.09,0.88986,2.502,0.06316,0,0,0,0
211.59,0.89278,2.5037,0.06338,0,0,0,0
212.09,0.89555,2.5053,0.063475,0,0,0,0
212.59,0.89836,2.5067,0.063727,0,0,0,0
213.09,0.90113,2.5083,0.063916,0,0,0,0
213.59,0.9038,2.5097,0.064168,0,0,0,0
214.09,0.90662,2.5113,0.06442,0,0,0,0
214.59,0.90951,2.5127,0.06464,0,0,0,0
215.09,0.91257,2.5143,0.064923,0,0,0,0
215.59,0.91565,2.5157,0.065174,0,0,0,0
216.09,0.9189,2.5173,0.065458,0,0,0,0
216.59,0.92163,2.5187,0.065646,0,0,0,0
217.09,0.92476,2.5203,0.065835,0,0,0,0
217.59,0.92757,2.5217,0.065961,0,0,0,0
218.09,0.93012,2.5233,0.066212,0,0,0,0
218.59,0.93301,2.5247,0.066401,0,0,0,0
219.09,0.93559,2.5263,0.066652,0,0,0,0
219.59,0.93863,2.5277,0.066998,0,0,0,0
220.09,0.94139,2.5293,0.067029,0,0,0,0
220.59,0.94455,2.5307,0.067374,0,0,0,0
221.09,0.94753,2.5323,0.067593,0,0,0,0
221.59,0.9508,2.5337,0.06775,0,0,0,0
222.09,0.95387,2.5353,0.067939,0,0,0,0
222.59,0.95665,2.5367,0.068189,0,0,0,0
223.09,0.95913,2.538,0.068472,0,0,0,0
223.59,0.96189,2.5393,0.068628,0,0,0,0
224.09,0.96478,2.5407,0.068911,0,0,0,0
224.59,0.96758,2.5423,0.069036,0,0,0,0
225.09,0.97039,2.5437,0.06935,0,0,0,0
225.59,0.97347,2.545,0.069631,0,0,0,0
226.09,0.97633,2.546,0.069851,0,0,0,0
226.59,0.97956,2.5473,0.070101,0,0,0,0
227.09,0.98262,2.5487,0.070289,0,0,0,0
227.59,0.98578,2.5503,0.070508,0,0,0,0
228.09,0.98845,2.5517,0.07082,0,0,0,0
228.59,0.99129,2.553,0.071165,0,0,0,0
229.09,0.99375,2.5543,0.071352,0,0,0,0
229.59,0.99667,2.5557,0.071508,0,0,0,0
230.09,0.99943,2.5573,0.072008,0,0,0,0
230.59,1.0023,2.5587,0.072134,0,0,0,0
231.09,1.005,2.5603,0.072258,0,0,0,0
231.59,1.008,2.5617,0.072383,0,0,0,0
232.09,1.0114,2.5633,0.072726,0,0,0,0
232.59,1.0143,2.5647,0.07282,0,0,0,0
233.09,1.0174,2.566,0.073257,0,0,0,0
233.59,1.0204,2.567,0.073475,0,0,0,0
234.09,1.0232,2.5683,0.073694,0,0,0,0
234.59,1.0259,2.5697,0.073818,0,0,0,0
235.09,1.0288,2.571,0.073912,0,0,0,0
235.59,1.0315,2.572,0.074255,0,0,0,0
236.09,1.0345,2.5733,0.074567,0,0,0,0
236.59,1.0376,2.5747,0.074847,0,0,0,0
237.09,1.0406,2.576,0.075127,0,0,0,0
237.59,1.0437,2.5773,0.07519,0,0,0,0
238.09,1.0467,2.5787,0.075626,0,0,0,0
238.59,1.0498,2.58,0.075812,0,0,0,0
239.09,1.0524,2.5813,0.076154,0,0,0,0
239.59,1.0551,2.5827,0.076528,0,0,0,0
240.09,1.0579,2.584,0.076715,0,0,0,0
240.59,1.0606,2.5853,0.076932,0,0,0,0
241.09,1.0636,2.5867,0.077242,0,0,0,0
241.59,1.0667,2.588,0.077429,0,0,0,0
242.09,1.0695,2.589,0.077615,0,0,0,0
242.59,1.0728,2.5903,0.077988,0,0,0,0
243.09,1.0758,2.5917,0.078237,0,0,0,0
243.59,1.0788,2.593,0.07833,0,0,0,0
244.09,1.082,2.5943,0.078547,0,0,0,0
244.59,1.0843,2.5957,0.078795,0,0,0,0
245.09,1.0874,2.597,0.079013,0,0,0,0
245.59,1.0903,2.598,0.079323,0,0,0,0
246.09,1.0931,2.599,0.07954,0,0,0,0
246.59,1.0958,2.6003,0.079943,0,0,0,0
247.09,1.0988,2.6017,0.080036,0,0,0,0
247.59,1.1018,2.603,0.080315,0,0,0,0
248.09,1.105,2.604,0.080625,0,0,0,0
248.59,1.108,2.605,0.08081,0,0,0,0
249.09,1.111,2.6063,0.08112,0,0,0,0
249.59,1.1137,2.6077,0.081244,0,0,0,0
250.09,1.1166,2.609,0.081708,0,0,0,0
250.59,1.1193,2.61,0.0818,0,0,0,0
251.09,1.1221,2.611,0.082141,0,0,0,0
251.59,1.1248,2.6123,0.082388,0,0,0,0
252.09,1.1277,2.6137,0.082729,0,0,0,0
252.59,1.1307,2.615,0.082821,0,0,0,0
253.09,1.1337,2.616,0.083253,0,0,0,0
253.59,1.1369,2.617,0.083531,0,0,0,0
254.09,1.1399,2.6183,0.083686,0,0,0,0
254.59,1.1428,2.6197,0.083995,0,0,0,0
255.09,1.1457,2.621,0.084179,0,0,0,0
255.59,1.1487,2.622,0.084458,0,0,0,0
256.09,1.1511,2.623,0.084704,0,0,0,0
256.58,1.154,2.624,0.08489,0,0,0,0
257.08,1.1567,2.625,0.085136,0,0,0,0
257.59,1.16,2.6263,0.085506,0,0,0,0
258.09,1.1626,2.6277,0.085722,0,0,0,0
258.59,1.1657,2.629,0.085937,0,0,0,0
259.08,1.1688,2.63,0.08603,0,0,0,0
259.59,1.1721,2.631,0.086461,0,0,0,0
260.09,1.1748,2.632,0.086738,0,0,0,0
260.58,1.1778,2.633,0.087108,0,0,0,0
261.09,1.1805,2.634,0.087384,0,0,0,0
261.59,1.1833,2.635,0.087661,0,0,0,0
262.09,1.1866,2.636,0.088061,0,0,0,0
262.58,1.1893,2.637,0.088522,0,0,0,0
263.08,1.1919,2.6383,0.088737,0,0,0,0
263.58,1.1948,2.6394,0.088859,0,0,0,0
264.09,1.1978,2.6406,0.089259,0,0,0,0
264.58,1.2012,2.6414,0.089504,0,0,0,0
265.08,1.204,2.6426,0.089843,0,0,0,0
265.58,1.2065,2.6437,0.090057,0,0,0,0
266.08,1.2094,2.645,0.090394,0,0,0,0
266.58,1.2123,2.646,0.090517,0,0,0,0
267.08,1.2154,2.647,0.090763,0,0,0,0
267.59,1.2184,2.648,0.090977,0,0,0,0
268.09,1.2212,2.649,0.091375,0,0,0,0
268.59,1.2239,2.6503,0.09156,0,0,0,0
269.09,1.2272,2.6514,0.091804,0,0,0,0
269.58,1.2304,2.6523,0.092233,0,0,0,0
270.09,1.2332,2.653,0.092447,0,0,0,0
270.58,1.2363,2.654,0.092936,0,0,0,0
271.09,1.2393,2.6553,0.093121,0,0,0,0
271.58,1.2422,2.6564,0.093488,0,0,0,0
272.09,1.2447,2.6573,0.094007,0,0,0,0
272.59,1.2478,2.658,0.094099,0,0,0,0
273.08,1.2506,2.659,0.094496,0,0,0,0
273.58,1.2534,2.6603,0.094954,0,0,0,0
274.09,1.2569,2.6614,0.095076,0,0,0,0
274.58,1.2597,2.6623,0.095503,0,0,0,0
275.09,1.2629,2.663,0.09593,0,0,0,0
275.58,1.2659,2.664,0.096022,0,0,0,0
276.08,1.2688,2.665,0.096388,0,0,0,0
276.58,1.2717,2.6663,0.096723,0,0,0,0
277.09,1.2745,2.6674,0.097028,0,0,0,0
277.58,1.2772,2.6683,0.097363,0,0,0,0
278.08,1.2799,2.669,0.097607,0,0,0,0
278.58,1.2831,2.67,0.09785,0,0,0,0
279.09,1.2862,2.671,0.098276,0,0,0,0
279.59,1.2891,2.672,0.098459,0,0,0,0
280.08,1.2922,2.673,0.098824,0,0,0,0
280.59,1.2955,2.674,0.09928,0,0,0,0
281.08,1.2987,2.675,0.099675,0,0,0,0
281.59,1.3018,2.676,0.099979,0,0,0,0
282.08,1.3046,2.677,0.10047,0,0,0,0
282.58,1.3074,2.6777,0.10083,0,0,0,0
283.08,1.3101,2.6786,0.10125,0,0,0,0
283.59,1.313,2.6794,0.10147,0,0,0,0
284.08,1.316,2.6803,0.10177,0,0,0,0
284.59,1.3192,2.681,0.10219,0,0,0,0
285.08,1.3225,2.682,0.10253,0,0,0,0
285.58,1.3253,2.683,0.10265,0,0,0,0
286.08,1.3286,2.684,0.10304,0,0,0,0
286.58,1.332,2.685,0.10332,0,0,0,0
287.08,1.3347,2.686,0.10374,0,0,0,0
287.58,1.3373,2.687,0.10413,0,0,0,0
288.08,1.3404,2.6877,0.1044,0,0,0,0
288.58,1.3432,2.6883,0.1048,0,0,0,0
289.09,1.3461,2.689,0.1051,0,0,0,0
289.59,1.3488,2.69,0.10555,0,0,0,0
290.09,1.352,2.691,0.10595,0,0,0,0
290.58,1.3553,2.6917,0.10622,0,0,0,0
291.09,1.3582,2.6926,0.10673,0,0,0,0
291.59,1.3615,2.6937,0.10703,0,0,0,0
292.08,1.3644,2.695,0.10742,0,0,0,0
292.58,1.3674,2.6957,0.10782,0,0,0,0
293.08,1.3703,2.6963,0.10812,0,0,0,0
293.58,1.3731,2.697,0.10851,0,0,0,0
294.08,1.3759,2.698,0.10902,0,0,0,0
294.58,1.3787,2.6987,0.10905,0,0,0,0
295.08,1.3816,2.6993,0.10971,0,0,0,0
295.58,1.3849,2.7,0.11004,0,0,0,0
296.08,1.3885,2.7007,0.11034,0,0,0,0
296.59,1.3918,2.7013,0.11058,0,0,0,0
297.09,1.3947,2.702,0.11095,0,0,0,0
297.59,1.3975,2.703,0.11137,0,0,0,0
298.08,1.4005,2.704,0.1117,0,0,0,0
298.58,1.4032,2.705,0.11215,0,0,0,0
299.08,1.4059,2.7057,0.11266,0,0,0,0
299.58,1.4091,2.7063,0.11305,0,0,0,0
300.08,1.4119,2.707,0.11338,0,0,0,0
300.58,1.4152,2.708,0.11392,0,0,0,0
301.08,1.4183,2.709,0.1143,0,0,0,0
301.58,1.4215,2.7097,0.11454,0,0,0,0
302.08,1.4247,2.7103,0.11517,0,0,0,0
302.58,1.4278,2.711,0.11553,0,0,0,0
303.09,1.4309,2.712,0.11589,0,0,0,0
303.58,1.4338,2.7127,0.11631,0,0,0,0
304.08,1.4363,2.7133,0.11688,0,0,0,0
304.58,1.4394,2.7137,0.11727,0,0,0,0
305.09,1.4422,2.7143,0.11759,0,0,0,0
305.58,1.4455,2.715,0.11798,0,0,0,0
306.08,1.4484,2.716,0.1184,0,0,0,0
306.58,1.4516,2.7167,0.11876,0,0,0,0
307.09,1.4551,2.7173,0.11914,0,0,0,0
307.58,1.4579,2.718,0.11941,0,0,0,0
308.09,1.4606,2.7187,0.12004,0,0,0,0
308.58,1.4635,2.7193,0.1204,0,0,0,0
309.08,1.4665,2.72,0.12084,0,0,0,0
309.58,1.4695,2.7207,0.12114,0,0,0,0
310.09,1.4725,2.7213,0.12173,0,0,0,0
310.58,1.4749,2.722,0.12215,0,0,0,0
311.08,1.4787,2.723,0.12268,0,0,0,0
311.58,1.4817,2.7237,0.12331,0,0,0,0
312.08,1.4847,2.7243,0.12352,0,0,0,0
312.58,1.4881,2.7247,0.12414,0,0,0,0
313.08,1.4912,2.7253,0.12458,0,0,0,0
313.59,1.4942,2.726,0.12503,0,0,0,0
314.08,1.497,2.7267,0.12553,0,0,0,0
314.58,1.4998,2.7273,0.12583,0,0,0,0
315.08,1.5027,2.7277,0.12639,0,0,0,0
315.58,1.5056,2.7283,0.12677,0,0,0,0
316.08,1.5087,2.729,0.12728,0,0,0,0
316.58,1.512,2.7297,0.1279,0,0,0,0
317.08,1.5151,2.7303,0.12828,0,0,0,0
317.59,1.5183,2.7307,0.12872,0,0,0,0
318.08,1.5217,2.7313,0.12937,0,0,0,0
318.58,1.5247,2.732,0.12996,0,0,0,0
319.08,1.5278,2.7327,0.13049,0,0,0,0
319.58,1.5307,2.7333,0.13105,0,0,0,0
320.08,1.5338,2.7337,0.13147,0,0,0,0
320.58,1.5366,2.734,0.13211,0,0,0,0
321.08,1.5397,2.7343,0.13255,0,0,0,0
321.58,1.5429,2.735,0.13302,0,0,0,0
322.09,1.5461,2.7357,0.1337,0,0,0,0
322.58,1.5494,2.7363,0.13411,0,0,0,0
323.08,1.5527,2.7367,0.13461,0,0,0,0
323.58,1.5558,2.7373,0.13505,0,0,0,0
324.08,1.5589,2.738,0.13564,0,0,0,0
324.58,1.5617,2.7387,0.13614,0,0,0,0
325.08,1.5644,2.739,0.13672,0,0,0,0
325.58,1.5678,2.7393,0.13734,0,0,0,0
326.09,1.5709,2.7397,0.13786,0,0,0,0
326.58,1.5742,2.7403,0.13856,0,0,0,0
327.08,1.5775,2.7407,0.13927,0,0,0,0
327.58,1.5805,2.7413,0.13985,0,0,0,0
328.08,1.5837,2.7417,0.1402,0,0,0,0
328.58,1.5869,2.742,0.14087,0,0,0,0
329.08,1.59,2.7423,0.14157,0,0,0,0
329.58,1.593,2.7427,0.14218,0,0,0,0
330.08,1.5958,2.7433,0.14279,0,0,0,0
330.58,1.5986,2.7437,0.14355,0,0,0,0
331.08,1.6017,2.744,0.14375,0,0,0,0
331.58,1.6049,2.7443,0.14448,0,0,0,0
332.08,1.608,2.7447,0.14515,0,0,0,0
332.58,1.6113,2.7453,0.14573,0,0,0,0
333.08,1.6146,2.7457,0.14628,0,0,0,0
333.58,1.6176,2.746,0.14692,0,0,0,0
334.08,1.6208,2.7463,0.14753,0,0,0,0
334.58,1.6237,2.7467,0.14811,0,0,0,0
335.08,1.6268,2.747,0.14883,0,0,0,0
335.58,1.6299,2.7473,0.14955,0,0,0,0
336.08,1.6325,2.7477,0.15025,0,0,0,0
336.58,1.6358,2.748,0.15079,0,0,0,0
337.08,1.6388,2.748,0.15149,0,0,0,0
337.58,1.6423,2.7483,0.15215,0,0,0,0
338.08,1.6456,2.7487,0.15293,0,0,0,0
338.58,1.6485,2.749,0.15368,0,0,0,0
339.08,1.6518,2.7493,0.15422,0,0,0,0
339.58,1.6549,2.7497,0.155,0,0,0,0
340.08,1.6582,2.75,0.15572,0,0,0,0
340.58,1.6609,2.7503,0.15664,0,0,0,0
341.08,1.6639,2.7507,0.15721,0,0,0,0
341.58,1.6672,2.751,0.15804,0,0,0,0
342.08,1.6704,2.751,0.15879,0,0,0,0
342.58,1.6736,2.751,0.15942,0,0,0,0
343.08,1.6769,2.751,0.16025,0,0,0,0
343.58,1.6801,2.751,0.16099,0,0,0,0
344.08,1.6834,2.7513,0.16185,0,0,0,0
344.58,1.6865,2.7517,0.16265,0,0,0,0
345.08,1.6898,2.752,0.1635,0,0,0,0
345.58,1.6928,2.752,0.16433,0,0,0,0
346.08,1.6958,2.752,0.16513,0,0,0,0
346.58,1.6989,2.752,0.16607,0,0,0,0
347.08,1.7023,2.752,0.16706,0,0,0,0
347.58,1.7056,2.7523,0.16777,0,0,0,0
348.08,1.7089,2.7527,0.16876,0,0,0,0
348.58,1.7124,2.7527,0.1695,0,0,0,0
349.08,1.7156,2.7523,0.17058,0,0,0,0
349.58,1.719,2.752,0.17137,0,0,0,0
350.08,1.7218,2.752,0.17225,0,0,0,0
350.58,1.725,2.752,0.17321,0,0,0,0
351.08,1.7282,2.7523,0.17408,0,0,0,0
351.58,1.7311,2.7527,0.17501,0,0,0,0
352.08,1.7346,2.7527,0.17589,0,0,0,0
352.58,1.7375,2.7523,0.17684,0,0,0,0
353.08,1.7416,2.752,0.17794,0,0,0,0
353.58,1.7448,2.752,0.17892,0,0,0,0
354.08,1.7482,2.7517,0.17985,0,0,0,0
354.58,1.7511,2.7516,0.18086,0,0,0,0
355.08,1.7545,2.7514,0.18184,0,0,0,0
355.58,1.7578,2.7513,0.18276,0,0,0,0
356.08,1.7604,2.751,0.18388,0,0,0,0
356.58,1.7636,2.751,0.18486,0,0,0,0
357.08,1.767,2.7507,0.186,0,0,0,0
357.58,1.7701,2.7503,0.18692,0,0,0,0
358.08,1.7739,2.75,0.18806,0,0,0,0
358.58,1.7772,2.7497,0.18931,0,0,0,0
359.08,1.7809,2.7493,0.19039,0,0,0,0
359.58,1.784,2.749,0.19136,0,0,0,0
360.08,1.7873,2.7487,0.1925,0,0,0,0
360.58,1.7903,2.7483,0.19394,0,0,0,0
361.08,1.7936,2.7477,0.19493,0,0,0,0
361.58,1.7968,2.7473,0.19623,0,0,0,0
362.08,1.8002,2.7467,0.19742,0,0,0,0
362.58,1.8036,2.7463,0.19852,0,0,0,0
363.08,1.8068,2.7457,0.19962,0,0,0,0
363.58,1.8104,2.7453,0.20097,0,0,0,0
364.08,1.8137,2.7447,0.20215,0,0,0,0
364.58,1.8172,2.744,0.20352,0,0,0,0
365.08,1.8204,2.7433,0.20494,0,0,0,0
365.58,1.8237,2.7427,0.20617,0,0,0,0
366.08,1.827,2.742,0.20748,0,0,0,0
366.58,1.83,2.741,0.20898,0,0,0,0
367.08,1.8332,2.7403,0.21029,0,0,0,0
367.58,1.8366,2.7397,0.21165,0,0,0,0
368.08,1.8406,2.739,0.21279,0,0,0,0
368.58,1.8438,2.738,0.21441,0,0,0,0
369.08,1.8475,2.737,0.21577,0,0,0,0
369.58,1.8505,2.736,0.2172,0,0,0,0
370.08,1.8541,2.735,0.21847,0,0,0,0
370.58,1.8574,2.734,0.22003,0,0,0,0
371.08,1.8605,2.733,0.22159,0,0,0,0
371.58,1.8639,2.7317,0.2231,0,0,0,0
372.08,1.8672,2.7303,0.22466,0,0,0,0
372.58,1.8708,2.729,0.2261,0,0,0,0
373.08,1.8743,2.728,0.2276,0,0,0,0
373.58,1.8777,2.7267,0.22915,0,0,0,0
374.08,1.8813,2.7253,0.23062,0,0,0,0
374.58,1.8849,2.7237,0.23208,0,0,0,0
375.08,1.8881,2.7223,0.23368,0,0,0,0
375.58,1.891,2.7207,0.2353,0,0,0,0
376.08,1.8946,2.7193,0.237,0,0,0,0
376.58,1.8979,2.7177,0.23864,0,0,0,0
377.08,1.9013,2.716,0.2403,0,0,0,0
377.58,1.9048,2.7143,0.24181,0,0,0,0
378.08,1.9084,2.7124,0.24352,0,0,0,0
378.58,1.9121,2.7103,0.2452,0,0,0,0
379.08,1.9156,2.7083,0.24683,0,0,0,0
379.58,1.9192,2.7064,0.24864,0,0,0,0
380.09,1.9224,2.7043,0.25031,0,0,0,0
380.58,1.9258,2.702,0.25199,0,0,0,0
381.08,1.9291,2.7,0.25376,0,0,0,0
381.58,1.9324,2.698,0.25548,0,0,0,0
382.08,1.9357,2.6957,0.25719,0,0,0,0
382.58,1.9394,2.6933,0.25903,0,0,0,0
383.08,1.9428,2.691,0.2609,0,0,0,0
383.58,1.9466,2.6887,0.26271,0,0,0,0
384.08,1.9501,2.686,0.26428,0,0,0,0
384.58,1.9539,2.683,0.26619,0,0,0,0
385.08,1.9573,2.6803,0.26809,0,0,0,0
385.58,1.9604,2.6777,0.26986,0,0,0,0
386.08,1.9638,2.675,0.27155,0,0,0,0
386.58,1.9673,2.6717,0.27344,0,0,0,0
387.08,1.9706,2.6683,0.27538,0,0,0,0
387.58,1.9744,2.665,0.27727,0,0,0,0
388.08,1.9784,2.662,0.27905,0,0,0,0
388.58,1.9821,2.659,0.28087,0,0,0,0
389.08,1.9857,2.6557,0.28293,0,0,0,0
389.58,1.9894,2.6523,0.28482,0,0,0,0
390.08,1.9927,2.6487,0.28689,0,0,0,0
390.58,1.9964,2.645,0.28875,0,0,0,0
391.08,1.9997,2.641,0.29071,0,0,0,0
391.58,2.0031,2.637,0.2929,0,0,0,0
392.08,2.007,2.633,0.2947,0,0,0,0
392.58,2.0106,2.629,0.2967,0,0,0,0
393.08,2.0145,2.625,0.29869,0,0,0,0
393.58,2.0179,2.621,0.30063,0,0,0,0
394.08,2.0222,2.617,0.30257,0,0,0,0
394.58,2.0255,2.6127,0.30458,0,0,0,0
395.08,2.0293,2.6083,0.30648,0,0,0,0
395.58,2.0327,2.6037,0.30856,0,0,0,0
396.08,2.0363,2.5987,0.31053,0,0,0,0
396.58,2.0399,2.5936,0.31279,0,0,0,0
397.08,2.0439,2.5887,0.31476,0,0,0,0
397.58,2.0479,2.584,0.31694,0,0,0,0
398.08,2.0518,2.5787,0.31909,0,0,0,0
398.58,2.0557,2.5733,0.32111,0,0,0,0
399.08,2.0593,2.568,0.32338,0,0,0,0
399.58,2.0632,2.5627,0.32549,0,0,0,0
400.08,2.067,2.557,0.3276,0,0,0,0
400.58,2.0697,2.5507,0.32984,0,0,0,0
401.08,2.0742,2.5446,0.33223,0,0,0,0
401.58,2.0779,2.5387,0.33442,0,0,0,0
402.08,2.082,2.5327,0.33654,0,0,0,0
402.58,2.086,2.5263,0.33881,0,0,0,0
403.08,2.09,2.52,0.34108,0,0,0,0
403.58,2.094,2.5137,0.34335,0,0,0,0
404.08,2.0978,2.5073,0.34571,0,0,0,0
404.58,2.1013,2.5004,0.34787,0,0,0,0
405.08,2.1054,2.493,0.35035,0,0,0,0
405.58,2.109,2.4853,0.35267,0,0,0,0
406.08,2.1128,2.478,0.35503,0,0,0,0
406.58,2.117,2.4707,0.35729,0,0,0,0
407.08,2.1211,2.463,0.35964,0,0,0,0
407.58,2.1255,2.4553,0.36196,0,0,0,0
408.08,2.1292,2.4471,0.36439,0,0,0,0
408.58,2.1333,2.4386,0.36695,0,0,0,0
409.08,2.1373,2.4297,0.36958,0,0,0,0
409.58,2.141,2.4204,0.37217,0,0,0,0
410.08,2.1452,2.4111,0.37488,0,0,0,0
410.58,2.1493,2.4019,0.37737,0,0,0,0
411.08,2.1537,2.3917,0.37988,0,0,0,0
411.58,2.1581,2.3803,0.38254,0,0,0,0
412.08,2.1626,2.3679,0.38549,0,0,0,0