File: polyN_optimization/results_exp/AA6014-T4/NT6_90_3.csv
Time[s],Displacement[mm],Force[kN],AxStrain_1,AxStrain_2,Thickness[mm],OuterWidth[mm],InnerWidth[mm]
0.59,0,-0.0052326,0,0,1.1185,20,10.09
1.09,0.000184,0.0033292,-4.2001e-05,0,0,0,0
1.59,0.000574,0.013726,-0.00018502,0,0,0,0
2.09,0.001137,0.036568,2.2e-05,0,0,0,0
2.59,0.001638,0.062714,7.4997e-05,0,0,0,0
3.09,0.001983,0.087573,-6.2002e-05,0,0,0,0
3.59,0.002276,0.10871,5.1999e-05,0,0,0,0
4.09,0.002632,0.12486,0.00014199,0,0,0,0
4.59,0.002782,0.13972,9.0996e-05,0,0,0,0
5.09,0.003298,0.15829,0.00019698,0,0,0,0
5.59,0.003588,0.17785,9.3996e-05,0,0,0,0
6.09,0.003747,0.19657,0.00026796,0,0,0,0
6.59,0.004141,0.21357,0.00021298,0,0,0,0
7.09,0.004197,0.22814,0.00034294,0,0,0,0
7.59,0.004489,0.23943,0.00018798,0,0,0,0
8.09,0.004583,0.24957,0.00029796,0,0,0,0
8.59,0.004722,0.26,0.00025197,0,0,0,0
9.09,0.005202,0.27243,0.00022198,0,0,0,0
9.59,0.005299,0.287,0.00016399,0,0,0,0
10.09,0.005654,0.30214,0.00027796,0,0,0,0
10.59,0.006156,0.31715,0.00029996,0,0,0,0
11.09,0.006643,0.33157,0.00014199,0,0,0,0
11.59,0.007053,0.34529,0.00010599,0,0,0,0
12.09,0.007324,0.35915,0.00020798,0,0,0,0
12.59,0.0077,0.37385,0.00029996,0,0,0,0
13.09,0.008181,0.38829,6.3998e-05,0,0,0,0
13.59,0.008311,0.40257,0.00029896,0,0,0,0
14.09,0.008602,0.41829,0.00015399,0,0,0,0
14.59,0.008938,0.43414,0.00025197,0,0,0,0
15.09,0.009195,0.44986,0.00035294,0,0,0,0
15.59,0.00941,0.46514,0.00024497,0,0,0,0
16.09,0.009632,0.47971,0.00033894,0,0,0,0
16.59,0.009753,0.49443,0.00029896,0,0,0,0
17.09,0.010038,0.50985,0.00029896,0,0,0,0
17.59,0.010186,0.525,0.00038293,0,0,0,0
18.09,0.010397,0.53986,0.00037293,0,0,0,0
18.59,0.010807,0.55629,0.00030595,0,0,0,0
19.09,0.011166,0.57285,0.00051387,0,0,0,0
19.59,0.011478,0.58915,0.00022797,0,0,0,0
20.09,0.011804,0.60485,0.00042991,0,0,0,0
20.59,0.012167,0.62,0.00047988,0,0,0,0
21.09,0.012778,0.63515,0.00049688,0,0,0,0
21.59,0.013023,0.65085,0.00047289,0,0,0,0
22.09,0.013546,0.666,0.00054085,0,0,0,0
22.59,0.014248,0.68086,0.00039992,0,0,0,0
23.09,0.014711,0.69729,0.00057384,0,0,0,0
23.59,0.015292,0.71385,0.00062381,0,0,0,0
24.09,0.015618,0.73015,0.00065479,0,0,0,0
24.59,0.016105,0.74585,0.00069776,0,0,0,0
25.09,0.016568,0.761,0.00053386,0,0,0,0
25.59,0.016635,0.77615,0.0006278,0,0,0,0
26.09,0.017065,0.79185,0.00058783,0,0,0,0
26.59,0.017354,0.807,0.00049388,0,0,0,0
27.09,0.017511,0.82215,0.0006308,0,0,0,0
27.59,0.017847,0.839,0.00068776,0,0,0,0
28.09,0.017928,0.85585,0.00047289,0,0,0,0
28.59,0.018129,0.87186,0.00066778,0,0,0,0
29.09,0.018391,0.88743,0.00054685,0,0,0,0
29.59,0.01875,0.90271,0.00058783,0,0,0,0
30.09,0.018975,0.91786,0.00075472,0,0,0,0
30.59,0.019479,0.93314,0.00075172,0,0,0,0
31.09,0.020043,0.948,0.00067477,0,0,0,0
31.59,0.020355,0.96286,0.00075871,0,0,0,0
32.09,0.020929,0.979,0.00064779,0,0,0,0
32.59,0.021517,0.99514,0.00084564,0,0,0,0
33.09,0.021923,1.0109,0.00069176,0,0,0,0
33.59,0.022588,1.0261,0.00078869,0,0,0,0
34.09,0.023232,1.041,0.00075871,0,0,0,0
34.59,0.023669,1.0559,0.00082566,0,0,0,0
35.09,0.024125,1.0711,0.00091658,0,0,0,0
35.59,0.024354,1.0857,0.00088261,0,0,0,0
36.09,0.024874,1.1001,0.00091258,0,0,0,0
36.59,0.02525,1.116,0.00083265,0,0,0,0
37.09,0.025535,1.1319,0.00080568,0,0,0,0
37.59,0.026079,1.1471,0.0009965,0,0,0,0
38.09,0.026287,1.1619,0.00091958,0,0,0,0
38.59,0.026724,1.176,0.0010974,0,0,0,0
39.09,0.02718,1.1901,0.00086563,0,0,0,0
39.59,0.027479,1.2049,0.00096653,0,0,0,0
40.09,0.02803,1.219,0.00080168,0,0,0,0
40.59,0.028231,1.2329,0.0010035,0,0,0,0
41.09,0.028856,1.2483,0.0008926,0,0,0,0
41.59,0.02947,1.2636,0.0010504,0,0,0,0
42.09,0.030132,1.2781,0.0010405,0,0,0,0
42.59,0.030665,1.2919,0.0010105,0,0,0,0
43.09,0.031344,1.3053,0.0011983,0,0,0,0
43.59,0.032179,1.3186,0.0012412,0,0,0,0
44.09,0.032891,1.3321,0.0012143,0,0,0,0
44.59,0.033395,1.345,0.0012612,0,0,0,0
45.09,0.03407,1.3587,0.0012582,0,0,0,0
45.59,0.035023,1.373,0.0015228,0,0,0,0
46.09,0.035755,1.3857,0.0016836,0,0,0,0
46.59,0.036974,1.3963,0.0020359,0,0,0,0
47.09,0.038061,1.4064,0.0023812,0,0,0,0
47.59,0.039277,1.4154,0.0023812,0,0,0,0
48.09,0.040667,1.4241,0.0029536,0,0,0,0
48.59,0.042325,1.4329,0.0030105,0,0,0,0
49.09,0.043648,1.4413,0.0032108,0,0,0,0
49.59,0.045602,1.4493,0.0034191,0,0,0,0
50.09,0.047203,1.458,0.0036463,0,0,0,0
50.59,0.049117,1.4664,0.0036902,0,0,0,0
51.09,0.051111,1.4746,0.0040707,0,0,0,0
51.59,0.053216,1.4824,0.0042519,0,0,0,0
52.09,0.054895,1.49,0.0045188,0,0,0,0
52.59,0.056735,1.4973,0.004903,0,0,0,0
53.09,0.058601,1.5044,0.0050263,0,0,0,0
53.59,0.060381,1.5113,0.0052542,0,0,0,0
54.09,0.062183,1.5186,0.0055177,0,0,0,0
54.59,0.064117,1.5259,0.0059354,0,0,0,0
55.09,0.066078,1.5326,0.0062186,0,0,0,0
55.59,0.068203,1.5387,0.0065058,0,0,0,0
56.09,0.07015,1.545,0.0068157,0,0,0,0
56.59,0.072326,1.551,0.0072526,0,0,0,0
57.09,0.074562,1.5573,0.0074492,0,0,0,0
57.59,0.076895,1.5634,0.0078322,0,0,0,0
58.09,0.079222,1.569,0.0080823,0,0,0,0
58.59,0.081219,1.5746,0.0083014,0,0,0,0
59.09,0.083452,1.581,0.008235,0,0,0,0
59.59,0.085449,1.5874,0.0083689,0,0,0,0
60.09,0.087336,1.5933,0.0084214,0,0,0,0
60.59,0.089538,1.5987,0.0086683,0,0,0,0
61.09,0.091513,1.604,0.0087546,0,0,0,0
61.59,0.093822,1.6093,0.0088914,0,0,0,0
62.09,0.096109,1.6147,0.0089439,0,0,0,0
62.59,0.098291,1.62,0.0091005,0,0,0,0
63.09,0.10081,1.6253,0.0093601,0,0,0,0
63.59,0.10307,1.6307,0.0096196,0,0,0,0
64.09,0.10547,1.636,0.0099117,0,0,0,0
64.59,0.10741,1.6413,0.010035,0,0,0,0
65.09,0.11,1.6464,0.010411,0,0,0,0
65.59,0.11227,1.6513,0.010909,0,0,0,0
66.09,0.11428,1.656,0.011158,0,0,0,0
66.59,0.11638,1.6613,0.011516,0,0,0,0
67.09,0.11872,1.6661,0.011795,0,0,0,0
67.59,0.12096,1.6709,0.012127,0,0,0,0
68.09,0.12331,1.6757,0.012253,0,0,0,0
68.59,0.12575,1.6807,0.012597,0,0,0,0
69.09,0.12831,1.6853,0.012654,0,0,0,0
69.59,0.13112,1.69,0.01287,0,0,0,0
70.09,0.13332,1.6947,0.012843,0,0,0,0
70.59,0.1357,1.6993,0.012876,0,0,0,0
71.09,0.1382,1.7037,0.012922,0,0,0,0
71.59,0.14057,1.7083,0.013082,0,0,0,0
72.09,0.14277,1.7127,0.013231,0,0,0,0
72.59,0.14512,1.7176,0.013473,0,0,0,0
73.09,0.14751,1.7224,0.013622,0,0,0,0
73.59,0.15001,1.727,0.0139,0,0,0,0
74.09,0.15233,1.731,0.014119,0,0,0,0
74.59,0.15504,1.735,0.01432,0,0,0,0
75.09,0.15758,1.7393,0.014761,0,0,0,0
75.59,0.16032,1.744,0.014985,0,0,0,0
76.09,0.16279,1.7484,0.015399,0,0,0,0
76.59,0.16528,1.7526,0.015667,0,0,0,0
77.09,0.16767,1.757,0.015957,0,0,0,0
77.59,0.16984,1.7614,0.01605,0,0,0,0
78.09,0.17222,1.7656,0.016492,0,0,0,0
78.59,0.17472,1.7697,0.016625,0,0,0,0
79.09,0.17725,1.7737,0.016918,0,0,0,0
79.59,0.17962,1.7776,0.017004,0,0,0,0
80.09,0.18219,1.7817,0.017037,0,0,0,0
80.59,0.18473,1.7857,0.017152,0,0,0,0
81.09,0.1877,1.7896,0.017166,0,0,0,0
81.59,0.19048,1.7937,0.017429,0,0,0,0
82.09,0.19297,1.798,0.017394,0,0,0,0
82.59,0.19562,1.802,0.017579,0,0,0,0
83.09,0.19795,1.806,0.017631,0,0,0,0
83.59,0.20053,1.81,0.017965,0,0,0,0
84.09,0.2029,1.814,0.018089,0,0,0,0
84.59,0.20554,1.818,0.018301,0,0,0,0
85.09,0.2081,1.8217,0.018719,0,0,0,0
85.59,0.21056,1.8253,0.018871,0,0,0,0
86.09,0.21313,1.8293,0.019259,0,0,0,0
86.59,0.21619,1.8334,0.019371,0,0,0,0
87.09,0.21876,1.8373,0.019713,0,0,0,0
87.59,0.22172,1.841,0.020082,0,0,0,0
88.09,0.22441,1.8447,0.020207,0,0,0,0
88.59,0.22698,1.8486,0.020404,0,0,0,0
89.09,0.22906,1.8524,0.020605,0,0,0,0
89.59,0.23168,1.856,0.020734,0,0,0,0
90.09,0.2342,1.8593,0.020832,0,0,0,0
90.59,0.23681,1.863,0.020996,0,0,0,0
91.09,0.23934,1.867,0.021164,0,0,0,0
91.59,0.24237,1.871,0.02122,0,0,0,0
92.09,0.24515,1.8747,0.021296,0,0,0,0
92.59,0.24794,1.878,0.021437,0,0,0,0
93.09,0.25044,1.8813,0.021615,0,0,0,0
93.59,0.25329,1.8847,0.021785,0,0,0,0
94.09,0.25591,1.8883,0.022048,0,0,0,0
94.59,0.25862,1.892,0.022169,0,0,0,0
95.09,0.26093,1.896,0.022583,0,0,0,0
95.59,0.26354,1.8997,0.02259,0,0,0,0
96.09,0.26627,1.9033,0.023115,0,0,0,0
96.59,0.26869,1.9067,0.023138,0,0,0,0
97.09,0.27134,1.91,0.023407,0,0,0,0
97.59,0.27425,1.913,0.023689,0,0,0,0
98.09,0.27718,1.916,0.023738,0,0,0,0
98.59,0.28008,1.9193,0.02401,0,0,0,0
99.09,0.28274,1.923,0.024253,0,0,0,0
99.59,0.28519,1.9267,0.024371,0,0,0,0
100.09,0.28783,1.93,0.024383,0,0,0,0
100.59,0.29026,1.9333,0.024564,0,0,0,0
101.09,0.29294,1.9367,0.024901,0,0,0,0
101.59,0.29553,1.94,0.024996,0,0,0,0
102.09,0.29804,1.9433,0.025203,0,0,0,0
102.59,0.30056,1.9464,0.025375,0,0,0,0
103.09,0.30332,1.9493,0.02554,0,0,0,0
103.59,0.30639,1.9523,0.02568,0,0,0,0
104.09,0.30927,1.956,0.025818,0,0,0,0
104.59,0.3119,1.9594,0.026105,0,0,0,0
105.09,0.31455,1.9626,0.026341,0,0,0,0
105.59,0.3174,1.9657,0.026394,0,0,0,0
106.09,0.31991,1.969,0.026583,0,0,0,0
106.59,0.32236,1.972,0.027008,0,0,0,0
107.09,0.32515,1.975,0.027152,0,0,0,0
107.59,0.32738,1.978,0.027194,0,0,0,0
108.09,0.33032,1.981,0.02757,0,0,0,0
108.59,0.3329,1.9843,0.027593,0,0,0,0
109.09,0.33565,1.9874,0.027857,0,0,0,0
109.59,0.33863,1.9906,0.028021,0,0,0,0
110.09,0.34155,1.9934,0.028226,0,0,0,0
110.59,0.34441,1.9963,0.028288,0,0,0,0
111.09,0.34699,1.9993,0.028556,0,0,0,0
111.59,0.34954,2.0024,0.028735,0,0,0,0
112.09,0.35201,2.0053,0.028882,0,0,0,0
112.59,0.35454,2.008,0.029179,0,0,0,0
113.09,0.3573,2.0113,0.029267,0,0,0,0
113.59,0.35991,2.0144,0.029475,0,0,0,0
114.09,0.36278,2.0173,0.029671,0,0,0,0
114.59,0.36571,2.02,0.029834,0,0,0,0
115.09,0.36865,2.023,0.029997,0,0,0,0
115.59,0.37146,2.026,0.030193,0,0,0,0
116.09,0.37429,2.029,0.03029,0,0,0,0
116.59,0.37698,2.0317,0.030551,0,0,0,0
117.09,0.37963,2.0343,0.030843,0,0,0,0
117.59,0.3821,2.037,0.030941,0,0,0,0
118.09,0.38472,2.04,0.031137,0,0,0,0
118.59,0.38752,2.043,0.031169,0,0,0,0
119.09,0.39007,2.0457,0.031462,0,0,0,0
119.59,0.39302,2.0483,0.03169,0,0,0,0
120.09,0.3957,2.051,0.031885,0,0,0,0
120.59,0.39891,2.054,0.03221,0,0,0,0
121.09,0.40168,2.057,0.032372,0,0,0,0
121.59,0.40462,2.0597,0.032502,0,0,0,0
122.09,0.40737,2.0626,0.032698,0,0,0,0
122.59,0.40997,2.0654,0.032698,0,0,0,0
123.09,0.41265,2.0683,0.032958,0,0,0,0
123.59,0.41507,2.0707,0.033185,0,0,0,0
124.09,0.41784,2.073,0.033444,0,0,0,0
124.59,0.42055,2.0756,0.033575,0,0,0,0
125.09,0.42359,2.0784,0.033802,0,0,0,0
125.59,0.42645,2.081,0.033964,0,0,0,0
126.09,0.42929,2.0836,0.034094,0,0,0,0
126.59,0.43225,2.0864,0.034224,0,0,0,0
127.09,0.43502,2.0893,0.034451,0,0,0,0
127.59,0.43795,2.0917,0.034581,0,0,0,0
128.09,0.44058,2.0943,0.034807,0,0,0,0
128.59,0.44327,2.0967,0.035002,0,0,0,0
129.09,0.44578,2.0993,0.035067,0,0,0,0
129.59,0.44854,2.1017,0.035327,0,0,0,0
130.09,0.45138,2.1043,0.035456,0,0,0,0
130.59,0.4544,2.1067,0.035812,0,0,0,0
131.09,0.45684,2.1093,0.035974,0,0,0,0
131.59,0.46022,2.112,0.036136,0,0,0,0
132.09,0.46315,2.1147,0.03633,0,0,0,0
132.59,0.46612,2.1173,0.036492,0,0,0,0
133.09,0.46888,2.1197,0.036622,0,0,0,0
133.59,0.47141,2.1223,0.036719,0,0,0,0
134.09,0.47414,2.125,0.036978,0,0,0,0
134.59,0.4768,2.1274,0.037171,0,0,0,0
135.09,0.47967,2.1296,0.037333,0,0,0,0
135.59,0.48226,2.132,0.037495,0,0,0,0
136.09,0.48515,2.1347,0.037786,0,0,0,0
136.59,0.4881,2.137,0.037883,0,0,0,0
137.09,0.49123,2.139,0.038077,0,0,0,0
137.59,0.49417,2.141,0.038239,0,0,0,0
138.09,0.49711,2.1433,0.03853,0,0,0,0
138.59,0.49997,2.1457,0.038691,0,0,0,0
139.09,0.50271,2.1483,0.038885,0,0,0,0
139.59,0.50514,2.1507,0.039176,0,0,0,0
140.09,0.508,2.1533,0.03937,0,0,0,0
140.59,0.51064,2.1557,0.039499,0,0,0,0
141.09,0.51337,2.158,0.039627,0,0,0,0
141.59,0.51628,2.16,0.039692,0,0,0,0
142.09,0.51943,2.162,0.039853,0,0,0,0
142.59,0.52252,2.1643,0.040079,0,0,0,0
143.09,0.52555,2.1667,0.04024,0,0,0,0
143.59,0.52853,2.169,0.040369,0,0,0,0
144.09,0.53119,2.171,0.040563,0,0,0,0
144.59,0.53376,2.1733,0.04066,0,0,0,0
145.09,0.53642,2.1757,0.040853,0,0,0,0
145.59,0.53919,2.178,0.041111,0,0,0,0
146.09,0.5418,2.18,0.04124,0,0,0,0
146.59,0.54486,2.182,0.041433,0,0,0,0
147.09,0.54777,2.1843,0.041626,0,0,0,0
147.59,0.55063,2.1867,0.041884,0,0,0,0
148.09,0.55369,2.189,0.042206,0,0,0,0
148.59,0.55671,2.191,0.042367,0,0,0,0
149.09,0.55963,2.193,0.042528,0,0,0,0
149.59,0.56248,2.195,0.042721,0,0,0,0
150.09,0.56524,2.197,0.042945,0,0,0,0
150.59,0.56797,2.199,0.043171,0,0,0,0
151.09,0.57061,2.201,0.043267,0,0,0,0
151.59,0.57337,2.2033,0.04346,0,0,0,0
152.09,0.57625,2.2057,0.043524,0,0,0,0
152.59,0.57918,2.208,0.043878,0,0,0,0
153.09,0.58206,2.21,0.043814,0,0,0,0
153.59,0.58529,2.2123,0.043975,0,0,0,0
154.09,0.5883,2.2144,0.0442,0,0,0,0
154.59,0.59124,2.2163,0.044328,0,0,0,0
155.09,0.59388,2.218,0.044424,0,0,0,0
155.59,0.59667,2.22,0.044745,0,0,0,0
156.09,0.59949,2.2223,0.044937,0,0,0,0
156.59,0.60213,2.2244,0.045066,0,0,0,0
157.09,0.60503,2.2263,0.045291,0,0,0,0
157.59,0.60797,2.228,0.045643,0,0,0,0
158.09,0.61088,2.2303,0.045964,0,0,0,0
158.59,0.61416,2.2324,0.046189,0,0,0,0
159.09,0.61711,2.2343,0.046382,0,0,0,0
159.59,0.62012,2.2363,0.046477,0,0,0,0
160.09,0.62292,2.2384,0.04683,0,0,0,0
160.59,0.62585,2.2406,0.047054,0,0,0,0
161.09,0.62849,2.2427,0.047118,0,0,0,0
161.59,0.63121,2.2447,0.047182,0,0,0,0
162.09,0.63397,2.2463,0.047342,0,0,0,0
162.59,0.63696,2.2483,0.047374,0,0,0,0
163.09,0.63975,2.2504,0.047663,0,0,0,0
163.59,0.64289,2.2526,0.047887,0,0,0,0
164.09,0.64595,2.2544,0.047791,0,0,0,0
164.59,0.64902,2.2563,0.04811,0,0,0,0
165.09,0.65203,2.258,0.04827,0,0,0,0
165.59,0.65502,2.26,0.048431,0,0,0,0
166.09,0.65758,2.262,0.048591,0,0,0,0
166.59,0.66049,2.264,0.04907,0,0,0,0
167.09,0.66332,2.266,0.049262,0,0,0,0
167.59,0.66599,2.268,0.049454,0,0,0,0
168.09,0.66877,2.2697,0.049709,0,0,0,0
168.59,0.67173,2.2713,0.0499,0,0,0,0
169.09,0.6747,2.273,0.049965,0,0,0,0
169.59,0.67788,2.2753,0.050188,0,0,0,0
170.09,0.68101,2.2774,0.050412,0,0,0,0
170.59,0.68403,2.279,0.050604,0,0,0,0
171.09,0.6868,2.2803,0.050858,0,0,0,0
171.59,0.68941,2.2823,0.050922,0,0,0,0
172.09,0.69218,2.2847,0.051114,0,0,0,0
172.59,0.69483,2.287,0.051274,0,0,0,0
173.09,0.69779,2.2887,0.051466,0,0,0,0
173.59,0.70078,2.2903,0.05172,0,0,0,0
174.09,0.70368,2.292,0.051688,0,0,0,0
174.59,0.70658,2.294,0.051943,0,0,0,0
175.09,0.70993,2.2957,0.052198,0,0,0,0
175.59,0.71291,2.2973,0.052102,0,0,0,0
176.09,0.71582,2.299,0.052389,0,0,0,0
176.59,0.71874,2.301,0.052676,0,0,0,0
177.09,0.72155,2.303,0.052899,0,0,0,0
177.59,0.7241,2.305,0.053185,0,0,0,0
178.09,0.72696,2.3067,0.053473,0,0,0,0
178.59,0.72959,2.3083,0.053694,0,0,0,0
179.09,0.73239,2.3097,0.053917,0,0,0,0
179.59,0.73551,2.3113,0.053949,0,0,0,0
180.09,0.73852,2.313,0.054331,0,0,0,0
180.59,0.74168,2.315,0.05449,0,0,0,0
181.09,0.74488,2.317,0.054713,0,0,0,0
181.59,0.74777,2.319,0.054808,0,0,0,0
182.09,0.75046,2.3207,0.054998,0,0,0,0
182.59,0.75313,2.3223,0.055221,0,0,0,0
183.09,0.75627,2.324,0.055507,0,0,0,0
183.59,0.75885,2.3257,0.055539,0,0,0,0
184.09,0.76183,2.3273,0.055666,0,0,0,0
184.59,0.76442,2.3287,0.056015,0,0,0,0
185.09,0.76743,2.3306,0.056238,0,0,0,0
185.59,0.77037,2.3324,0.056364,0,0,0,0
186.09,0.7737,2.3343,0.056554,0,0,0,0
186.59,0.77664,2.3357,0.056808,0,0,0,0
187.09,0.7796,2.3373,0.056998,0,0,0,0
187.59,0.78256,2.339,0.057316,0,0,0,0
188.09,0.78534,2.3407,0.057316,0,0,0,0
188.59,0.78793,2.3423,0.057665,0,0,0,0
189.09,0.79079,2.344,0.057823,0,0,0,0
189.59,0.79356,2.346,0.057981,0,0,0,0
190.09,0.79639,2.3477,0.058203,0,0,0,0
190.59,0.79946,2.3493,0.058425,0,0,0,0
191.09,0.80256,2.3507,0.058552,0,0,0,0
191.59,0.80568,2.3523,0.058836,0,0,0,0
192.09,0.80882,2.3537,0.059153,0,0,0,0
192.59,0.81155,2.3553,0.059312,0,0,0,0
193.09,0.81446,2.3567,0.059501,0,0,0,0
193.59,0.81705,2.3583,0.059628,0,0,0,0
194.09,0.81969,2.36,0.059786,0,0,0,0
194.59,0.82262,2.3617,0.060134,0,0,0,0
195.09,0.82534,2.3633,0.060418,0,0,0,0
195.59,0.8282,2.365,0.060514,0,0,0,0
196.09,0.83126,2.3667,0.060608,0,0,0,0
196.59,0.83427,2.3683,0.060924,0,0,0,0
197.09,0.83736,2.37,0.061145,0,0,0,0
197.59,0.84037,2.3717,0.061303,0,0,0,0
198.09,0.84327,2.3733,0.061398,0,0,0,0
198.59,0.84606,2.375,0.06184,0,0,0,0
199.09,0.84886,2.3767,0.06184,0,0,0,0
199.59,0.85169,2.3783,0.06206,0,0,0,0
200.09,0.85453,2.3797,0.062313,0,0,0,0
200.59,0.8574,2.381,0.062533,0,0,0,0
201.09,0.86026,2.3823,0.062723,0,0,0,0
201.59,0.86332,2.384,0.063007,0,0,0,0
202.09,0.86647,2.3857,0.06329,0,0,0,0
202.59,0.86958,2.387,0.063354,0,0,0,0
203.09,0.8728,2.3883,0.063889,0,0,0,0
203.59,0.87543,2.3897,0.064078,0,0,0,0
204.09,0.8784,2.3913,0.064077,0,0,0,0
204.59,0.88108,2.3927,0.064487,0,0,0,0
205.09,0.88396,2.3943,0.064677,0,0,0,0
205.59,0.88683,2.3957,0.06477,0,0,0,0
206.09,0.88978,2.3973,0.065085,0,0,0,0
206.59,0.89259,2.3987,0.065337,0,0,0,0
207.09,0.89574,2.4003,0.065557,0,0,0,0
207.59,0.89868,2.402,0.065588,0,0,0,0
208.09,0.90202,2.4037,0.065872,0,0,0,0
208.59,0.90492,2.4053,0.066092,0,0,0,0
209.09,0.908,2.4067,0.066312,0,0,0,0
209.59,0.91081,2.408,0.0665,0,0,0,0
210.09,0.9136,2.4093,0.066751,0,0,0,0
210.59,0.91622,2.4107,0.067097,0,0,0,0
211.09,0.91896,2.4123,0.067159,0,0,0,0
211.59,0.92209,2.4137,0.067568,0,0,0,0
212.09,0.92523,2.4153,0.067693,0,0,0,0
212.59,0.9284,2.4167,0.068007,0,0,0,0
213.09,0.93142,2.418,0.068258,0,0,0,0
213.59,0.93446,2.4193,0.068572,0,0,0,0
214.09,0.9376,2.4207,0.068822,0,0,0,0
214.59,0.94034,2.4223,0.068792,0,0,0,0
215.09,0.94334,2.4237,0.069136,0,0,0,0
215.59,0.946,2.425,0.069324,0,0,0,0
216.09,0.94857,2.4263,0.069418,0,0,0,0
216.59,0.95149,2.428,0.069763,0,0,0,0
217.09,0.9543,2.4297,0.069794,0,0,0,0
217.59,0.95746,2.431,0.070013,0,0,0,0
218.09,0.96059,2.4323,0.070482,0,0,0,0
218.59,0.96377,2.4337,0.070451,0,0,0,0
219.09,0.96695,2.435,0.070702,0,0,0,0
219.59,0.96989,2.436,0.070951,0,0,0,0
220.09,0.97257,2.4373,0.071201,0,0,0,0
220.59,0.97556,2.4387,0.07142,0,0,0,0
221.09,0.97843,2.4403,0.071608,0,0,0,0
221.59,0.98103,2.4417,0.071921,0,0,0,0
222.09,0.98384,2.4433,0.072139,0,0,0,0
222.59,0.98692,2.4447,0.072389,0,0,0,0
223.09,0.98981,2.446,0.072607,0,0,0,0
223.59,0.99309,2.4473,0.073013,0,0,0,0
224.09,0.99634,2.4487,0.073107,0,0,0,0
224.59,0.99928,2.4503,0.073326,0,0,0,0
225.09,1.0022,2.4517,0.073605,0,0,0,0
225.59,1.0052,2.453,0.073856,0,0,0,0
226.09,1.0079,2.454,0.073981,0,0,0,0
226.59,1.0108,2.455,0.074323,0,0,0,0
227.09,1.0135,2.4563,0.074386,0,0,0,0
227.59,1.0164,2.4577,0.074635,0,0,0,0
228.09,1.0194,2.459,0.074853,0,0,0,0
228.59,1.0224,2.4603,0.075165,0,0,0,0
229.09,1.0255,2.4617,0.075445,0,0,0,0
229.59,1.0287,2.463,0.075726,0,0,0,0
230.09,1.0317,2.4643,0.075819,0,0,0,0
230.59,1.0347,2.4657,0.076286,0,0,0,0
231.09,1.0373,2.467,0.076472,0,0,0,0
231.59,1.0403,2.4683,0.076752,0,0,0,0
232.09,1.0428,2.4697,0.076876,0,0,0,0
232.59,1.0456,2.471,0.07725,0,0,0,0
233.09,1.0485,2.472,0.077498,0,0,0,0
233.59,1.0517,2.4733,0.077746,0,0,0,0
234.09,1.0548,2.4747,0.077871,0,0,0,0
234.59,1.0581,2.476,0.07812,0,0,0,0
235.09,1.0611,2.477,0.078554,0,0,0,0
235.59,1.0641,2.4783,0.078648,0,0,0,0
236.09,1.0671,2.4797,0.07899,0,0,0,0
236.59,1.0699,2.481,0.079206,0,0,0,0
237.09,1.0727,2.482,0.079299,0,0,0,0
237.59,1.0754,2.483,0.079609,0,0,0,0
238.09,1.0784,2.4843,0.079888,0,0,0,0
238.59,1.0811,2.4857,0.079981,0,0,0,0
239.09,1.0843,2.487,0.08023,0,0,0,0
239.59,1.0873,2.4883,0.080601,0,0,0,0
240.09,1.0906,2.4897,0.080942,0,0,0,0
240.59,1.0936,2.491,0.08119,0,0,0,0
241.09,1.0966,2.492,0.081374,0,0,0,0
241.59,1.0994,2.4933,0.081746,0,0,0,0
242.09,1.1022,2.4947,0.081932,0,0,0,0
242.59,1.1049,2.496,0.082334,0,0,0,0
243.09,1.1078,2.497,0.082612,0,0,0,0
243.59,1.1106,2.498,0.082643,0,0,0,0
244.09,1.1136,2.499,0.082922,0,0,0,0
244.59,1.1167,2.5,0.0832,0,0,0,0
245.09,1.12,2.5013,0.083446,0,0,0,0
245.59,1.1233,2.5027,0.083817,0,0,0,0
246.09,1.1262,2.504,0.083941,0,0,0,0
246.59,1.1291,2.505,0.084188,0,0,0,0
247.09,1.1319,2.506,0.084465,0,0,0,0
247.59,1.1346,2.5073,0.084743,0,0,0,0
248.09,1.1376,2.5087,0.084959,0,0,0,0
248.59,1.1403,2.51,0.08536,0,0,0,0
249.09,1.1431,2.511,0.085576,0,0,0,0
249.59,1.1461,2.512,0.085914,0,0,0,0
250.09,1.1493,2.513,0.086007,0,0,0,0
250.59,1.1525,2.514,0.086407,0,0,0,0
251.09,1.1556,2.515,0.086623,0,0,0,0
251.59,1.1586,2.516,0.086992,0,0,0,0
252.09,1.1615,2.517,0.087239,0,0,0,0
252.59,1.1642,2.5183,0.087485,0,0,0,0
253.09,1.1671,2.5197,0.087731,0,0,0,0
253.59,1.1698,2.521,0.087916,0,0,0,0
254.09,1.1727,2.522,0.088316,0,0,0,0
254.59,1.1756,2.523,0.088469,0,0,0,0
255.09,1.1784,2.524,0.088807,0,0,0,0
255.59,1.1816,2.5253,0.089176,0,0,0,0
256.09,1.1848,2.5264,0.08933,0,0,0,0
256.58,1.1879,2.5273,0.089728,0,0,0,0
257.09,1.1906,2.5283,0.089974,0,0,0,0
257.59,1.1935,2.5294,0.090251,0,0,0,0
258.09,1.1963,2.5306,0.090465,0,0,0,0
258.58,1.199,2.5317,0.090711,0,0,0,0
259.08,1.202,2.533,0.091171,0,0,0,0
259.59,1.2048,2.534,0.091416,0,0,0,0
260.08,1.2078,2.535,0.091662,0,0,0,0
260.59,1.2109,2.536,0.091936,0,0,0,0
261.09,1.214,2.537,0.092059,0,0,0,0
261.58,1.2172,2.538,0.092396,0,0,0,0
262.08,1.2201,2.539,0.092549,0,0,0,0
262.59,1.2231,2.54,0.092978,0,0,0,0
263.08,1.2259,2.541,0.093131,0,0,0,0
263.58,1.2287,2.542,0.09359,0,0,0,0
264.08,1.2314,2.543,0.093743,0,0,0,0
264.58,1.2343,2.544,0.094048,0,0,0,0
265.08,1.2372,2.545,0.094323,0,0,0,0
265.59,1.24,2.546,0.094782,0,0,0,0
266.08,1.2431,2.5473,0.095026,0,0,0,0
266.59,1.2462,2.5484,0.095454,0,0,0,0
267.09,1.2493,2.5493,0.095667,0,0,0,0
267.58,1.2524,2.55,0.096124,0,0,0,0
268.09,1.2553,2.551,0.096338,0,0,0,0
268.59,1.2584,2.5523,0.096704,0,0,0,0
269.09,1.2611,2.5537,0.096917,0,0,0,0
269.58,1.264,2.5547,0.097283,0,0,0,0
270.09,1.2666,2.5553,0.097557,0,0,0,0
270.58,1.2697,2.556,0.097892,0,0,0,0
271.09,1.2725,2.557,0.098074,0,0,0,0
271.58,1.2758,2.558,0.098378,0,0,0,0
272.08,1.2789,2.559,0.098622,0,0,0,0
272.59,1.2821,2.56,0.098896,0,0,0,0
273.08,1.285,2.561,0.099261,0,0,0,0
273.58,1.288,2.562,0.099565,0,0,0,0
274.08,1.291,2.563,0.099869,0,0,0,0
274.58,1.2938,2.564,0.1002,0,0,0,0
275.09,1.2965,2.565,0.10057,0,0,0,0
275.58,1.2995,2.566,0.1009,0,0,0,0
276.08,1.3019,2.5667,0.10111,0,0,0,0
276.59,1.3051,2.5676,0.10142,0,0,0,0
277.08,1.3085,2.5687,0.10184,0,0,0,0
277.58,1.3117,2.57,0.10233,0,0,0,0
278.08,1.3148,2.571,0.10257,0,0,0,0
278.58,1.3178,2.5717,0.10299,0,0,0,0
279.09,1.3206,2.5723,0.10327,0,0,0,0
279.58,1.3236,2.573,0.10363,0,0,0,0
280.08,1.3265,2.574,0.10399,0,0,0,0
280.59,1.3292,2.575,0.10421,0,0,0,0
281.09,1.3313,2.576,0.10439,0,0,0,0
281.58,1.3353,2.577,0.10484,0,0,0,0
282.08,1.3393,2.578,0.10523,0,0,0,0
282.58,1.3414,2.579,0.10542,0,0,0,0
283.09,1.3446,2.58,0.10584,0,0,0,0
283.58,1.3476,2.5807,0.1062,0,0,0,0
284.09,1.3507,2.5816,0.10644,0,0,0,0
284.58,1.3536,2.5824,0.1069,0,0,0,0
285.08,1.3565,2.5833,0.10726,0,0,0,0
285.58,1.3591,2.584,0.10759,0,0,0,0
286.08,1.3624,2.5847,0.10801,0,0,0,0
286.58,1.3654,2.5856,0.10831,0,0,0,0
287.08,1.3684,2.5864,0.10874,0,0,0,0
287.58,1.3716,2.5876,0.10889,0,0,0,0
288.09,1.3744,2.5884,0.10946,0,0,0,0
288.58,1.3782,2.5893,0.10988,0,0,0,0
289.08,1.3811,2.59,0.10994,0,0,0,0
289.58,1.3842,2.591,0.11045,0,0,0,0
290.09,1.3868,2.592,0.11081,0,0,0,0
290.58,1.3897,2.5927,0.11105,0,0,0,0
291.08,1.3925,2.5933,0.11159,0,0,0,0
291.58,1.3956,2.594,0.11198,0,0,0,0
292.09,1.3986,2.595,0.11234,0,0,0,0
292.58,1.4017,2.596,0.11267,0,0,0,0
293.08,1.4049,2.597,0.11309,0,0,0,0
293.59,1.4083,2.598,0.11339,0,0,0,0
294.08,1.4115,2.5987,0.11375,0,0,0,0
294.59,1.4146,2.5993,0.11417,0,0,0,0
295.08,1.4176,2.6,0.11453,0,0,0,0
295.58,1.4204,2.601,0.11492,0,0,0,0
296.08,1.4233,2.6017,0.11528,0,0,0,0
296.58,1.4262,2.6023,0.11555,0,0,0,0
297.08,1.4292,2.6027,0.116,0,0,0,0
297.58,1.4321,2.6033,0.11621,0,0,0,0
298.08,1.4355,2.604,0.1168,0,0,0,0
298.58,1.4389,2.605,0.1171,0,0,0,0
299.09,1.4419,2.606,0.11749,0,0,0,0
299.58,1.4449,2.607,0.11791,0,0,0,0
300.08,1.4478,2.6077,0.11827,0,0,0,0
300.58,1.4506,2.6083,0.11868,0,0,0,0
301.08,1.4538,2.609,0.11904,0,0,0,0
301.58,1.4564,2.61,0.11949,0,0,0,0
302.09,1.4595,2.611,0.11991,0,0,0,0
302.59,1.4627,2.6117,0.12035,0,0,0,0
303.08,1.4658,2.6123,0.12071,0,0,0,0
303.58,1.469,2.613,0.12107,0,0,0,0
304.08,1.4722,2.614,0.12148,0,0,0,0
304.58,1.4756,2.6147,0.12187,0,0,0,0
305.09,1.4785,2.6153,0.12235,0,0,0,0
305.58,1.4817,2.616,0.12261,0,0,0,0
306.08,1.4847,2.6167,0.12315,0,0,0,0
306.58,1.4874,2.6173,0.12347,0,0,0,0
307.08,1.4904,2.618,0.1238,0,0,0,0
307.58,1.4932,2.6187,0.12439,0,0,0,0
308.08,1.4966,2.6193,0.12472,0,0,0,0
308.59,1.4994,2.62,0.12514,0,0,0,0
309.08,1.503,2.621,0.12546,0,0,0,0
309.58,1.5062,2.6217,0.12591,0,0,0,0
310.09,1.5093,2.6223,0.12626,0,0,0,0
310.58,1.5121,2.6227,0.12685,0,0,0,0
311.08,1.5149,2.6233,0.12724,0,0,0,0
311.58,1.5176,2.624,0.12762,0,0,0,0
312.08,1.5205,2.625,0.12807,0,0,0,0
312.58,1.5242,2.6257,0.12848,0,0,0,0
313.08,1.5269,2.6263,0.12901,0,0,0,0
313.58,1.5303,2.627,0.12943,0,0,0,0
314.08,1.5333,2.6277,0.1299,0,0,0,0
314.58,1.5366,2.6283,0.13037,0,0,0,0
315.08,1.5397,2.6287,0.13075,0,0,0,0
315.58,1.5431,2.6293,0.13119,0,0,0,0
316.09,1.5459,2.63,0.13181,0,0,0,0
316.58,1.5487,2.6307,0.13225,0,0,0,0
317.08,1.5517,2.6313,0.1327,0,0,0,0
317.58,1.5548,2.632,0.13322,0,0,0,0
318.08,1.5579,2.6327,0.13361,0,0,0,0
318.58,1.561,2.6333,0.13413,0,0,0,0
319.08,1.5645,2.634,0.13457,0,0,0,0
319.58,1.5675,2.6347,0.13504,0,0,0,0
320.08,1.5707,2.6353,0.13548,0,0,0,0
320.58,1.5739,2.6354,0.13607,0,0,0,0
321.08,1.5769,2.6356,0.13636,0,0,0,0
321.58,1.5802,2.636,0.13704,0,0,0,0
322.08,1.583,2.637,0.13736,0,0,0,0
322.58,1.586,2.6377,0.13785,0,0,0,0
323.08,1.5891,2.6383,0.13829,0,0,0,0
323.58,1.5921,2.6387,0.13876,0,0,0,0
324.08,1.5951,2.6393,0.13931,0,0,0,0
324.58,1.5987,2.64,0.13978,0,0,0,0
325.08,1.6021,2.641,0.14033,0,0,0,0
325.58,1.6052,2.6417,0.14092,0,0,0,0
326.08,1.6081,2.642,0.14144,0,0,0,0
326.58,1.6111,2.6423,0.14194,0,0,0,0
327.09,1.6143,2.6427,0.14246,0,0,0,0
327.58,1.6172,2.6433,0.14305,0,0,0,0
328.08,1.6202,2.644,0.14357,0,0,0,0
328.58,1.623,2.6447,0.14406,0,0,0,0
329.08,1.6263,2.645,0.1447,0,0,0,0
329.58,1.6299,2.645,0.14525,0,0,0,0
330.08,1.6329,2.6453,0.14581,0,0,0,0
330.58,1.6364,2.646,0.1463,0,0,0,0
331.08,1.6395,2.6467,0.14679,0,0,0,0
331.58,1.6423,2.647,0.14726,0,0,0,0
332.08,1.6454,2.6473,0.14784,0,0,0,0
332.58,1.6483,2.6477,0.14827,0,0,0,0
333.08,1.6514,2.6483,0.14891,0,0,0,0
333.58,1.6541,2.6487,0.14932,0,0,0,0
334.08,1.6575,2.649,0.15004,0,0,0,0
334.58,1.6606,2.6493,0.15044,0,0,0,0
335.08,1.6638,2.6497,0.15114,0,0,0,0
335.58,1.6671,2.6503,0.15171,0,0,0,0
336.08,1.6704,2.651,0.15223,0,0,0,0
336.58,1.6736,2.6517,0.15275,0,0,0,0
337.08,1.6766,2.652,0.15342,0,0,0,0
337.58,1.6796,2.6523,0.15405,0,0,0,0
338.08,1.6828,2.6527,0.15469,0,0,0,0
338.58,1.6858,2.653,0.15535,0,0,0,0
339.08,1.6888,2.6533,0.15587,0,0,0,0
339.58,1.6923,2.6537,0.15659,0,0,0,0
340.08,1.6953,2.6543,0.15719,0,0,0,0
340.58,1.6988,2.6547,0.15776,0,0,0,0
341.08,1.7022,2.6553,0.15857,0,0,0,0
341.58,1.7053,2.6557,0.15902,0,0,0,0
342.08,1.7083,2.656,0.1596,0,0,0,0
342.58,1.7109,2.656,0.16026,0,0,0,0
343.08,1.7142,2.6563,0.16086,0,0,0,0
343.58,1.7174,2.6567,0.16166,0,0,0,0
344.08,1.7205,2.6573,0.16223,0,0,0,0
344.58,1.7237,2.6577,0.16297,0,0,0,0
345.08,1.7271,2.658,0.16348,0,0,0,0
345.58,1.7302,2.658,0.16437,0,0,0,0
346.08,1.7334,2.658,0.16505,0,0,0,0
346.58,1.7367,2.6583,0.16573,0,0,0,0
347.08,1.7398,2.6587,0.16647,0,0,0,0
347.58,1.743,2.659,0.16712,0,0,0,0
348.08,1.746,2.659,0.16769,0,0,0,0
348.58,1.7491,2.6593,0.16854,0,0,0,0
349.08,1.7522,2.6597,0.16922,0,0,0,0
349.58,1.7555,2.66,0.16996,0,0,0,0
350.08,1.759,2.66,0.17075,0,0,0,0
350.58,1.7621,2.66,0.17168,0,0,0,0
351.08,1.7653,2.66,0.17239,0,0,0,0
351.58,1.7686,2.6603,0.17315,0,0,0,0
352.08,1.7718,2.661,0.17394,0,0,0,0
352.58,1.7747,2.6617,0.17462,0,0,0,0
353.08,1.778,2.662,0.17543,0,0,0,0
353.58,1.7811,2.662,0.17633,0,0,0,0
354.08,1.7843,2.662,0.17707,0,0,0,0
354.58,1.7876,2.662,0.17794,0,0,0,0
355.08,1.791,2.662,0.17884,0,0,0,0
355.58,1.7943,2.662,0.17957,0,0,0,0
356.08,1.7978,2.662,0.18038,0,0,0,0
356.58,1.8011,2.662,0.18122,0,0,0,0
357.08,1.8042,2.662,0.18212,0,0,0,0
357.58,1.8074,2.662,0.18307,0,0,0,0
358.08,1.8104,2.662,0.18394,0,0,0,0
358.58,1.8134,2.662,0.18472,0,0,0,0
359.08,1.8165,2.662,0.18564,0,0,0,0
359.58,1.8199,2.662,0.18662,0,0,0,0
360.08,1.823,2.662,0.18729,0,0,0,0
360.58,1.8266,2.6623,0.18818,0,0,0,0
361.08,1.8302,2.6624,0.18913,0,0,0,0
361.58,1.8335,2.6623,0.19016,0,0,0,0
362.08,1.8367,2.6623,0.19119,0,0,0,0
362.58,1.8404,2.6624,0.19216,0,0,0,0
363.08,1.8427,2.6626,0.19316,0,0,0,0
363.58,1.8459,2.6624,0.19421,0,0,0,0
364.08,1.8489,2.6623,0.19504,0,0,0,0
364.58,1.8528,2.662,0.19629,0,0,0,0
365.08,1.8563,2.662,0.19706,0,0,0,0
365.58,1.8594,2.662,0.19814,0,0,0,0
366.08,1.8626,2.662,0.19916,0,0,0,0
366.58,1.8661,2.6617,0.20015,0,0,0,0
367.08,1.8696,2.6613,0.20114,0,0,0,0
367.58,1.8726,2.661,0.2021,0,0,0,0
368.08,1.8758,2.661,0.20314,0,0,0,0
368.58,1.8787,2.661,0.20424,0,0,0,0
369.08,1.8821,2.6607,0.20545,0,0,0,0
369.58,1.8852,2.6603,0.2066,0,0,0,0
370.08,1.8886,2.66,0.20785,0,0,0,0
370.58,1.8921,2.6597,0.20894,0,0,0,0
371.08,1.8956,2.6593,0.20998,0,0,0,0
371.58,1.8989,2.659,0.21137,0,0,0,0
372.08,1.9023,2.6587,0.21245,0,0,0,0
372.58,1.9057,2.6583,0.21364,0,0,0,0
373.08,1.9084,2.6577,0.21478,0,0,0,0
373.58,1.9118,2.6573,0.21597,0,0,0,0
374.08,1.9151,2.6567,0.21714,0,0,0,0
374.58,1.9182,2.656,0.2184,0,0,0,0
375.08,1.9218,2.6553,0.21962,0,0,0,0
375.58,1.9252,2.655,0.2208,0,0,0,0
376.08,1.9285,2.6547,0.2222,0,0,0,0
376.58,1.9319,2.654,0.2233,0,0,0,0
377.08,1.9353,2.6533,0.22473,0,0,0,0
377.58,1.9385,2.6527,0.2259,0,0,0,0
378.08,1.9415,2.6523,0.22727,0,0,0,0
378.58,1.9451,2.6517,0.22853,0,0,0,0
379.08,1.9484,2.651,0.22992,0,0,0,0
379.58,1.9518,2.65,0.23141,0,0,0,0
380.08,1.9549,2.649,0.23269,0,0,0,0
380.58,1.9585,2.648,0.23418,0,0,0,0
381.08,1.962,2.647,0.23577,0,0,0,0
381.58,1.9655,2.646,0.23726,0,0,0,0
382.08,1.9688,2.645,0.23882,0,0,0,0
382.58,1.9722,2.644,0.24004,0,0,0,0
383.08,1.9752,2.6433,0.24157,0,0,0,0
383.58,1.9787,2.6427,0.24297,0,0,0,0
384.08,1.9817,2.6417,0.24437,0,0,0,0
384.58,1.985,2.6403,0.24565,0,0,0,0
385.08,1.9887,2.639,0.24734,0,0,0,0
385.58,1.9922,2.638,0.24878,0,0,0,0
386.08,1.9956,2.637,0.25036,0,0,0,0
386.58,1.999,2.6357,0.25198,0,0,0,0
387.08,2.0024,2.6343,0.25349,0,0,0,0
387.58,2.0059,2.6327,0.25516,0,0,0,0
388.08,2.0092,2.6313,0.25665,0,0,0,0
388.58,2.0125,2.63,0.25823,0,0,0,0
389.08,2.0159,2.6287,0.25984,0,0,0,0
389.58,2.0192,2.6273,0.26135,0,0,0,0
390.08,2.0227,2.6257,0.26293,0,0,0,0
390.58,2.0264,2.624,0.26453,0,0,0,0
391.08,2.0301,2.622,0.26631,0,0,0,0
391.58,2.0333,2.6203,0.26796,0,0,0,0
392.08,2.037,2.6187,0.26978,0,0,0,0
392.58,2.0401,2.617,0.27143,0,0,0,0
393.08,2.0435,2.615,0.27299,0,0,0,0
393.58,2.0466,2.613,0.27476,0,0,0,0
394.08,2.0502,2.6113,0.27637,0,0,0,0
394.58,2.0536,2.6094,0.2781,0,0,0,0
395.08,2.0572,2.6073,0.27988,0,0,0,0
395.58,2.0605,2.605,0.28156,0,0,0,0
396.08,2.0645,2.603,0.28346,0,0,0,0
396.58,2.0682,2.601,0.28524,0,0,0,0
397.08,2.0716,2.5987,0.28698,0,0,0,0
397.58,2.0753,2.5963,0.28885,0,0,0,0
398.08,2.0783,2.594,0.29061,0,0,0,0
398.58,2.0817,2.5917,0.29237,0,0,0,0
399.08,2.0853,2.589,0.2942,0,0,0,0
399.58,2.0889,2.586,0.29603,0,0,0,0
400.08,2.0925,2.5833,0.29789,0,0,0,0
400.58,2.0962,2.5807,0.29988,0,0,0,0
401.08,2.1,2.578,0.3017,0,0,0,0
401.58,2.1036,2.575,0.30364,0,0,0,0
402.08,2.107,2.5723,0.30551,0,0,0,0
402.58,2.1103,2.5694,0.30749,0,0,0,0
403.08,2.1138,2.5666,0.30939,0,0,0,0
403.58,2.1174,2.5634,0.31139,0,0,0,0
404.08,2.1209,2.56,0.31314,0,0,0,0
404.58,2.1247,2.5563,0.31526,0,0,0,0
405.08,2.1285,2.553,0.31715,0,0,0,0
405.58,2.1321,2.5497,0.31896,0,0,0,0
406.08,2.1359,2.5463,0.32106,0,0,0,0
406.58,2.1395,2.543,0.32297,0,0,0,0
407.08,2.1431,2.5397,0.32492,0,0,0,0
407.58,2.1465,2.536,0.32669,0,0,0,0
408.08,2.1499,2.532,0.32885,0,0,0,0
408.58,2.1532,2.528,0.33113,0,0,0,0
409.08,2.1572,2.524,0.33287,0,0,0,0
409.58,2.1608,2.5203,0.33494,0,0,0,0
410.08,2.1646,2.5167,0.33685,0,0,0,0
410.58,2.1685,2.513,0.33891,0,0,0,0
411.08,2.1722,2.509,0.34105,0,0,0,0
411.58,2.1759,2.5047,0.34308,0,0,0,0
412.08,2.1795,2.5003,0.34504,0,0,0,0
412.58,2.183,2.4957,0.34695,0,0,0,0
413.08,2.1863,2.491,0.34924,0,0,0,0
413.58,2.1903,2.486,0.35132,0,0,0,0
414.08,2.194,2.4813,0.35348,0,0,0,0
414.58,2.1978,2.4764,0.35585,0,0,0,0
415.08,2.2015,2.4716,0.35773,0,0,0,0
415.58,2.2055,2.4667,0.35983,0,0,0,0
416.08,2.2091,2.4617,0.36209,0,0,0,0
416.58,2.2128,2.456,0.36427,0,0,0,0
417.08,2.2164,2.4506,0.36645,0,0,0,0
417.58,2.22,2.4451,0.36869,0,0,0,0
418.08,2.2237,2.4396,0.37104,0,0,0,0
418.58,2.2274,2.434,0.37316,0,0,0,0
419.08,2.2314,2.4284,0.37536,0,0,0,0
419.58,2.2352,2.4226,0.37765,0,0,0,0
420.08,2.2391,2.4167,0.37999,0,0,0,0
420.58,2.2432,2.4107,0.38217,0,0,0,0
421.08,2.2466,2.4043,0.38475,0,0,0,0
421.58,2.2504,2.3977,0.38702,0,0,0,0
422.08,2.2542,2.3907,0.3894,0,0,0,0
422.58,2.2579,2.3836,0.39186,0,0,0,0
423.08,2.2618,2.3767,0.39423,0,0,0,0
423.58,2.2658,2.3697,0.39691,0,0,0,0
424.08,2.2698,2.3623,0.39913,0,0,0,0
424.58,2.2741,2.355,0.40184,0,0,0,0
425.08,2.2784,2.3471,0.40432,0,0,0,0
425.58,2.282,2.3386,0.40681,0,0,0,0
426.08,2.286,2.3294,0.40953,0,0,0,0
426.58,2.2901,2.3194,0.41237,0,0,0,0
427.08,2.2942,2.3063,0.41535,0,0,0,0